instructions_exposure.started,instructions_exposure.stopped,instructions_exposure_loop.thisRepN,instructions_exposure_loop.thisTrialN,instructions_exposure_loop.thisN,instructions_exposure_loop.thisIndex,instructions_exposure_loop.ran,instructions_text,continue_text,participant_id,"What variety of Spanish are you most familiar with? (e.g., Peruvian, Spanish, Mexican)",At what age did you begin learning Spanish?,Are you proficient in any languages other than English/Spanish?,"Are you familiar with Caribbean (e.g., Caribbean, Puerto Rican) or Galician Spanish?",date,expName,psychopyVersion,OS,frameRate,id,study_id,session,trial_exposure.started,trial_exposure.stopped,key_resp_exposure.keys,key_resp_exposure.corr,key_resp_exposure.rt,key_resp_exposure.duration,key_resp.keys,exposure_loop.thisRepN,exposure_loop.thisTrialN,exposure_loop.thisN,exposure_loop.thisIndex,exposure_loop.ran,item_num,correct_response,question,path,duration,instructions_2afc.started,instructions_2afc.stopped,instructions_2afc_loop.thisRepN,instructions_2afc_loop.thisTrialN,instructions_2afc_loop.thisN,instructions_2afc_loop.thisIndex,instructions_2afc_loop.ran,practice_2afc.started,practice_2afc.stopped,key_resp_2afc_practice.keys,key_resp_2afc_practice.corr,key_resp_2afc_practice.rt,key_resp_2afc_practice.duration,trials_2afc_practice_loop.thisRepN,trials_2afc_practice_loop.thisTrialN,trials_2afc_practice_loop.thisN,trials_2afc_practice_loop.thisIndex,trials_2afc_practice_loop.ran,check_2afc.started,check_2afc.stopped,trial_2afc.started,trial_2afc.stopped,key_resp_2afc_trial.keys,key_resp_2afc_trial.corr,key_resp_2afc_trial.rt,key_resp_2afc_trial.duration,trials_2afc_loop.thisRepN,trials_2afc_loop.thisTrialN,trials_2afc_loop.thisN,trials_2afc_loop.thisIndex,trials_2afc_loop.ran,target,variety,instructions_lextale.started,instructions_lextale.stopped,instructions_lextale_loop.thisRepN,instructions_lextale_loop.thisTrialN,instructions_lextale_loop.thisN,instructions_lextale_loop.thisIndex,instructions_lextale_loop.ran,practice_lextale.started,practice_lextale.stopped,key_resp_lextale_practice.keys,key_resp_lextale_practice.corr,key_resp_lextale_practice.rt,key_resp_lextale_practice.duration,practice_feedback_lextale.started,practice_feedback_lextale.stopped,trials_lextale_practice_loop.thisRepN,trials_lextale_practice_loop.thisTrialN,trials_lextale_practice_loop.thisN,trials_lextale_practice_loop.thisIndex,trials_lextale_practice_loop.ran,stim,word,prac_button_real,prac_button_false,check_lextale.started,check_lextale.stopped,trial_lextale.started,trial_lextale.stopped,key_resp_lextale_trial.keys,key_resp_lextale_trial.corr,key_resp_lextale_trial.rt,key_resp_lextale_trial.duration,trials_lextale_loop.thisRepN,trials_lextale_loop.thisTrialN,trials_lextale_loop.thisN,trials_lextale_loop.thisIndex,trials_lextale_loop.ran,button_real,button_false,instructions_eq.started,instructions_eq.stopped,trial_eq.started,trial_eq.stopped,slider_eq_trial.response,trials_eq_loop.thisRepN,trials_eq_loop.thisTrialN,trials_eq_loop.thisN,trials_eq_loop.thisIndex,trials_eq_loop.ran,item,is_test_item,is_distractor,is_agree_score,is_disagree_score,end_exp.started,end_exp.stopped
0.0267,2.5216,0,0,0,0,1,"In the following task, you are going to hear a series of conversations.", (press the space bar to continue),66d06fd15b37d17345069c4c,spanish,13 or older,"no, only English or Spanish",no,2025-08-12_14h29.12.871,empathy_intonation_perc,2024.2.4,Win32,59.88023952,66d06fd15b37d17345069c4c,687ed1b7e638a4cbf2f02089,689b874ed0ae9b5b45d959c4,,,,,,,,,,,,,,,,,,,,,,,,,,,,,,,,,,,,,,,,,,,,,,,,,,,,,,,,,,,,,,,,,,,,,,,,,,,,,,,,,,,,,,,,,,,,,,,,,,,,,,,,,,
2.5226,4.2209,0,1,1,1,1,It is okay if you don't not 100% understand them!, (press the space bar to continue),66d06fd15b37d17345069c4c,spanish,13 or older,"no, only English or Spanish",no,2025-08-12_14h29.12.871,empathy_intonation_perc,2024.2.4,Win32,59.88023952,66d06fd15b37d17345069c4c,687ed1b7e638a4cbf2f02089,689b874ed0ae9b5b45d959c4,,,,,,,,,,,,,,,,,,,,,,,,,,,,,,,,,,,,,,,,,,,,,,,,,,,,,,,,,,,,,,,,,,,,,,,,,,,,,,,,,,,,,,,,,,,,,,,,,,,,,,,,,,
4.2222,5.5187,0,2,2,2,1,"After, you will read a sentence about the conversation and decide if it's true or false.", (press the space bar to continue),66d06fd15b37d17345069c4c,spanish,13 or older,"no, only English or Spanish",no,2025-08-12_14h29.12.871,empathy_intonation_perc,2024.2.4,Win32,59.88023952,66d06fd15b37d17345069c4c,687ed1b7e638a4cbf2f02089,689b874ed0ae9b5b45d959c4,,,,,,,,,,,,,,,,,,,,,,,,,,,,,,,,,,,,,,,,,,,,,,,,,,,,,,,,,,,,,,,,,,,,,,,,,,,,,,,,,,,,,,,,,,,,,,,,,,,,,,,,,,
5.5213,7.686,0,3,3,3,1,"If it's true, press '1' (True) and if it's false press '0' (False).", (press the space bar to continue),66d06fd15b37d17345069c4c,spanish,13 or older,"no, only English or Spanish",no,2025-08-12_14h29.12.871,empathy_intonation_perc,2024.2.4,Win32,59.88023952,66d06fd15b37d17345069c4c,687ed1b7e638a4cbf2f02089,689b874ed0ae9b5b45d959c4,,,,,,,,,,,,,,,,,,,,,,,,,,,,,,,,,,,,,,,,,,,,,,,,,,,,,,,,,,,,,,,,,,,,,,,,,,,,,,,,,,,,,,,,,,,,,,,,,,,,,,,,,,
,,,,,,,,,66d06fd15b37d17345069c4c,spanish,13 or older,"no, only English or Spanish",no,2025-08-12_14h29.12.871,empathy_intonation_perc,2024.2.4,Win32,59.88023952,66d06fd15b37d17345069c4c,687ed1b7e638a4cbf2f02089,689b874ed0ae9b5b45d959c4,7.6921,70.8345,1,1,3.108,,,0,0,0,1,1,2,1,The mom asked the daughter if she already went to the supermarket.,./stim/exposure_wavs/dr_stimuli_convo.wav,60,,,,,,,,,,,,,,,,,,,,,,,,,,,,,,,,,,,,,,,,,,,,,,,,,,,,,,,,,,,,,,,,,,,,,,,,,,,,,,,,,,,,,,,,,
,,,,,,,,,66d06fd15b37d17345069c4c,spanish,13 or older,"no, only English or Spanish",no,2025-08-12_14h29.12.871,empathy_intonation_perc,2024.2.4,Win32,59.88023952,66d06fd15b37d17345069c4c,687ed1b7e638a4cbf2f02089,689b874ed0ae9b5b45d959c4,70.8364,119.8151,1,1,1.9437,,,0,1,1,0,1,1,1,The son asked the mom if Aunt Marina is okay.,./stim/exposure_wavs/ga_stimuli_convo.wav,47,,,,,,,,,,,,,,,,,,,,,,,,,,,,,,,,,,,,,,,,,,,,,,,,,,,,,,,,,,,,,,,,,,,,,,,,,,,,,,,,,,,,,,,,,
,,,,,,,,,66d06fd15b37d17345069c4c,spanish,13 or older,"no, only English or Spanish",no,2025-08-12_14h29.12.871,empathy_intonation_perc,2024.2.4,Win32,59.88023952,66d06fd15b37d17345069c4c,687ed1b7e638a4cbf2f02089,689b874ed0ae9b5b45d959c4,119.8175,157.6973,1,0,1.8626,,,0,2,2,2,1,3,0,The mom already has rice.,./stim/exposure_wavs/pr_stimuli_convo.wav,36,,,,,,,,,,,,,,,,,,,,,,,,,,,,,,,,,,,,,,,,,,,,,,,,,,,,,,,,,,,,,,,,,,,,,,,,,,,,,,,,,,,,,,,,,
,,,,,,,"In the following task you are going to hear a series of utterances. 

  You will decide if the utterances sound like questions or not using your keyboard.", (press the spacebar to continue),66d06fd15b37d17345069c4c,spanish,13 or older,"no, only English or Spanish",no,2025-08-12_14h29.12.871,empathy_intonation_perc,2024.2.4,Win32,59.88023952,66d06fd15b37d17345069c4c,687ed1b7e638a4cbf2f02089,689b874ed0ae9b5b45d959c4,,,,,,,,,,,,,,,,,,157.704,180.0978,0,0,0,0,1,,,,,,,,,,,,,,,,,,,,,,,,,,,,,,,,,,,,,,,,,,,,,,,,,,,,,,,,,,,,,,,,,,,,,,,,,,,,,,,,,,
,,,,,,,"If you believe the utterance is a question, type '1' (for 'yes') and if you do not 
  believe it is a question type '0' (for 'no').

  Let's practice a bit...", (press the spacebar to continue),66d06fd15b37d17345069c4c,spanish,13 or older,"no, only English or Spanish",no,2025-08-12_14h29.12.871,empathy_intonation_perc,2024.2.4,Win32,59.88023952,66d06fd15b37d17345069c4c,687ed1b7e638a4cbf2f02089,689b874ed0ae9b5b45d959c4,,,,,,,,,,,,,,,,,,180.1,186.1147,0,1,1,1,1,,,,,,,,,,,,,,,,,,,,,,,,,,,,,,,,,,,,,,,,,,,,,,,,,,,,,,,,,,,,,,,,,,,,,,,,,,,,,,,,,,
,,,,,,,,,66d06fd15b37d17345069c4c,spanish,13 or older,"no, only English or Spanish",no,2025-08-12_14h29.12.871,empathy_intonation_perc,2024.2.4,Win32,59.88023952,66d06fd15b37d17345069c4c,687ed1b7e638a4cbf2f02089,689b874ed0ae9b5b45d959c4,,,,,,,,,,,,,,0,,./stim/wavs/puertorican_statement_filler_La-nina-pinta-con-su-amiga.wav,,,,,,,,,186.1247,188.6976,0,1,2.0546,,0,0,0,7,1,,,,,,,,,,,,,,,,,,,,,,,,,,,,,,,,,,,,,,,,,,,,,,,,,,,,,,,,,,,,,,,,,,,,,,,
,,,,,,,,,66d06fd15b37d17345069c4c,spanish,13 or older,"no, only English or Spanish",no,2025-08-12_14h29.12.871,empathy_intonation_perc,2024.2.4,Win32,59.88023952,66d06fd15b37d17345069c4c,687ed1b7e638a4cbf2f02089,689b874ed0ae9b5b45d959c4,,,,,,,,,,,,,,0,,./stim/wavs/cuban_statement_filler_Cocinabas-por-la-noche.wav,,,,,,,,,188.6985,192.2466,0,1,3.0189,,0,1,1,4,1,,,,,,,,,,,,,,,,,,,,,,,,,,,,,,,,,,,,,,,,,,,,,,,,,,,,,,,,,,,,,,,,,,,,,,,
,,,,,,,,,66d06fd15b37d17345069c4c,spanish,13 or older,"no, only English or Spanish",no,2025-08-12_14h29.12.871,empathy_intonation_perc,2024.2.4,Win32,59.88023952,66d06fd15b37d17345069c4c,687ed1b7e638a4cbf2f02089,689b874ed0ae9b5b45d959c4,,,,,,,,,,,,,,1,,./stim/wavs/mexican_question_filler_Felipe-no-tiene-contrasena.wav,,,,,,,,,192.2475,195.4303,1,1,2.6565,,0,2,2,3,1,,,,,,,,,,,,,,,,,,,,,,,,,,,,,,,,,,,,,,,,,,,,,,,,,,,,,,,,,,,,,,,,,,,,,,,
,,,,,,,,,66d06fd15b37d17345069c4c,spanish,13 or older,"no, only English or Spanish",no,2025-08-12_14h29.12.871,empathy_intonation_perc,2024.2.4,Win32,59.88023952,66d06fd15b37d17345069c4c,687ed1b7e638a4cbf2f02089,689b874ed0ae9b5b45d959c4,,,,,,,,,,,,,,0,,./stim/wavs/andalusian_statement_filler_Alberto-nunca-se-afeita.wav,,,,,,,,,195.4309,199.1338,1,0,3.1675,,0,3,3,5,1,,,,,,,,,,,,,,,,,,,,,,,,,,,,,,,,,,,,,,,,,,,,,,,,,,,,,,,,,,,,,,,,,,,,,,,
,,,,,,,,,66d06fd15b37d17345069c4c,spanish,13 or older,"no, only English or Spanish",no,2025-08-12_14h29.12.871,empathy_intonation_perc,2024.2.4,Win32,59.88023952,66d06fd15b37d17345069c4c,687ed1b7e638a4cbf2f02089,689b874ed0ae9b5b45d959c4,,,,,,,,,,,,,,1,,./stim/wavs/castilian_question_filler_Mi-esposo-conoce-al-chico.wav,,,,,,,,,199.1343,211.7964,1,1,12.133,,0,4,4,0,1,,,,,,,,,,,,,,,,,,,,,,,,,,,,,,,,,,,,,,,,,,,,,,,,,,,,,,,,,,,,,,,,,,,,,,,
,,,,,,,,,66d06fd15b37d17345069c4c,spanish,13 or older,"no, only English or Spanish",no,2025-08-12_14h29.12.871,empathy_intonation_perc,2024.2.4,Win32,59.88023952,66d06fd15b37d17345069c4c,687ed1b7e638a4cbf2f02089,689b874ed0ae9b5b45d959c4,,,,,,,,,,,,,,0,,./stim/wavs/peruvian_statement_filler_El-nino-habla-con-su-madre.wav,,,,,,,,,211.797,215.0122,0,1,2.6771,,0,5,5,6,1,,,,,,,,,,,,,,,,,,,,,,,,,,,,,,,,,,,,,,,,,,,,,,,,,,,,,,,,,,,,,,,,,,,,,,,
,,,,,,,,,66d06fd15b37d17345069c4c,spanish,13 or older,"no, only English or Spanish",no,2025-08-12_14h29.12.871,empathy_intonation_perc,2024.2.4,Win32,59.88023952,66d06fd15b37d17345069c4c,687ed1b7e638a4cbf2f02089,689b874ed0ae9b5b45d959c4,,,,,,,,,,,,,,1,,./stim/wavs/chilean_question_filler_Mi-padre-cantaba-bien.wav,,,,,,,,,215.0131,223.813,1,1,8.2672,,0,6,6,2,1,,,,,,,,,,,,,,,,,,,,,,,,,,,,,,,,,,,,,,,,,,,,,,,,,,,,,,,,,,,,,,,,,,,,,,,
,,,,,,,,,66d06fd15b37d17345069c4c,spanish,13 or older,"no, only English or Spanish",no,2025-08-12_14h29.12.871,empathy_intonation_perc,2024.2.4,Win32,59.88023952,66d06fd15b37d17345069c4c,687ed1b7e638a4cbf2f02089,689b874ed0ae9b5b45d959c4,,,,,,,,,,,,,,1,,./stim/wavs/argentine_question_filler_Mi-vecino-habla-mucho.wav,,,,,,,,,223.814,231.9116,1,1,7.5799,,0,7,7,1,1,,,,,,,,,,,,,,,,,,,,,,,,,,,,,,,,,,,,,,,,,,,,,,,,,,,,,,,,,,,,,,,,,,,,,,,
,,,,,,,,,66d06fd15b37d17345069c4c,spanish,13 or older,"no, only English or Spanish",no,2025-08-12_14h29.12.871,empathy_intonation_perc,2024.2.4,Win32,59.88023952,66d06fd15b37d17345069c4c,687ed1b7e638a4cbf2f02089,689b874ed0ae9b5b45d959c4,,,,,,,,,,,,,,,,,,,,,,,,,,,,,,,,,,,,231.9119,238.6795,,,,,,,,,,,,,,,,,,,,,,,,,,,,,,,,,,,,,,,,,,,,,,,,,,,,,,,,,,,,,,,,,,,,,
,,,,,,,,,66d06fd15b37d17345069c4c,spanish,13 or older,"no, only English or Spanish",no,2025-08-12_14h29.12.871,empathy_intonation_perc,2024.2.4,Win32,59.88023952,66d06fd15b37d17345069c4c,687ed1b7e638a4cbf2f02089,689b874ed0ae9b5b45d959c4,,,,,,,,,,,,,12,1,,./stim/wavs/cuban_match_interrogative-total-yn_Marta-abre-el-regalo.wav,,,,,,,,,,,,,,,,,,,,,,238.693,243.2625,0,0,4.0467,,0,0,0,11,1,1,cuban,,,,,,,,,,,,,,,,,,,,,,,,,,,,,,,,,,,,,,,,,,,,,,,,,,,,,,,,
,,,,,,,,,66d06fd15b37d17345069c4c,spanish,13 or older,"no, only English or Spanish",no,2025-08-12_14h29.12.871,empathy_intonation_perc,2024.2.4,Win32,59.88023952,66d06fd15b37d17345069c4c,687ed1b7e638a4cbf2f02089,689b874ed0ae9b5b45d959c4,,,,,,,,,,,,,62,0,,./stim/wavs/mexican_match_declarative-broad-focus_Marta-abre-el-regalo.wav,,,,,,,,,,,,,,,,,,,,,,243.2631,251.7608,0,1,7.973,,0,1,1,61,1,0,mexican,,,,,,,,,,,,,,,,,,,,,,,,,,,,,,,,,,,,,,,,,,,,,,,,,,,,,,,,
,,,,,,,,,66d06fd15b37d17345069c4c,spanish,13 or older,"no, only English or Spanish",no,2025-08-12_14h29.12.871,empathy_intonation_perc,2024.2.4,Win32,59.88023952,66d06fd15b37d17345069c4c,687ed1b7e638a4cbf2f02089,689b874ed0ae9b5b45d959c4,,,,,,,,,,,,,58,0,,./stim/wavs/mexican_match_declarative-broad-focus_Daniel-iba-a-Bolivia.wav,,,,,,,,,,,,,,,,,,,,,,251.762,322.6094,1,0,70.3192,,0,2,2,57,1,0,mexican,,,,,,,,,,,,,,,,,,,,,,,,,,,,,,,,,,,,,,,,,,,,,,,,,,,,,,,,
,,,,,,,,,66d06fd15b37d17345069c4c,spanish,13 or older,"no, only English or Spanish",no,2025-08-12_14h29.12.871,empathy_intonation_perc,2024.2.4,Win32,59.88023952,66d06fd15b37d17345069c4c,687ed1b7e638a4cbf2f02089,689b874ed0ae9b5b45d959c4,,,,,,,,,,,,,29,1,,./stim/wavs/castilian_mismatch_interrogative-total-yn_Mi-tia-odia-la-lluvia.wav,,,,,,,,,,,,,,,,,,,,,,322.6105,323.5931,0,0,0.4676,,0,3,3,28,1,0,castilian,,,,,,,,,,,,,,,,,,,,,,,,,,,,,,,,,,,,,,,,,,,,,,,,,,,,,,,,
,,,,,,,,,66d06fd15b37d17345069c4c,spanish,13 or older,"no, only English or Spanish",no,2025-08-12_14h29.12.871,empathy_intonation_perc,2024.2.4,Win32,59.88023952,66d06fd15b37d17345069c4c,687ed1b7e638a4cbf2f02089,689b874ed0ae9b5b45d959c4,,,,,,,,,,,,,6,1,,./stim/wavs/castilian_match_interrogative-total-yn_Marta-abre-el-regalo.wav,,,,,,,,,,,,,,,,,,,,,,323.5937,325.1257,0,0,1.0151,,0,4,4,5,1,0,castilian,,,,,,,,,,,,,,,,,,,,,,,,,,,,,,,,,,,,,,,,,,,,,,,,,,,,,,,,
,,,,,,,,,66d06fd15b37d17345069c4c,spanish,13 or older,"no, only English or Spanish",no,2025-08-12_14h29.12.871,empathy_intonation_perc,2024.2.4,Win32,59.88023952,66d06fd15b37d17345069c4c,687ed1b7e638a4cbf2f02089,689b874ed0ae9b5b45d959c4,,,,,,,,,,,,,38,1,,./stim/wavs/mexican_mismatch_interrogative-total-yn_Mi-novio-viene-del-lago.wav,,,,,,,,,,,,,,,,,,,,,,325.1268,327.0962,0,0,1.445,,0,5,5,37,1,0,mexican,,,,,,,,,,,,,,,,,,,,,,,,,,,,,,,,,,,,,,,,,,,,,,,,,,,,,,,,
,,,,,,,,,66d06fd15b37d17345069c4c,spanish,13 or older,"no, only English or Spanish",no,2025-08-12_14h29.12.871,empathy_intonation_perc,2024.2.4,Win32,59.88023952,66d06fd15b37d17345069c4c,687ed1b7e638a4cbf2f02089,689b874ed0ae9b5b45d959c4,,,,,,,,,,,,,52,0,,./stim/wavs/cuban_match_declarative-broad-focus_Daniel-iba-a-Bolivia.wav,,,,,,,,,,,,,,,,,,,,,,327.0969,385.3919,1,0,57.7766,,0,6,6,51,1,0,cuban,,,,,,,,,,,,,,,,,,,,,,,,,,,,,,,,,,,,,,,,,,,,,,,,,,,,,,,,
,,,,,,,,,66d06fd15b37d17345069c4c,spanish,13 or older,"no, only English or Spanish",no,2025-08-12_14h29.12.871,empathy_intonation_perc,2024.2.4,Win32,59.88023952,66d06fd15b37d17345069c4c,687ed1b7e638a4cbf2f02089,689b874ed0ae9b5b45d959c4,,,,,,,,,,,,,77,0,,./stim/wavs/cuban_mismatch_declarative-broad-focus_Mi-novio-viene-del-lago.wav,,,,,,,,,,,,,,,,,,,,,,385.3927,386.0409,0,1,0.1192,,0,7,7,76,1,0,cuban,,,,,,,,,,,,,,,,,,,,,,,,,,,,,,,,,,,,,,,,,,,,,,,,,,,,,,,,
,,,,,,,,,66d06fd15b37d17345069c4c,spanish,13 or older,"no, only English or Spanish",no,2025-08-12_14h29.12.871,empathy_intonation_perc,2024.2.4,Win32,59.88023952,66d06fd15b37d17345069c4c,687ed1b7e638a4cbf2f02089,689b874ed0ae9b5b45d959c4,,,,,,,,,,,,,59,0,,./stim/wavs/mexican_match_declarative-broad-focus_David-leia-el-libro.wav,,,,,,,,,,,,,,,,,,,,,,386.0417,388.3746,0,1,1.8049,,0,8,8,58,1,0,mexican,,,,,,,,,,,,,,,,,,,,,,,,,,,,,,,,,,,,,,,,,,,,,,,,,,,,,,,,
,,,,,,,,,66d06fd15b37d17345069c4c,spanish,13 or older,"no, only English or Spanish",no,2025-08-12_14h29.12.871,empathy_intonation_perc,2024.2.4,Win32,59.88023952,66d06fd15b37d17345069c4c,687ed1b7e638a4cbf2f02089,689b874ed0ae9b5b45d959c4,,,,,,,,,,,,,27,1,,./stim/wavs/castilian_mismatch_interrogative-total-yn_Mi-madre-come-la-fruta.wav,,,,,,,,,,,,,,,,,,,,,,388.3753,390.9406,1,1,2.0403,,0,9,9,26,1,0,castilian,,,,,,,,,,,,,,,,,,,,,,,,,,,,,,,,,,,,,,,,,,,,,,,,,,,,,,,,
,,,,,,,,,66d06fd15b37d17345069c4c,spanish,13 or older,"no, only English or Spanish",no,2025-08-12_14h29.12.871,empathy_intonation_perc,2024.2.4,Win32,59.88023952,66d06fd15b37d17345069c4c,687ed1b7e638a4cbf2f02089,689b874ed0ae9b5b45d959c4,,,,,,,,,,,,,17,1,,./stim/wavs/mexican_match_interrogative-total-yn_Mariano-habla-del-tiempo.wav,,,,,,,,,,,,,,,,,,,,,,390.9413,394.1064,1,1,2.6295,,0,10,10,16,1,0,mexican,,,,,,,,,,,,,,,,,,,,,,,,,,,,,,,,,,,,,,,,,,,,,,,,,,,,,,,,
,,,,,,,,,66d06fd15b37d17345069c4c,spanish,13 or older,"no, only English or Spanish",no,2025-08-12_14h29.12.871,empathy_intonation_perc,2024.2.4,Win32,59.88023952,66d06fd15b37d17345069c4c,687ed1b7e638a4cbf2f02089,689b874ed0ae9b5b45d959c4,,,,,,,,,,,,,7,1,,./stim/wavs/cuban_match_interrogative-total-yn_Ana-lleva-el-abrigo.wav,,,,,,,,,,,,,,,,,,,,,,394.1075,397.9264,0,0,3.2991,,0,11,11,6,1,1,cuban,,,,,,,,,,,,,,,,,,,,,,,,,,,,,,,,,,,,,,,,,,,,,,,,,,,,,,,,
,,,,,,,,,66d06fd15b37d17345069c4c,spanish,13 or older,"no, only English or Spanish",no,2025-08-12_14h29.12.871,empathy_intonation_perc,2024.2.4,Win32,59.88023952,66d06fd15b37d17345069c4c,687ed1b7e638a4cbf2f02089,689b874ed0ae9b5b45d959c4,,,,,,,,,,,,,88,0,,./stim/wavs/puertorican_mismatch_declarative-broad-focus_La-nina-lava-el-plato.wav,,,,,,,,,,,,,,,,,,,,,,397.9271,400.2569,1,0,1.8044,,0,12,12,87,1,0,puertorican,,,,,,,,,,,,,,,,,,,,,,,,,,,,,,,,,,,,,,,,,,,,,,,,,,,,,,,,
,,,,,,,,,66d06fd15b37d17345069c4c,spanish,13 or older,"no, only English or Spanish",no,2025-08-12_14h29.12.871,empathy_intonation_perc,2024.2.4,Win32,59.88023952,66d06fd15b37d17345069c4c,687ed1b7e638a4cbf2f02089,689b874ed0ae9b5b45d959c4,,,,,,,,,,,,,30,1,,./stim/wavs/cuban_mismatch_interrogative-total-yn_El-hombre-mira-la-luna.wav,,,,,,,,,,,,,,,,,,,,,,400.2579,404.1566,0,0,3.3663,,0,13,13,29,1,1,cuban,,,,,,,,,,,,,,,,,,,,,,,,,,,,,,,,,,,,,,,,,,,,,,,,,,,,,,,,
,,,,,,,,,66d06fd15b37d17345069c4c,spanish,13 or older,"no, only English or Spanish",no,2025-08-12_14h29.12.871,empathy_intonation_perc,2024.2.4,Win32,59.88023952,66d06fd15b37d17345069c4c,687ed1b7e638a4cbf2f02089,689b874ed0ae9b5b45d959c4,,,,,,,,,,,,,49,0,,./stim/wavs/castilian_match_declarative-broad-focus_Mariano-habla-del-tiempo.wav,,,,,,,,,,,,,,,,,,,,,,404.1576,407.3927,1,0,2.7159,,0,14,14,48,1,0,castilian,,,,,,,,,,,,,,,,,,,,,,,,,,,,,,,,,,,,,,,,,,,,,,,,,,,,,,,,
,,,,,,,,,66d06fd15b37d17345069c4c,spanish,13 or older,"no, only English or Spanish",no,2025-08-12_14h29.12.871,empathy_intonation_perc,2024.2.4,Win32,59.88023952,66d06fd15b37d17345069c4c,687ed1b7e638a4cbf2f02089,689b874ed0ae9b5b45d959c4,,,,,,,,,,,,,55,0,,./stim/wavs/cuban_match_declarative-broad-focus_Mariano-habla-del-tiempo.wav,,,,,,,,,,,,,,,,,,,,,,407.3934,420.1762,1,0,12.2789,,0,15,15,54,1,0,cuban,,,,,,,,,,,,,,,,,,,,,,,,,,,,,,,,,,,,,,,,,,,,,,,,,,,,,,,,
,,,,,,,,,66d06fd15b37d17345069c4c,spanish,13 or older,"no, only English or Spanish",no,2025-08-12_14h29.12.871,empathy_intonation_perc,2024.2.4,Win32,59.88023952,66d06fd15b37d17345069c4c,687ed1b7e638a4cbf2f02089,689b874ed0ae9b5b45d959c4,,,,,,,,,,,,,13,1,,./stim/wavs/mexican_match_interrogative-total-yn_Ana-lleva-el-abrigo.wav,,,,,,,,,,,,,,,,,,,,,,420.1768,439.4051,1,1,18.6836,,0,16,16,12,1,0,mexican,,,,,,,,,,,,,,,,,,,,,,,,,,,,,,,,,,,,,,,,,,,,,,,,,,,,,,,,
,,,,,,,,,66d06fd15b37d17345069c4c,spanish,13 or older,"no, only English or Spanish",no,2025-08-12_14h29.12.871,empathy_intonation_perc,2024.2.4,Win32,59.88023952,66d06fd15b37d17345069c4c,687ed1b7e638a4cbf2f02089,689b874ed0ae9b5b45d959c4,,,,,,,,,,,,,81,0,,./stim/wavs/mexican_mismatch_declarative-broad-focus_La-maestra-vive-en-Paris.wav,,,,,,,,,,,,,,,,,,,,,,439.4064,441.642,0,1,1.7158,,0,17,17,80,1,0,mexican,,,,,,,,,,,,,,,,,,,,,,,,,,,,,,,,,,,,,,,,,,,,,,,,,,,,,,,,
,,,,,,,,,66d06fd15b37d17345069c4c,spanish,13 or older,"no, only English or Spanish",no,2025-08-12_14h29.12.871,empathy_intonation_perc,2024.2.4,Win32,59.88023952,66d06fd15b37d17345069c4c,687ed1b7e638a4cbf2f02089,689b874ed0ae9b5b45d959c4,,,,,,,,,,,,,51,0,,./stim/wavs/cuban_match_declarative-broad-focus_Ana-lleva-el-abrigo.wav,,,,,,,,,,,,,,,,,,,,,,441.6425,444.4392,0,1,2.2762,,0,18,18,50,1,0,cuban,,,,,,,,,,,,,,,,,,,,,,,,,,,,,,,,,,,,,,,,,,,,,,,,,,,,,,,,
,,,,,,,,,66d06fd15b37d17345069c4c,spanish,13 or older,"no, only English or Spanish",no,2025-08-12_14h29.12.871,empathy_intonation_perc,2024.2.4,Win32,59.88023952,66d06fd15b37d17345069c4c,687ed1b7e638a4cbf2f02089,689b874ed0ae9b5b45d959c4,,,,,,,,,,,,,66,0,,./stim/wavs/puertorican_match_declarative-broad-focus_Emilio-ama-la-marcha.wav,,,,,,,,,,,,,,,,,,,,,,444.4399,446.8718,0,1,1.9016,,0,19,19,65,1,0,puertorican,,,,,,,,,,,,,,,,,,,,,,,,,,,,,,,,,,,,,,,,,,,,,,,,,,,,,,,,
,,,,,,,,,66d06fd15b37d17345069c4c,spanish,13 or older,"no, only English or Spanish",no,2025-08-12_14h29.12.871,empathy_intonation_perc,2024.2.4,Win32,59.88023952,66d06fd15b37d17345069c4c,687ed1b7e638a4cbf2f02089,689b874ed0ae9b5b45d959c4,,,,,,,,,,,,,46,0,,./stim/wavs/castilian_match_declarative-broad-focus_Emilio-ama-la-marcha.wav,,,,,,,,,,,,,,,,,,,,,,446.873,451.3217,1,0,3.9072,,0,20,20,45,1,0,castilian,,,,,,,,,,,,,,,,,,,,,,,,,,,,,,,,,,,,,,,,,,,,,,,,,,,,,,,,
,,,,,,,,,66d06fd15b37d17345069c4c,spanish,13 or older,"no, only English or Spanish",no,2025-08-12_14h29.12.871,empathy_intonation_perc,2024.2.4,Win32,59.88023952,66d06fd15b37d17345069c4c,687ed1b7e638a4cbf2f02089,689b874ed0ae9b5b45d959c4,,,,,,,,,,,,,69,0,,./stim/wavs/castilian_mismatch_declarative-broad-focus_El-nino-oye-el-rio.wav,,,,,,,,,,,,,,,,,,,,,,451.3228,454.4423,0,1,2.5995,,0,21,21,68,1,0,castilian,,,,,,,,,,,,,,,,,,,,,,,,,,,,,,,,,,,,,,,,,,,,,,,,,,,,,,,,
,,,,,,,,,66d06fd15b37d17345069c4c,spanish,13 or older,"no, only English or Spanish",no,2025-08-12_14h29.12.871,empathy_intonation_perc,2024.2.4,Win32,59.88023952,66d06fd15b37d17345069c4c,687ed1b7e638a4cbf2f02089,689b874ed0ae9b5b45d959c4,,,,,,,,,,,,,5,1,,./stim/wavs/castilian_match_interrogative-total-yn_Mariano-habla-del-tiempo.wav,,,,,,,,,,,,,,,,,,,,,,454.4427,457.6059,1,1,2.6431,,0,22,22,4,1,0,castilian,,,,,,,,,,,,,,,,,,,,,,,,,,,,,,,,,,,,,,,,,,,,,,,,,,,,,,,,
,,,,,,,,,66d06fd15b37d17345069c4c,spanish,13 or older,"no, only English or Spanish",no,2025-08-12_14h29.12.871,empathy_intonation_perc,2024.2.4,Win32,59.88023952,66d06fd15b37d17345069c4c,687ed1b7e638a4cbf2f02089,689b874ed0ae9b5b45d959c4,,,,,,,,,,,,,45,0,,./stim/wavs/castilian_match_declarative-broad-focus_David-leia-el-libro.wav,,,,,,,,,,,,,,,,,,,,,,457.6065,463.2217,0,1,5.0862,,0,23,23,44,1,0,castilian,,,,,,,,,,,,,,,,,,,,,,,,,,,,,,,,,,,,,,,,,,,,,,,,,,,,,,,,
,,,,,,,,,66d06fd15b37d17345069c4c,spanish,13 or older,"no, only English or Spanish",no,2025-08-12_14h29.12.871,empathy_intonation_perc,2024.2.4,Win32,59.88023952,66d06fd15b37d17345069c4c,687ed1b7e638a4cbf2f02089,689b874ed0ae9b5b45d959c4,,,,,,,,,,,,,26,1,,./stim/wavs/castilian_mismatch_interrogative-total-yn_La-nina-lava-el-plato.wav,,,,,,,,,,,,,,,,,,,,,,463.2224,466.2436,1,1,2.5006,,0,24,24,25,1,0,castilian,,,,,,,,,,,,,,,,,,,,,,,,,,,,,,,,,,,,,,,,,,,,,,,,,,,,,,,,
,,,,,,,,,66d06fd15b37d17345069c4c,spanish,13 or older,"no, only English or Spanish",no,2025-08-12_14h29.12.871,empathy_intonation_perc,2024.2.4,Win32,59.88023952,66d06fd15b37d17345069c4c,687ed1b7e638a4cbf2f02089,689b874ed0ae9b5b45d959c4,,,,,,,,,,,,,56,0,,./stim/wavs/cuban_match_declarative-broad-focus_Marta-abre-el-regalo.wav,,,,,,,,,,,,,,,,,,,,,,466.2445,469.591,1,0,2.8323,,0,25,25,55,1,0,cuban,,,,,,,,,,,,,,,,,,,,,,,,,,,,,,,,,,,,,,,,,,,,,,,,,,,,,,,,
,,,,,,,,,66d06fd15b37d17345069c4c,spanish,13 or older,"no, only English or Spanish",no,2025-08-12_14h29.12.871,empathy_intonation_perc,2024.2.4,Win32,59.88023952,66d06fd15b37d17345069c4c,687ed1b7e638a4cbf2f02089,689b874ed0ae9b5b45d959c4,,,,,,,,,,,,,37,1,,./stim/wavs/mexican_mismatch_interrogative-total-yn_La-maestra-vive-en-Paris.wav,,,,,,,,,,,,,,,,,,,,,,469.5915,472.4715,0,0,2.3534,,0,26,26,36,1,0,mexican,,,,,,,,,,,,,,,,,,,,,,,,,,,,,,,,,,,,,,,,,,,,,,,,,,,,,,,,
,,,,,,,,,66d06fd15b37d17345069c4c,spanish,13 or older,"no, only English or Spanish",no,2025-08-12_14h29.12.871,empathy_intonation_perc,2024.2.4,Win32,59.88023952,66d06fd15b37d17345069c4c,687ed1b7e638a4cbf2f02089,689b874ed0ae9b5b45d959c4,,,,,,,,,,,,,24,1,,./stim/wavs/puertorican_match_interrogative-total-yn_Maria-bebe-el-vino.wav,,,,,,,,,,,,,,,,,,,,,,472.4724,475.6082,0,0,2.6164,,0,27,27,23,1,1,puertorican,,,,,,,,,,,,,,,,,,,,,,,,,,,,,,,,,,,,,,,,,,,,,,,,,,,,,,,,
,,,,,,,,,66d06fd15b37d17345069c4c,spanish,13 or older,"no, only English or Spanish",no,2025-08-12_14h29.12.871,empathy_intonation_perc,2024.2.4,Win32,59.88023952,66d06fd15b37d17345069c4c,687ed1b7e638a4cbf2f02089,689b874ed0ae9b5b45d959c4,,,,,,,,,,,,,18,1,,./stim/wavs/mexican_match_interrogative-total-yn_Marta-abre-el-regalo.wav,,,,,,,,,,,,,,,,,,,,,,475.6088,478.8547,1,1,2.7185,,0,28,28,17,1,0,mexican,,,,,,,,,,,,,,,,,,,,,,,,,,,,,,,,,,,,,,,,,,,,,,,,,,,,,,,,
,,,,,,,,,66d06fd15b37d17345069c4c,spanish,13 or older,"no, only English or Spanish",no,2025-08-12_14h29.12.871,empathy_intonation_perc,2024.2.4,Win32,59.88023952,66d06fd15b37d17345069c4c,687ed1b7e638a4cbf2f02089,689b874ed0ae9b5b45d959c4,,,,,,,,,,,,,82,0,,./stim/wavs/mexican_mismatch_declarative-broad-focus_Mi-novio-viene-del-lago.wav,,,,,,,,,,,,,,,,,,,,,,478.8553,486.0906,1,0,6.6971,,0,29,29,81,1,0,mexican,,,,,,,,,,,,,,,,,,,,,,,,,,,,,,,,,,,,,,,,,,,,,,,,,,,,,,,,
,,,,,,,,,66d06fd15b37d17345069c4c,spanish,13 or older,"no, only English or Spanish",no,2025-08-12_14h29.12.871,empathy_intonation_perc,2024.2.4,Win32,59.88023952,66d06fd15b37d17345069c4c,687ed1b7e638a4cbf2f02089,689b874ed0ae9b5b45d959c4,,,,,,,,,,,,,9,1,,./stim/wavs/cuban_match_interrogative-total-yn_Manuela-vende-el-carro.wav,,,,,,,,,,,,,,,,,,,,,,486.0911,489.6376,0,0,3.0253,,0,30,30,8,1,1,cuban,,,,,,,,,,,,,,,,,,,,,,,,,,,,,,,,,,,,,,,,,,,,,,,,,,,,,,,,
,,,,,,,,,66d06fd15b37d17345069c4c,spanish,13 or older,"no, only English or Spanish",no,2025-08-12_14h29.12.871,empathy_intonation_perc,2024.2.4,Win32,59.88023952,66d06fd15b37d17345069c4c,687ed1b7e638a4cbf2f02089,689b874ed0ae9b5b45d959c4,,,,,,,,,,,,,15,1,,./stim/wavs/mexican_match_interrogative-total-yn_David-leia-el-libro.wav,,,,,,,,,,,,,,,,,,,,,,489.6386,492.0709,1,1,1.9023,,0,31,31,14,1,0,mexican,,,,,,,,,,,,,,,,,,,,,,,,,,,,,,,,,,,,,,,,,,,,,,,,,,,,,,,,
,,,,,,,,,66d06fd15b37d17345069c4c,spanish,13 or older,"no, only English or Spanish",no,2025-08-12_14h29.12.871,empathy_intonation_perc,2024.2.4,Win32,59.88023952,66d06fd15b37d17345069c4c,687ed1b7e638a4cbf2f02089,689b874ed0ae9b5b45d959c4,,,,,,,,,,,,,76,0,,./stim/wavs/cuban_mismatch_declarative-broad-focus_La-nina-lava-el-plato.wav,,,,,,,,,,,,,,,,,,,,,,492.0725,503.7039,1,0,11.095,,0,32,32,75,1,0,cuban,,,,,,,,,,,,,,,,,,,,,,,,,,,,,,,,,,,,,,,,,,,,,,,,,,,,,,,,
,,,,,,,,,66d06fd15b37d17345069c4c,spanish,13 or older,"no, only English or Spanish",no,2025-08-12_14h29.12.871,empathy_intonation_perc,2024.2.4,Win32,59.88023952,66d06fd15b37d17345069c4c,687ed1b7e638a4cbf2f02089,689b874ed0ae9b5b45d959c4,,,,,,,,,,,,,61,0,,./stim/wavs/mexican_match_declarative-broad-focus_Mariano-habla-del-tiempo.wav,,,,,,,,,,,,,,,,,,,,,,503.7053,509.5229,0,1,5.2828,,0,33,33,60,1,0,mexican,,,,,,,,,,,,,,,,,,,,,,,,,,,,,,,,,,,,,,,,,,,,,,,,,,,,,,,,
,,,,,,,,,66d06fd15b37d17345069c4c,spanish,13 or older,"no, only English or Spanish",no,2025-08-12_14h29.12.871,empathy_intonation_perc,2024.2.4,Win32,59.88023952,66d06fd15b37d17345069c4c,687ed1b7e638a4cbf2f02089,689b874ed0ae9b5b45d959c4,,,,,,,,,,,,,31,1,,./stim/wavs/cuban_mismatch_interrogative-total-yn_El-nino-oye-el-rio.wav,,,,,,,,,,,,,,,,,,,,,,509.5235,514.0206,1,1,3.954,,0,34,34,30,1,1,cuban,,,,,,,,,,,,,,,,,,,,,,,,,,,,,,,,,,,,,,,,,,,,,,,,,,,,,,,,
,,,,,,,,,66d06fd15b37d17345069c4c,spanish,13 or older,"no, only English or Spanish",no,2025-08-12_14h29.12.871,empathy_intonation_perc,2024.2.4,Win32,59.88023952,66d06fd15b37d17345069c4c,687ed1b7e638a4cbf2f02089,689b874ed0ae9b5b45d959c4,,,,,,,,,,,,,44,1,,./stim/wavs/puertorican_mismatch_interrogative-total-yn_Mi-madre-come-la-fruta.wav,,,,,,,,,,,,,,,,,,,,,,514.0214,517.5532,0,0,3.001,,0,35,35,43,1,1,puertorican,,,,,,,,,,,,,,,,,,,,,,,,,,,,,,,,,,,,,,,,,,,,,,,,,,,,,,,,
,,,,,,,,,66d06fd15b37d17345069c4c,spanish,13 or older,"no, only English or Spanish",no,2025-08-12_14h29.12.871,empathy_intonation_perc,2024.2.4,Win32,59.88023952,66d06fd15b37d17345069c4c,687ed1b7e638a4cbf2f02089,689b874ed0ae9b5b45d959c4,,,,,,,,,,,,,48,0,,./stim/wavs/castilian_match_declarative-broad-focus_Maria-bebe-el-vino.wav,,,,,,,,,,,,,,,,,,,,,,517.5542,523.5033,1,0,5.4316,,0,36,36,47,1,0,castilian,,,,,,,,,,,,,,,,,,,,,,,,,,,,,,,,,,,,,,,,,,,,,,,,,,,,,,,,
,,,,,,,,,66d06fd15b37d17345069c4c,spanish,13 or older,"no, only English or Spanish",no,2025-08-12_14h29.12.871,empathy_intonation_perc,2024.2.4,Win32,59.88023952,66d06fd15b37d17345069c4c,687ed1b7e638a4cbf2f02089,689b874ed0ae9b5b45d959c4,,,,,,,,,,,,,22,1,,./stim/wavs/puertorican_match_interrogative-total-yn_Emilio-ama-la-marcha.wav,,,,,,,,,,,,,,,,,,,,,,523.5039,530.1698,1,1,6.1571,,0,37,37,21,1,1,puertorican,,,,,,,,,,,,,,,,,,,,,,,,,,,,,,,,,,,,,,,,,,,,,,,,,,,,,,,,
,,,,,,,,,66d06fd15b37d17345069c4c,spanish,13 or older,"no, only English or Spanish",no,2025-08-12_14h29.12.871,empathy_intonation_perc,2024.2.4,Win32,59.88023952,66d06fd15b37d17345069c4c,687ed1b7e638a4cbf2f02089,689b874ed0ae9b5b45d959c4,,,,,,,,,,,,,53,0,,./stim/wavs/cuban_match_declarative-broad-focus_Manuela-vende-el-carro.wav,,,,,,,,,,,,,,,,,,,,,,530.1708,540.7553,1,0,10.0491,,0,38,38,52,1,0,cuban,,,,,,,,,,,,,,,,,,,,,,,,,,,,,,,,,,,,,,,,,,,,,,,,,,,,,,,,
,,,,,,,,,66d06fd15b37d17345069c4c,spanish,13 or older,"no, only English or Spanish",no,2025-08-12_14h29.12.871,empathy_intonation_perc,2024.2.4,Win32,59.88023952,66d06fd15b37d17345069c4c,687ed1b7e638a4cbf2f02089,689b874ed0ae9b5b45d959c4,,,,,,,,,,,,,4,1,,./stim/wavs/castilian_match_interrogative-total-yn_Maria-bebe-el-vino.wav,,,,,,,,,,,,,,,,,,,,,,540.7559,543.9198,1,1,2.623,,0,39,39,3,1,0,castilian,,,,,,,,,,,,,,,,,,,,,,,,,,,,,,,,,,,,,,,,,,,,,,,,,,,,,,,,
,,,,,,,,,66d06fd15b37d17345069c4c,spanish,13 or older,"no, only English or Spanish",no,2025-08-12_14h29.12.871,empathy_intonation_perc,2024.2.4,Win32,59.88023952,66d06fd15b37d17345069c4c,687ed1b7e638a4cbf2f02089,689b874ed0ae9b5b45d959c4,,,,,,,,,,,,,80,0,,./stim/wavs/mexican_mismatch_declarative-broad-focus_El-hombre-mira-la-luna.wav,,,,,,,,,,,,,,,,,,,,,,543.9206,552.9692,1,0,8.5045,,0,40,40,79,1,0,mexican,,,,,,,,,,,,,,,,,,,,,,,,,,,,,,,,,,,,,,,,,,,,,,,,,,,,,,,,
,,,,,,,,,66d06fd15b37d17345069c4c,spanish,13 or older,"no, only English or Spanish",no,2025-08-12_14h29.12.871,empathy_intonation_perc,2024.2.4,Win32,59.88023952,66d06fd15b37d17345069c4c,687ed1b7e638a4cbf2f02089,689b874ed0ae9b5b45d959c4,,,,,,,,,,,,,74,0,,./stim/wavs/cuban_mismatch_declarative-broad-focus_El-bebe-comia-muy-bien.wav,,,,,,,,,,,,,,,,,,,,,,552.97,555.3024,0,1,1.8164,,0,41,41,73,1,0,cuban,,,,,,,,,,,,,,,,,,,,,,,,,,,,,,,,,,,,,,,,,,,,,,,,,,,,,,,,
,,,,,,,,,66d06fd15b37d17345069c4c,spanish,13 or older,"no, only English or Spanish",no,2025-08-12_14h29.12.871,empathy_intonation_perc,2024.2.4,Win32,59.88023952,66d06fd15b37d17345069c4c,687ed1b7e638a4cbf2f02089,689b874ed0ae9b5b45d959c4,,,,,,,,,,,,,72,0,,./stim/wavs/castilian_mismatch_declarative-broad-focus_Mi-novio-viene-del-lago.wav,,,,,,,,,,,,,,,,,,,,,,555.3038,558.5522,0,1,2.7223,,0,42,42,71,1,0,castilian,,,,,,,,,,,,,,,,,,,,,,,,,,,,,,,,,,,,,,,,,,,,,,,,,,,,,,,,
,,,,,,,,,66d06fd15b37d17345069c4c,spanish,13 or older,"no, only English or Spanish",no,2025-08-12_14h29.12.871,empathy_intonation_perc,2024.2.4,Win32,59.88023952,66d06fd15b37d17345069c4c,687ed1b7e638a4cbf2f02089,689b874ed0ae9b5b45d959c4,,,,,,,,,,,,,70,0,,./stim/wavs/castilian_mismatch_declarative-broad-focus_La-maestra-vive-en-Paris.wav,,,,,,,,,,,,,,,,,,,,,,558.5532,561.7183,1,0,2.6389,,0,43,43,69,1,0,castilian,,,,,,,,,,,,,,,,,,,,,,,,,,,,,,,,,,,,,,,,,,,,,,,,,,,,,,,,
,,,,,,,,,66d06fd15b37d17345069c4c,spanish,13 or older,"no, only English or Spanish",no,2025-08-12_14h29.12.871,empathy_intonation_perc,2024.2.4,Win32,59.88023952,66d06fd15b37d17345069c4c,687ed1b7e638a4cbf2f02089,689b874ed0ae9b5b45d959c4,,,,,,,,,,,,,73,0,,./stim/wavs/castilian_mismatch_declarative-broad-focus_Mi-tia-odia-la-lluvia.wav,,,,,,,,,,,,,,,,,,,,,,561.7195,564.1522,1,0,1.8843,,0,44,44,72,1,0,castilian,,,,,,,,,,,,,,,,,,,,,,,,,,,,,,,,,,,,,,,,,,,,,,,,,,,,,,,,
,,,,,,,,,66d06fd15b37d17345069c4c,spanish,13 or older,"no, only English or Spanish",no,2025-08-12_14h29.12.871,empathy_intonation_perc,2024.2.4,Win32,59.88023952,66d06fd15b37d17345069c4c,687ed1b7e638a4cbf2f02089,689b874ed0ae9b5b45d959c4,,,,,,,,,,,,,16,1,,./stim/wavs/mexican_match_interrogative-total-yn_Emilio-ama-la-marcha.wav,,,,,,,,,,,,,,,,,,,,,,564.1527,568.1408,1,1,3.4833,,0,45,45,15,1,0,mexican,,,,,,,,,,,,,,,,,,,,,,,,,,,,,,,,,,,,,,,,,,,,,,,,,,,,,,,,
,,,,,,,,,66d06fd15b37d17345069c4c,spanish,13 or older,"no, only English or Spanish",no,2025-08-12_14h29.12.871,empathy_intonation_perc,2024.2.4,Win32,59.88023952,66d06fd15b37d17345069c4c,687ed1b7e638a4cbf2f02089,689b874ed0ae9b5b45d959c4,,,,,,,,,,,,,25,1,,./stim/wavs/castilian_mismatch_interrogative-total-yn_La-maestra-vive-en-Paris.wav,,,,,,,,,,,,,,,,,,,,,,568.1412,571.1713,1,1,2.5152,,0,46,46,24,1,0,castilian,,,,,,,,,,,,,,,,,,,,,,,,,,,,,,,,,,,,,,,,,,,,,,,,,,,,,,,,
,,,,,,,,,66d06fd15b37d17345069c4c,spanish,13 or older,"no, only English or Spanish",no,2025-08-12_14h29.12.871,empathy_intonation_perc,2024.2.4,Win32,59.88023952,66d06fd15b37d17345069c4c,687ed1b7e638a4cbf2f02089,689b874ed0ae9b5b45d959c4,,,,,,,,,,,,,14,1,,./stim/wavs/mexican_match_interrogative-total-yn_Daniel-iba-a-Bolivia.wav,,,,,,,,,,,,,,,,,,,,,,571.1718,576.518,1,1,4.8164,,0,47,47,13,1,0,mexican,,,,,,,,,,,,,,,,,,,,,,,,,,,,,,,,,,,,,,,,,,,,,,,,,,,,,,,,
,,,,,,,,,66d06fd15b37d17345069c4c,spanish,13 or older,"no, only English or Spanish",no,2025-08-12_14h29.12.871,empathy_intonation_perc,2024.2.4,Win32,59.88023952,66d06fd15b37d17345069c4c,687ed1b7e638a4cbf2f02089,689b874ed0ae9b5b45d959c4,,,,,,,,,,,,,86,0,,./stim/wavs/puertorican_mismatch_declarative-broad-focus_El-nino-oye-el-rio.wav,,,,,,,,,,,,,,,,,,,,,,576.5188,588.5675,1,0,11.5154,,0,48,48,85,1,0,puertorican,,,,,,,,,,,,,,,,,,,,,,,,,,,,,,,,,,,,,,,,,,,,,,,,,,,,,,,,
,,,,,,,,,66d06fd15b37d17345069c4c,spanish,13 or older,"no, only English or Spanish",no,2025-08-12_14h29.12.871,empathy_intonation_perc,2024.2.4,Win32,59.88023952,66d06fd15b37d17345069c4c,687ed1b7e638a4cbf2f02089,689b874ed0ae9b5b45d959c4,,,,,,,,,,,,,75,0,,./stim/wavs/cuban_mismatch_declarative-broad-focus_El-hombre-mira-la-luna.wav,,,,,,,,,,,,,,,,,,,,,,588.5683,592.901,0,1,3.8091,,0,49,49,74,1,0,cuban,,,,,,,,,,,,,,,,,,,,,,,,,,,,,,,,,,,,,,,,,,,,,,,,,,,,,,,,
,,,,,,,,,66d06fd15b37d17345069c4c,spanish,13 or older,"no, only English or Spanish",no,2025-08-12_14h29.12.871,empathy_intonation_perc,2024.2.4,Win32,59.88023952,66d06fd15b37d17345069c4c,687ed1b7e638a4cbf2f02089,689b874ed0ae9b5b45d959c4,,,,,,,,,,,,,85,0,,./stim/wavs/puertorican_mismatch_declarative-broad-focus_El-hombre-mira-la-luna.wav,,,,,,,,,,,,,,,,,,,,,,592.9024,598.2004,1,0,4.7729,,0,50,50,84,1,0,puertorican,,,,,,,,,,,,,,,,,,,,,,,,,,,,,,,,,,,,,,,,,,,,,,,,,,,,,,,,
,,,,,,,,,66d06fd15b37d17345069c4c,spanish,13 or older,"no, only English or Spanish",no,2025-08-12_14h29.12.871,empathy_intonation_perc,2024.2.4,Win32,59.88023952,66d06fd15b37d17345069c4c,687ed1b7e638a4cbf2f02089,689b874ed0ae9b5b45d959c4,,,,,,,,,,,,,39,1,,./stim/wavs/mexican_mismatch_interrogative-total-yn_Mi-tia-odia-la-lluvia.wav,,,,,,,,,,,,,,,,,,,,,,598.2016,601.2844,1,1,2.5611,,0,51,51,38,1,0,mexican,,,,,,,,,,,,,,,,,,,,,,,,,,,,,,,,,,,,,,,,,,,,,,,,,,,,,,,,
,,,,,,,,,66d06fd15b37d17345069c4c,spanish,13 or older,"no, only English or Spanish",no,2025-08-12_14h29.12.871,empathy_intonation_perc,2024.2.4,Win32,59.88023952,66d06fd15b37d17345069c4c,687ed1b7e638a4cbf2f02089,689b874ed0ae9b5b45d959c4,,,,,,,,,,,,,3,1,,./stim/wavs/castilian_match_interrogative-total-yn_Manuela-vende-el-carro.wav,,,,,,,,,,,,,,,,,,,,,,601.285,609.9334,1,1,8.126,,0,52,52,2,1,0,castilian,,,,,,,,,,,,,,,,,,,,,,,,,,,,,,,,,,,,,,,,,,,,,,,,,,,,,,,,
,,,,,,,,,66d06fd15b37d17345069c4c,spanish,13 or older,"no, only English or Spanish",no,2025-08-12_14h29.12.871,empathy_intonation_perc,2024.2.4,Win32,59.88023952,66d06fd15b37d17345069c4c,687ed1b7e638a4cbf2f02089,689b874ed0ae9b5b45d959c4,,,,,,,,,,,,,84,0,,./stim/wavs/puertorican_mismatch_declarative-broad-focus_El-bebe-comia-muy-bien.wav,,,,,,,,,,,,,,,,,,,,,,609.9343,625.3514,1,0,14.9015,,0,53,53,83,1,0,puertorican,,,,,,,,,,,,,,,,,,,,,,,,,,,,,,,,,,,,,,,,,,,,,,,,,,,,,,,,
,,,,,,,,,66d06fd15b37d17345069c4c,spanish,13 or older,"no, only English or Spanish",no,2025-08-12_14h29.12.871,empathy_intonation_perc,2024.2.4,Win32,59.88023952,66d06fd15b37d17345069c4c,687ed1b7e638a4cbf2f02089,689b874ed0ae9b5b45d959c4,,,,,,,,,,,,,32,1,,./stim/wavs/cuban_mismatch_interrogative-total-yn_Mi-madre-come-la-fruta.wav,,,,,,,,,,,,,,,,,,,,,,625.3522,627.8871,0,0,2.0287,,0,54,54,31,1,1,cuban,,,,,,,,,,,,,,,,,,,,,,,,,,,,,,,,,,,,,,,,,,,,,,,,,,,,,,,,
,,,,,,,,,66d06fd15b37d17345069c4c,spanish,13 or older,"no, only English or Spanish",no,2025-08-12_14h29.12.871,empathy_intonation_perc,2024.2.4,Win32,59.88023952,66d06fd15b37d17345069c4c,687ed1b7e638a4cbf2f02089,689b874ed0ae9b5b45d959c4,,,,,,,,,,,,,54,0,,./stim/wavs/cuban_match_declarative-broad-focus_Maria-bebe-el-vino.wav,,,,,,,,,,,,,,,,,,,,,,627.8877,630.7668,0,1,2.3519,,0,55,55,53,1,0,cuban,,,,,,,,,,,,,,,,,,,,,,,,,,,,,,,,,,,,,,,,,,,,,,,,,,,,,,,,
,,,,,,,,,66d06fd15b37d17345069c4c,spanish,13 or older,"no, only English or Spanish",no,2025-08-12_14h29.12.871,empathy_intonation_perc,2024.2.4,Win32,59.88023952,66d06fd15b37d17345069c4c,687ed1b7e638a4cbf2f02089,689b874ed0ae9b5b45d959c4,,,,,,,,,,,,,63,0,,./stim/wavs/puertorican_match_declarative-broad-focus_Ana-lleva-el-abrigo.wav,,,,,,,,,,,,,,,,,,,,,,630.7673,633.8998,0,1,2.601,,0,56,56,62,1,0,puertorican,,,,,,,,,,,,,,,,,,,,,,,,,,,,,,,,,,,,,,,,,,,,,,,,,,,,,,,,
,,,,,,,,,66d06fd15b37d17345069c4c,spanish,13 or older,"no, only English or Spanish",no,2025-08-12_14h29.12.871,empathy_intonation_perc,2024.2.4,Win32,59.88023952,66d06fd15b37d17345069c4c,687ed1b7e638a4cbf2f02089,689b874ed0ae9b5b45d959c4,,,,,,,,,,,,,20,1,,./stim/wavs/puertorican_match_interrogative-total-yn_Daniel-iba-a-Bolivia.wav,,,,,,,,,,,,,,,,,,,,,,633.9006,636.7167,1,1,2.2864,,0,57,57,19,1,1,puertorican,,,,,,,,,,,,,,,,,,,,,,,,,,,,,,,,,,,,,,,,,,,,,,,,,,,,,,,,
,,,,,,,,,66d06fd15b37d17345069c4c,spanish,13 or older,"no, only English or Spanish",no,2025-08-12_14h29.12.871,empathy_intonation_perc,2024.2.4,Win32,59.88023952,66d06fd15b37d17345069c4c,687ed1b7e638a4cbf2f02089,689b874ed0ae9b5b45d959c4,,,,,,,,,,,,,33,1,,./stim/wavs/cuban_mismatch_interrogative-total-yn_Mi-novio-viene-del-lago.wav,,,,,,,,,,,,,,,,,,,,,,636.7173,641.7836,1,1,4.5342,,0,58,58,32,1,1,cuban,,,,,,,,,,,,,,,,,,,,,,,,,,,,,,,,,,,,,,,,,,,,,,,,,,,,,,,,
,,,,,,,,,66d06fd15b37d17345069c4c,spanish,13 or older,"no, only English or Spanish",no,2025-08-12_14h29.12.871,empathy_intonation_perc,2024.2.4,Win32,59.88023952,66d06fd15b37d17345069c4c,687ed1b7e638a4cbf2f02089,689b874ed0ae9b5b45d959c4,,,,,,,,,,,,,8,1,,./stim/wavs/cuban_match_interrogative-total-yn_Daniel-iba-a-Bolivia.wav,,,,,,,,,,,,,,,,,,,,,,641.7843,644.3661,1,1,2.0433,,0,59,59,7,1,1,cuban,,,,,,,,,,,,,,,,,,,,,,,,,,,,,,,,,,,,,,,,,,,,,,,,,,,,,,,,
,,,,,,,,,66d06fd15b37d17345069c4c,spanish,13 or older,"no, only English or Spanish",no,2025-08-12_14h29.12.871,empathy_intonation_perc,2024.2.4,Win32,59.88023952,66d06fd15b37d17345069c4c,687ed1b7e638a4cbf2f02089,689b874ed0ae9b5b45d959c4,,,,,,,,,,,,,42,1,,./stim/wavs/puertorican_mismatch_interrogative-total-yn_La-maestra-vive-en-Paris.wav,,,,,,,,,,,,,,,,,,,,,,644.367,648.9836,1,1,4.0864,,0,60,60,41,1,1,puertorican,,,,,,,,,,,,,,,,,,,,,,,,,,,,,,,,,,,,,,,,,,,,,,,,,,,,,,,,
,,,,,,,,,66d06fd15b37d17345069c4c,spanish,13 or older,"no, only English or Spanish",no,2025-08-12_14h29.12.871,empathy_intonation_perc,2024.2.4,Win32,59.88023952,66d06fd15b37d17345069c4c,687ed1b7e638a4cbf2f02089,689b874ed0ae9b5b45d959c4,,,,,,,,,,,,,47,0,,./stim/wavs/castilian_match_declarative-broad-focus_Manuela-vende-el-carro.wav,,,,,,,,,,,,,,,,,,,,,,648.9846,653.649,0,1,4.1326,,0,61,61,46,1,0,castilian,,,,,,,,,,,,,,,,,,,,,,,,,,,,,,,,,,,,,,,,,,,,,,,,,,,,,,,,
,,,,,,,,,66d06fd15b37d17345069c4c,spanish,13 or older,"no, only English or Spanish",no,2025-08-12_14h29.12.871,empathy_intonation_perc,2024.2.4,Win32,59.88023952,66d06fd15b37d17345069c4c,687ed1b7e638a4cbf2f02089,689b874ed0ae9b5b45d959c4,,,,,,,,,,,,,2,1,,./stim/wavs/castilian_match_interrogative-total-yn_Emilio-ama-la-marcha.wav,,,,,,,,,,,,,,,,,,,,,,653.6497,658.3663,1,1,4.2091,,0,62,62,1,1,0,castilian,,,,,,,,,,,,,,,,,,,,,,,,,,,,,,,,,,,,,,,,,,,,,,,,,,,,,,,,
,,,,,,,,,66d06fd15b37d17345069c4c,spanish,13 or older,"no, only English or Spanish",no,2025-08-12_14h29.12.871,empathy_intonation_perc,2024.2.4,Win32,59.88023952,66d06fd15b37d17345069c4c,687ed1b7e638a4cbf2f02089,689b874ed0ae9b5b45d959c4,,,,,,,,,,,,,21,1,,./stim/wavs/puertorican_match_interrogative-total-yn_David-leia-el-libro.wav,,,,,,,,,,,,,,,,,,,,,,658.3674,664.3339,1,1,5.4472,,0,63,63,20,1,1,puertorican,,,,,,,,,,,,,,,,,,,,,,,,,,,,,,,,,,,,,,,,,,,,,,,,,,,,,,,,
,,,,,,,,,66d06fd15b37d17345069c4c,spanish,13 or older,"no, only English or Spanish",no,2025-08-12_14h29.12.871,empathy_intonation_perc,2024.2.4,Win32,59.88023952,66d06fd15b37d17345069c4c,687ed1b7e638a4cbf2f02089,689b874ed0ae9b5b45d959c4,,,,,,,,,,,,,78,0,,./stim/wavs/cuban_mismatch_declarative-broad-focus_Mi-tia-odia-la-lluvia.wav,,,,,,,,,,,,,,,,,,,,,,664.3343,669.2656,1,0,4.4033,,0,64,64,77,1,0,cuban,,,,,,,,,,,,,,,,,,,,,,,,,,,,,,,,,,,,,,,,,,,,,,,,,,,,,,,,
,,,,,,,,,66d06fd15b37d17345069c4c,spanish,13 or older,"no, only English or Spanish",no,2025-08-12_14h29.12.871,empathy_intonation_perc,2024.2.4,Win32,59.88023952,66d06fd15b37d17345069c4c,687ed1b7e638a4cbf2f02089,689b874ed0ae9b5b45d959c4,,,,,,,,,,,,,41,1,,./stim/wavs/puertorican_mismatch_interrogative-total-yn_El-nino-oye-el-rio.wav,,,,,,,,,,,,,,,,,,,,,,669.2668,679.1483,1,1,9.349,,0,65,65,40,1,1,puertorican,,,,,,,,,,,,,,,,,,,,,,,,,,,,,,,,,,,,,,,,,,,,,,,,,,,,,,,,
,,,,,,,,,66d06fd15b37d17345069c4c,spanish,13 or older,"no, only English or Spanish",no,2025-08-12_14h29.12.871,empathy_intonation_perc,2024.2.4,Win32,59.88023952,66d06fd15b37d17345069c4c,687ed1b7e638a4cbf2f02089,689b874ed0ae9b5b45d959c4,,,,,,,,,,,,,10,1,,./stim/wavs/cuban_match_interrogative-total-yn_Maria-bebe-el-vino.wav,,,,,,,,,,,,,,,,,,,,,,679.1493,686.8315,1,1,7.17,,0,66,66,9,1,1,cuban,,,,,,,,,,,,,,,,,,,,,,,,,,,,,,,,,,,,,,,,,,,,,,,,,,,,,,,,
,,,,,,,,,66d06fd15b37d17345069c4c,spanish,13 or older,"no, only English or Spanish",no,2025-08-12_14h29.12.871,empathy_intonation_perc,2024.2.4,Win32,59.88023952,66d06fd15b37d17345069c4c,687ed1b7e638a4cbf2f02089,689b874ed0ae9b5b45d959c4,,,,,,,,,,,,,67,0,,./stim/wavs/puertorican_match_declarative-broad-focus_Manuela-vende-el-carro.wav,,,,,,,,,,,,,,,,,,,,,,686.8323,689.0318,0,1,1.6673,,0,67,67,66,1,0,puertorican,,,,,,,,,,,,,,,,,,,,,,,,,,,,,,,,,,,,,,,,,,,,,,,,,,,,,,,,
,,,,,,,,,66d06fd15b37d17345069c4c,spanish,13 or older,"no, only English or Spanish",no,2025-08-12_14h29.12.871,empathy_intonation_perc,2024.2.4,Win32,59.88023952,66d06fd15b37d17345069c4c,687ed1b7e638a4cbf2f02089,689b874ed0ae9b5b45d959c4,,,,,,,,,,,,,87,0,,./stim/wavs/puertorican_mismatch_declarative-broad-focus_La-maestra-vive-en-Paris.wav,,,,,,,,,,,,,,,,,,,,,,689.0324,691.1649,1,0,1.5995,,0,68,68,86,1,0,puertorican,,,,,,,,,,,,,,,,,,,,,,,,,,,,,,,,,,,,,,,,,,,,,,,,,,,,,,,,
,,,,,,,,,66d06fd15b37d17345069c4c,spanish,13 or older,"no, only English or Spanish",no,2025-08-12_14h29.12.871,empathy_intonation_perc,2024.2.4,Win32,59.88023952,66d06fd15b37d17345069c4c,687ed1b7e638a4cbf2f02089,689b874ed0ae9b5b45d959c4,,,,,,,,,,,,,34,1,,./stim/wavs/cuban_mismatch_interrogative-total-yn_Mi-tia-odia-la-lluvia.wav,,,,,,,,,,,,,,,,,,,,,,691.1656,693.1815,1,1,1.4769,,0,69,69,33,1,1,cuban,,,,,,,,,,,,,,,,,,,,,,,,,,,,,,,,,,,,,,,,,,,,,,,,,,,,,,,,
,,,,,,,,,66d06fd15b37d17345069c4c,spanish,13 or older,"no, only English or Spanish",no,2025-08-12_14h29.12.871,empathy_intonation_perc,2024.2.4,Win32,59.88023952,66d06fd15b37d17345069c4c,687ed1b7e638a4cbf2f02089,689b874ed0ae9b5b45d959c4,,,,,,,,,,,,,50,0,,./stim/wavs/castilian_match_declarative-broad-focus_Marta-abre-el-regalo.wav,,,,,,,,,,,,,,,,,,,,,,693.1822,696.2642,1,0,2.5598,,0,70,70,49,1,0,castilian,,,,,,,,,,,,,,,,,,,,,,,,,,,,,,,,,,,,,,,,,,,,,,,,,,,,,,,,
,,,,,,,,,66d06fd15b37d17345069c4c,spanish,13 or older,"no, only English or Spanish",no,2025-08-12_14h29.12.871,empathy_intonation_perc,2024.2.4,Win32,59.88023952,66d06fd15b37d17345069c4c,687ed1b7e638a4cbf2f02089,689b874ed0ae9b5b45d959c4,,,,,,,,,,,,,36,1,,./stim/wavs/mexican_mismatch_interrogative-total-yn_El-nino-oye-el-rio.wav,,,,,,,,,,,,,,,,,,,,,,696.2652,698.7646,1,1,1.9699,,0,71,71,35,1,0,mexican,,,,,,,,,,,,,,,,,,,,,,,,,,,,,,,,,,,,,,,,,,,,,,,,,,,,,,,,
,,,,,,,,,66d06fd15b37d17345069c4c,spanish,13 or older,"no, only English or Spanish",no,2025-08-12_14h29.12.871,empathy_intonation_perc,2024.2.4,Win32,59.88023952,66d06fd15b37d17345069c4c,687ed1b7e638a4cbf2f02089,689b874ed0ae9b5b45d959c4,,,,,,,,,,,,,57,0,,./stim/wavs/mexican_match_declarative-broad-focus_Ana-lleva-el-abrigo.wav,,,,,,,,,,,,,,,,,,,,,,698.7655,700.7148,1,0,1.4191,,0,72,72,56,1,0,mexican,,,,,,,,,,,,,,,,,,,,,,,,,,,,,,,,,,,,,,,,,,,,,,,,,,,,,,,,
,,,,,,,,,66d06fd15b37d17345069c4c,spanish,13 or older,"no, only English or Spanish",no,2025-08-12_14h29.12.871,empathy_intonation_perc,2024.2.4,Win32,59.88023952,66d06fd15b37d17345069c4c,687ed1b7e638a4cbf2f02089,689b874ed0ae9b5b45d959c4,,,,,,,,,,,,,71,0,,./stim/wavs/castilian_mismatch_declarative-broad-focus_La-nina-lava-el-plato.wav,,,,,,,,,,,,,,,,,,,,,,700.7155,705.3641,0,1,4.1015,,0,73,73,70,1,0,castilian,,,,,,,,,,,,,,,,,,,,,,,,,,,,,,,,,,,,,,,,,,,,,,,,,,,,,,,,
,,,,,,,,,66d06fd15b37d17345069c4c,spanish,13 or older,"no, only English or Spanish",no,2025-08-12_14h29.12.871,empathy_intonation_perc,2024.2.4,Win32,59.88023952,66d06fd15b37d17345069c4c,687ed1b7e638a4cbf2f02089,689b874ed0ae9b5b45d959c4,,,,,,,,,,,,,79,0,,./stim/wavs/mexican_mismatch_declarative-broad-focus_El-bebe-comia-muy-bien.wav,,,,,,,,,,,,,,,,,,,,,,705.3647,709.9974,1,0,4.1062,,0,74,74,78,1,0,mexican,,,,,,,,,,,,,,,,,,,,,,,,,,,,,,,,,,,,,,,,,,,,,,,,,,,,,,,,
,,,,,,,,,66d06fd15b37d17345069c4c,spanish,13 or older,"no, only English or Spanish",no,2025-08-12_14h29.12.871,empathy_intonation_perc,2024.2.4,Win32,59.88023952,66d06fd15b37d17345069c4c,687ed1b7e638a4cbf2f02089,689b874ed0ae9b5b45d959c4,,,,,,,,,,,,,43,1,,./stim/wavs/puertorican_mismatch_interrogative-total-yn_La-nina-lava-el-plato.wav,,,,,,,,,,,,,,,,,,,,,,709.9984,717.4306,1,1,6.9074,,0,75,75,42,1,1,puertorican,,,,,,,,,,,,,,,,,,,,,,,,,,,,,,,,,,,,,,,,,,,,,,,,,,,,,,,,
,,,,,,,,,66d06fd15b37d17345069c4c,spanish,13 or older,"no, only English or Spanish",no,2025-08-12_14h29.12.871,empathy_intonation_perc,2024.2.4,Win32,59.88023952,66d06fd15b37d17345069c4c,687ed1b7e638a4cbf2f02089,689b874ed0ae9b5b45d959c4,,,,,,,,,,,,,35,1,,./stim/wavs/mexican_mismatch_interrogative-total-yn_El-hombre-mira-la-luna.wav,,,,,,,,,,,,,,,,,,,,,,717.4311,724.197,1,1,6.2389,,0,76,76,34,1,0,mexican,,,,,,,,,,,,,,,,,,,,,,,,,,,,,,,,,,,,,,,,,,,,,,,,,,,,,,,,
,,,,,,,,,66d06fd15b37d17345069c4c,spanish,13 or older,"no, only English or Spanish",no,2025-08-12_14h29.12.871,empathy_intonation_perc,2024.2.4,Win32,59.88023952,66d06fd15b37d17345069c4c,687ed1b7e638a4cbf2f02089,689b874ed0ae9b5b45d959c4,,,,,,,,,,,,,11,1,,./stim/wavs/cuban_match_interrogative-total-yn_Mariano-habla-del-tiempo.wav,,,,,,,,,,,,,,,,,,,,,,724.1984,728.9803,1,1,4.2772,,0,77,77,10,1,1,cuban,,,,,,,,,,,,,,,,,,,,,,,,,,,,,,,,,,,,,,,,,,,,,,,,,,,,,,,,
,,,,,,,,,66d06fd15b37d17345069c4c,spanish,13 or older,"no, only English or Spanish",no,2025-08-12_14h29.12.871,empathy_intonation_perc,2024.2.4,Win32,59.88023952,66d06fd15b37d17345069c4c,687ed1b7e638a4cbf2f02089,689b874ed0ae9b5b45d959c4,,,,,,,,,,,,,65,0,,./stim/wavs/puertorican_match_declarative-broad-focus_David-leia-el-libro.wav,,,,,,,,,,,,,,,,,,,,,,728.981,733.2804,1,0,3.764,,0,78,78,64,1,0,puertorican,,,,,,,,,,,,,,,,,,,,,,,,,,,,,,,,,,,,,,,,,,,,,,,,,,,,,,,,
,,,,,,,,,66d06fd15b37d17345069c4c,spanish,13 or older,"no, only English or Spanish",no,2025-08-12_14h29.12.871,empathy_intonation_perc,2024.2.4,Win32,59.88023952,66d06fd15b37d17345069c4c,687ed1b7e638a4cbf2f02089,689b874ed0ae9b5b45d959c4,,,,,,,,,,,,,40,1,,./stim/wavs/puertorican_mismatch_interrogative-total-yn_El-hombre-mira-la-luna.wav,,,,,,,,,,,,,,,,,,,,,,733.2816,735.4656,1,1,1.6643,,0,79,79,39,1,1,puertorican,,,,,,,,,,,,,,,,,,,,,,,,,,,,,,,,,,,,,,,,,,,,,,,,,,,,,,,,
,,,,,,,,,66d06fd15b37d17345069c4c,spanish,13 or older,"no, only English or Spanish",no,2025-08-12_14h29.12.871,empathy_intonation_perc,2024.2.4,Win32,59.88023952,66d06fd15b37d17345069c4c,687ed1b7e638a4cbf2f02089,689b874ed0ae9b5b45d959c4,,,,,,,,,,,,,1,1,,./stim/wavs/castilian_match_interrogative-total-yn_David-leia-el-libro.wav,,,,,,,,,,,,,,,,,,,,,,735.4662,743.9657,1,1,7.9668,,0,80,80,0,1,0,castilian,,,,,,,,,,,,,,,,,,,,,,,,,,,,,,,,,,,,,,,,,,,,,,,,,,,,,,,,
,,,,,,,,,66d06fd15b37d17345069c4c,spanish,13 or older,"no, only English or Spanish",no,2025-08-12_14h29.12.871,empathy_intonation_perc,2024.2.4,Win32,59.88023952,66d06fd15b37d17345069c4c,687ed1b7e638a4cbf2f02089,689b874ed0ae9b5b45d959c4,,,,,,,,,,,,,60,0,,./stim/wavs/mexican_match_declarative-broad-focus_Emilio-ama-la-marcha.wav,,,,,,,,,,,,,,,,,,,,,,743.9662,762.4129,1,0,17.9204,,0,81,81,59,1,0,mexican,,,,,,,,,,,,,,,,,,,,,,,,,,,,,,,,,,,,,,,,,,,,,,,,,,,,,,,,
,,,,,,,,,66d06fd15b37d17345069c4c,spanish,13 or older,"no, only English or Spanish",no,2025-08-12_14h29.12.871,empathy_intonation_perc,2024.2.4,Win32,59.88023952,66d06fd15b37d17345069c4c,687ed1b7e638a4cbf2f02089,689b874ed0ae9b5b45d959c4,,,,,,,,,,,,,28,1,,./stim/wavs/castilian_mismatch_interrogative-total-yn_Mi-novio-viene-del-lago.wav,,,,,,,,,,,,,,,,,,,,,,762.414,766.6955,1,1,3.7513,,0,82,82,27,1,0,castilian,,,,,,,,,,,,,,,,,,,,,,,,,,,,,,,,,,,,,,,,,,,,,,,,,,,,,,,,
,,,,,,,,,66d06fd15b37d17345069c4c,spanish,13 or older,"no, only English or Spanish",no,2025-08-12_14h29.12.871,empathy_intonation_perc,2024.2.4,Win32,59.88023952,66d06fd15b37d17345069c4c,687ed1b7e638a4cbf2f02089,689b874ed0ae9b5b45d959c4,,,,,,,,,,,,,19,1,,./stim/wavs/puertorican_match_interrogative-total-yn_Ana-lleva-el-abrigo.wav,,,,,,,,,,,,,,,,,,,,,,766.6963,771.2617,0,0,4.0424,,0,83,83,18,1,1,puertorican,,,,,,,,,,,,,,,,,,,,,,,,,,,,,,,,,,,,,,,,,,,,,,,,,,,,,,,,
,,,,,,,,,66d06fd15b37d17345069c4c,spanish,13 or older,"no, only English or Spanish",no,2025-08-12_14h29.12.871,empathy_intonation_perc,2024.2.4,Win32,59.88023952,66d06fd15b37d17345069c4c,687ed1b7e638a4cbf2f02089,689b874ed0ae9b5b45d959c4,,,,,,,,,,,,,68,0,,./stim/wavs/puertorican_match_declarative-broad-focus_Maria-bebe-el-vino.wav,,,,,,,,,,,,,,,,,,,,,,771.2629,774.3998,0,1,2.6167,,0,84,84,67,1,0,puertorican,,,,,,,,,,,,,,,,,,,,,,,,,,,,,,,,,,,,,,,,,,,,,,,,,,,,,,,,
,,,,,,,,,66d06fd15b37d17345069c4c,spanish,13 or older,"no, only English or Spanish",no,2025-08-12_14h29.12.871,empathy_intonation_perc,2024.2.4,Win32,59.88023952,66d06fd15b37d17345069c4c,687ed1b7e638a4cbf2f02089,689b874ed0ae9b5b45d959c4,,,,,,,,,,,,,64,0,,./stim/wavs/puertorican_match_declarative-broad-focus_Daniel-iba-a-Bolivia.wav,,,,,,,,,,,,,,,,,,,,,,774.4009,777.0622,1,0,2.1361,,0,85,85,63,1,0,puertorican,,,,,,,,,,,,,,,,,,,,,,,,,,,,,,,,,,,,,,,,,,,,,,,,,,,,,,,,
,,,,,,,,,66d06fd15b37d17345069c4c,spanish,13 or older,"no, only English or Spanish",no,2025-08-12_14h29.12.871,empathy_intonation_perc,2024.2.4,Win32,59.88023952,66d06fd15b37d17345069c4c,687ed1b7e638a4cbf2f02089,689b874ed0ae9b5b45d959c4,,,,,,,,,,,,,83,0,,./stim/wavs/mexican_mismatch_declarative-broad-focus_Mi-tia-odia-la-lluvia.wav,,,,,,,,,,,,,,,,,,,,,,777.0633,779.1616,1,0,1.5907,,0,86,86,82,1,0,mexican,,,,,,,,,,,,,,,,,,,,,,,,,,,,,,,,,,,,,,,,,,,,,,,,,,,,,,,,
,,,,,,,,,66d06fd15b37d17345069c4c,spanish,13 or older,"no, only English or Spanish",no,2025-08-12_14h29.12.871,empathy_intonation_perc,2024.2.4,Win32,59.88023952,66d06fd15b37d17345069c4c,687ed1b7e638a4cbf2f02089,689b874ed0ae9b5b45d959c4,,,,,,,,,,,,,23,1,,./stim/wavs/puertorican_match_interrogative-total-yn_Manuela-vende-el-carro.wav,,,,,,,,,,,,,,,,,,,,,,779.1621,781.7946,0,0,2.1101,,0,87,87,22,1,1,puertorican,,,,,,,,,,,,,,,,,,,,,,,,,,,,,,,,,,,,,,,,,,,,,,,,,,,,,,,,
,,,,,,,"Great! Now we will move on. The next task consists of about 60 trials, in each of which you will see a string of letters. 
  
  Your task is to decide whether this is a real Spanish word or not.", (press the spacebar to continue),66d06fd15b37d17345069c4c,spanish,13 or older,"no, only English or Spanish",no,2025-08-12_14h29.12.871,empathy_intonation_perc,2024.2.4,Win32,59.88023952,66d06fd15b37d17345069c4c,687ed1b7e638a4cbf2f02089,689b874ed0ae9b5b45d959c4,,,,,,,,,,,,,,,,,,,,,,,,,,,,,,,,,,,,,,,,,,,,,,,,,,,781.8056,786.0984,0,0,0,0,1,,,,,,,,,,,,,,,,,,,,,,,,,,,,,,,,,,,,,,,,,,,,,,,,,
,,,,,,,"If you think it is an existing Spanish word, you type '1' (for 'REAL'), and if you think it is not an existing Spanish word, you type '0' (for 'FAKE').", (press the spacebar to continue),66d06fd15b37d17345069c4c,spanish,13 or older,"no, only English or Spanish",no,2025-08-12_14h29.12.871,empathy_intonation_perc,2024.2.4,Win32,59.88023952,66d06fd15b37d17345069c4c,687ed1b7e638a4cbf2f02089,689b874ed0ae9b5b45d959c4,,,,,,,,,,,,,,,,,,,,,,,,,,,,,,,,,,,,,,,,,,,,,,,,,,,786.1016,787.5953,0,1,1,1,1,,,,,,,,,,,,,,,,,,,,,,,,,,,,,,,,,,,,,,,,,,,,,,,,,
,,,,,,,"If you are sure that the word exists, even though you don’t know its exact meaning, you may still respond '1' (REAL). 
  
  But if you are not sure if it is an existing word, you should respond '0' (FAKE).
  
  Let's do a practice round...", (press the spacebar to continue),66d06fd15b37d17345069c4c,spanish,13 or older,"no, only English or Spanish",no,2025-08-12_14h29.12.871,empathy_intonation_perc,2024.2.4,Win32,59.88023952,66d06fd15b37d17345069c4c,687ed1b7e638a4cbf2f02089,689b874ed0ae9b5b45d959c4,,,,,,,,,,,,,,,,,,,,,,,,,,,,,,,,,,,,,,,,,,,,,,,,,,,787.598,790.0614,0,2,2,2,1,,,,,,,,,,,,,,,,,,,,,,,,,,,,,,,,,,,,,,,,,,,,,,,,,
,,,,,,,,,66d06fd15b37d17345069c4c,spanish,13 or older,"no, only English or Spanish",no,2025-08-12_14h29.12.871,empathy_intonation_perc,2024.2.4,Win32,59.88023952,66d06fd15b37d17345069c4c,687ed1b7e638a4cbf2f02089,689b874ed0ae9b5b45d959c4,,,,,,,,,,,,,,0,,,,,,,,,,,,,,,,,,,,,,,,,,,,,,,,,,,,,,,,,,,,790.0662,792.3459,0,1,1.7572,,792.3465,793.3488,0,0,0,0,1,0,depiste,REAL,FAKE,,,,,,,,,,,,,,,,,,,,,,,,,,,,,,,,
,,,,,,,,,66d06fd15b37d17345069c4c,spanish,13 or older,"no, only English or Spanish",no,2025-08-12_14h29.12.871,empathy_intonation_perc,2024.2.4,Win32,59.88023952,66d06fd15b37d17345069c4c,687ed1b7e638a4cbf2f02089,689b874ed0ae9b5b45d959c4,,,,,,,,,,,,,,1,,,,,,,,,,,,,,,,,,,,,,,,,,,,,,,,,,,,,,,,,,,,793.3517,794.5492,1,1,0.6674,,794.5492,795.5445,0,1,1,1,1,0,sí,REAL,FAKE,,,,,,,,,,,,,,,,,,,,,,,,,,,,,,,,
,,,,,,,,,66d06fd15b37d17345069c4c,spanish,13 or older,"no, only English or Spanish",no,2025-08-12_14h29.12.871,empathy_intonation_perc,2024.2.4,Win32,59.88023952,66d06fd15b37d17345069c4c,687ed1b7e638a4cbf2f02089,689b874ed0ae9b5b45d959c4,,,,,,,,,,,,,,0,,,,,,,,,,,,,,,,,,,,,,,,,,,,,,,,,,,,,,,,,,,,795.5464,797.6448,0,1,1.5712,,797.645,798.6453,0,2,2,2,1,0,coné,REAL,FAKE,,,,,,,,,,,,,,,,,,,,,,,,,,,,,,,,
,,,,,,,,,66d06fd15b37d17345069c4c,spanish,13 or older,"no, only English or Spanish",no,2025-08-12_14h29.12.871,empathy_intonation_perc,2024.2.4,Win32,59.88023952,66d06fd15b37d17345069c4c,687ed1b7e638a4cbf2f02089,689b874ed0ae9b5b45d959c4,,,,,,,,,,,,,,0,,,,,,,,,,,,,,,,,,,,,,,,,,,,,,,,,,,,,,,,,,,,798.6463,800.1806,1,0,1.0001,,800.1819,801.1784,0,3,3,3,1,0,calpar,REAL,FAKE,,,,,,,,,,,,,,,,,,,,,,,,,,,,,,,,
,,,,,,,,,66d06fd15b37d17345069c4c,spanish,13 or older,"no, only English or Spanish",no,2025-08-12_14h29.12.871,empathy_intonation_perc,2024.2.4,Win32,59.88023952,66d06fd15b37d17345069c4c,687ed1b7e638a4cbf2f02089,689b874ed0ae9b5b45d959c4,,,,,,,,,,,,,,0,,,,,,,,,,,,,,,,,,,,,,,,,,,,,,,,,,,,,,,,,,,,801.1824,802.6452,0,1,0.9198,,802.6461,803.6487,0,4,4,4,1,0,joten,REAL,FAKE,,,,,,,,,,,,,,,,,,,,,,,,,,,,,,,,
,,,,,,,,,66d06fd15b37d17345069c4c,spanish,13 or older,"no, only English or Spanish",no,2025-08-12_14h29.12.871,empathy_intonation_perc,2024.2.4,Win32,59.88023952,66d06fd15b37d17345069c4c,687ed1b7e638a4cbf2f02089,689b874ed0ae9b5b45d959c4,,,,,,,,,,,,,,1,,,,,,,,,,,,,,,,,,,,,,,,,,,,,,,,,,,,,,,,,,,,803.6498,805.2311,0,0,1.0495,,805.2316,806.228,0,5,5,5,1,0,sacapuntas,REAL,FAKE,,,,,,,,,,,,,,,,,,,,,,,,,,,,,,,,
,,,,,,,,,66d06fd15b37d17345069c4c,spanish,13 or older,"no, only English or Spanish",no,2025-08-12_14h29.12.871,empathy_intonation_perc,2024.2.4,Win32,59.88023952,66d06fd15b37d17345069c4c,687ed1b7e638a4cbf2f02089,689b874ed0ae9b5b45d959c4,,,,,,,,,,,,,,0,,,,,,,,,,,,,,,,,,,,,,,,,,,,,,,,,,,,,,,,,,,,806.2293,808.1643,0,1,1.4002,,808.1648,809.1639,0,6,6,6,1,0,priba,REAL,FAKE,,,,,,,,,,,,,,,,,,,,,,,,,,,,,,,,
,,,,,,,,,66d06fd15b37d17345069c4c,spanish,13 or older,"no, only English or Spanish",no,2025-08-12_14h29.12.871,empathy_intonation_perc,2024.2.4,Win32,59.88023952,66d06fd15b37d17345069c4c,687ed1b7e638a4cbf2f02089,689b874ed0ae9b5b45d959c4,,,,,,,,,,,,,,0,,,,,,,,,,,,,,,,,,,,,,,,,,,,,,,,,,,,,,,,,,,,809.1647,811.0111,1,0,1.3061,,811.0119,812.0112,0,7,7,7,1,0,pelasula,REAL,FAKE,,,,,,,,,,,,,,,,,,,,,,,,,,,,,,,,
,,,,,,,,,66d06fd15b37d17345069c4c,spanish,13 or older,"no, only English or Spanish",no,2025-08-12_14h29.12.871,empathy_intonation_perc,2024.2.4,Win32,59.88023952,66d06fd15b37d17345069c4c,687ed1b7e638a4cbf2f02089,689b874ed0ae9b5b45d959c4,,,,,,,,,,,,,,1,,,,,,,,,,,,,,,,,,,,,,,,,,,,,,,,,,,,,,,,,,,,812.0125,813.3445,1,1,0.8116,,813.3451,814.3445,0,8,8,8,1,0,bien,REAL,FAKE,,,,,,,,,,,,,,,,,,,,,,,,,,,,,,,,
,,,,,,,,,66d06fd15b37d17345069c4c,spanish,13 or older,"no, only English or Spanish",no,2025-08-12_14h29.12.871,empathy_intonation_perc,2024.2.4,Win32,59.88023952,66d06fd15b37d17345069c4c,687ed1b7e638a4cbf2f02089,689b874ed0ae9b5b45d959c4,,,,,,,,,,,,,,1,,,,,,,,,,,,,,,,,,,,,,,,,,,,,,,,,,,,,,,,,,,,814.346,815.5136,1,1,0.6329,,815.5137,816.511,0,9,9,9,1,0,casa,REAL,FAKE,,,,,,,,,,,,,,,,,,,,,,,,,,,,,,,,
,,,,,,,,,66d06fd15b37d17345069c4c,spanish,13 or older,"no, only English or Spanish",no,2025-08-12_14h29.12.871,empathy_intonation_perc,2024.2.4,Win32,59.88023952,66d06fd15b37d17345069c4c,687ed1b7e638a4cbf2f02089,689b874ed0ae9b5b45d959c4,,,,,,,,,,,,,,0,,,,,,,,,,,,,,,,,,,,,,,,,,,,,,,,,,,,,,,,,,,,816.5123,818.0436,0,1,0.996,,818.0436,819.0464,0,10,10,10,1,0,lejo,REAL,FAKE,,,,,,,,,,,,,,,,,,,,,,,,,,,,,,,,
,,,,,,,,,66d06fd15b37d17345069c4c,spanish,13 or older,"no, only English or Spanish",no,2025-08-12_14h29.12.871,empathy_intonation_perc,2024.2.4,Win32,59.88023952,66d06fd15b37d17345069c4c,687ed1b7e638a4cbf2f02089,689b874ed0ae9b5b45d959c4,,,,,,,,,,,,,,0,,,,,,,,,,,,,,,,,,,,,,,,,,,,,,,,,,,,,,,,,,,,819.0472,820.7943,0,1,1.2299,,820.7945,821.7945,0,11,11,11,1,0,pretantas,REAL,FAKE,,,,,,,,,,,,,,,,,,,,,,,,,,,,,,,,
,,,,,,,,,66d06fd15b37d17345069c4c,spanish,13 or older,"no, only English or Spanish",no,2025-08-12_14h29.12.871,empathy_intonation_perc,2024.2.4,Win32,59.88023952,66d06fd15b37d17345069c4c,687ed1b7e638a4cbf2f02089,689b874ed0ae9b5b45d959c4,,,,,,,,,,,,,,,,,,,,,,,,,,,,,,,,,,,,,,,,,,,,,,,,,,,,,,,,,,,,,,,,,,,,,,,,,,,821.7952,822.6282,,,,,,,,,,,,,,,,,,,,,,,,,,,,,,
,,,,,,,,,66d06fd15b37d17345069c4c,spanish,13 or older,"no, only English or Spanish",no,2025-08-12_14h29.12.871,empathy_intonation_perc,2024.2.4,Win32,59.88023952,66d06fd15b37d17345069c4c,687ed1b7e638a4cbf2f02089,689b874ed0ae9b5b45d959c4,,,,,,,,,,,,,,1,,,,,,,,,,,,,,,,,,,,,,,,,,,,,,,,,,,,,,,,,,,,,,,,,,,,,,,,,36,loro,,,,,822.6408,824.9942,1,1,1.8289,,0,0,0,35,1,REAL,FAKE,,,,,,,,,,,,,,,,,
,,,,,,,,,66d06fd15b37d17345069c4c,spanish,13 or older,"no, only English or Spanish",no,2025-08-12_14h29.12.871,empathy_intonation_perc,2024.2.4,Win32,59.88023952,66d06fd15b37d17345069c4c,687ed1b7e638a4cbf2f02089,689b874ed0ae9b5b45d959c4,,,,,,,,,,,,,,0,,,,,,,,,,,,,,,,,,,,,,,,,,,,,,,,,,,,,,,,,,,,,,,,,,,,,,,,,63,esposante,,,,,824.9956,826.9774,1,0,1.4351,,0,1,1,62,1,REAL,FAKE,,,,,,,,,,,,,,,,,
,,,,,,,,,66d06fd15b37d17345069c4c,spanish,13 or older,"no, only English or Spanish",no,2025-08-12_14h29.12.871,empathy_intonation_perc,2024.2.4,Win32,59.88023952,66d06fd15b37d17345069c4c,687ed1b7e638a4cbf2f02089,689b874ed0ae9b5b45d959c4,,,,,,,,,,,,,,1,,,,,,,,,,,,,,,,,,,,,,,,,,,,,,,,,,,,,,,,,,,,,,,,,,,,,,,,,73,hervidor,,,,,826.9794,828.4102,0,0,0.8955,,0,2,2,72,1,REAL,FAKE,,,,,,,,,,,,,,,,,
,,,,,,,,,66d06fd15b37d17345069c4c,spanish,13 or older,"no, only English or Spanish",no,2025-08-12_14h29.12.871,empathy_intonation_perc,2024.2.4,Win32,59.88023952,66d06fd15b37d17345069c4c,687ed1b7e638a4cbf2f02089,689b874ed0ae9b5b45d959c4,,,,,,,,,,,,,,0,,,,,,,,,,,,,,,,,,,,,,,,,,,,,,,,,,,,,,,,,,,,,,,,,,,,,,,,,72,pemición,,,,,828.4125,830.4472,1,0,1.5174,,0,3,3,71,1,REAL,FAKE,,,,,,,,,,,,,,,,,
,,,,,,,,,66d06fd15b37d17345069c4c,spanish,13 or older,"no, only English or Spanish",no,2025-08-12_14h29.12.871,empathy_intonation_perc,2024.2.4,Win32,59.88023952,66d06fd15b37d17345069c4c,687ed1b7e638a4cbf2f02089,689b874ed0ae9b5b45d959c4,,,,,,,,,,,,,,0,,,,,,,,,,,,,,,,,,,,,,,,,,,,,,,,,,,,,,,,,,,,,,,,,,,,,,,,,8,cadeña,,,,,830.4487,831.6605,0,1,0.6702,,0,4,4,7,1,REAL,FAKE,,,,,,,,,,,,,,,,,
,,,,,,,,,66d06fd15b37d17345069c4c,spanish,13 or older,"no, only English or Spanish",no,2025-08-12_14h29.12.871,empathy_intonation_perc,2024.2.4,Win32,59.88023952,66d06fd15b37d17345069c4c,687ed1b7e638a4cbf2f02089,689b874ed0ae9b5b45d959c4,,,,,,,,,,,,,,0,,,,,,,,,,,,,,,,,,,,,,,,,,,,,,,,,,,,,,,,,,,,,,,,,,,,,,,,,29,decar,,,,,831.662,833.5966,1,0,1.4002,,0,5,5,28,1,REAL,FAKE,,,,,,,,,,,,,,,,,
,,,,,,,,,66d06fd15b37d17345069c4c,spanish,13 or older,"no, only English or Spanish",no,2025-08-12_14h29.12.871,empathy_intonation_perc,2024.2.4,Win32,59.88023952,66d06fd15b37d17345069c4c,687ed1b7e638a4cbf2f02089,689b874ed0ae9b5b45d959c4,,,,,,,,,,,,,,1,,,,,,,,,,,,,,,,,,,,,,,,,,,,,,,,,,,,,,,,,,,,,,,,,,,,,,,,,3,pulmones,,,,,833.5982,836.5435,1,1,2.4129,,0,6,6,2,1,REAL,FAKE,,,,,,,,,,,,,,,,,
,,,,,,,,,66d06fd15b37d17345069c4c,spanish,13 or older,"no, only English or Spanish",no,2025-08-12_14h29.12.871,empathy_intonation_perc,2024.2.4,Win32,59.88023952,66d06fd15b37d17345069c4c,687ed1b7e638a4cbf2f02089,689b874ed0ae9b5b45d959c4,,,,,,,,,,,,,,1,,,,,,,,,,,,,,,,,,,,,,,,,,,,,,,,,,,,,,,,,,,,,,,,,,,,,,,,,85,laúd,,,,,836.545,837.583,0,0,0.5035,,0,7,7,84,1,REAL,FAKE,,,,,,,,,,,,,,,,,
,,,,,,,,,66d06fd15b37d17345069c4c,spanish,13 or older,"no, only English or Spanish",no,2025-08-12_14h29.12.871,empathy_intonation_perc,2024.2.4,Win32,59.88023952,66d06fd15b37d17345069c4c,687ed1b7e638a4cbf2f02089,689b874ed0ae9b5b45d959c4,,,,,,,,,,,,,,0,,,,,,,,,,,,,,,,,,,,,,,,,,,,,,,,,,,,,,,,,,,,,,,,,,,,,,,,,84,escuto,,,,,837.5841,838.8469,0,1,0.7314,,0,8,8,83,1,REAL,FAKE,,,,,,,,,,,,,,,,,
,,,,,,,,,66d06fd15b37d17345069c4c,spanish,13 or older,"no, only English or Spanish",no,2025-08-12_14h29.12.871,empathy_intonation_perc,2024.2.4,Win32,59.88023952,66d06fd15b37d17345069c4c,687ed1b7e638a4cbf2f02089,689b874ed0ae9b5b45d959c4,,,,,,,,,,,,,,1,,,,,,,,,,,,,,,,,,,,,,,,,,,,,,,,,,,,,,,,,,,,,,,,,,,,,,,,,6,tergiversar,,,,,838.848,840.3135,0,0,0.934,,0,9,9,5,1,REAL,FAKE,,,,,,,,,,,,,,,,,
,,,,,,,,,66d06fd15b37d17345069c4c,spanish,13 or older,"no, only English or Spanish",no,2025-08-12_14h29.12.871,empathy_intonation_perc,2024.2.4,Win32,59.88023952,66d06fd15b37d17345069c4c,687ed1b7e638a4cbf2f02089,689b874ed0ae9b5b45d959c4,,,,,,,,,,,,,,0,,,,,,,,,,,,,,,,,,,,,,,,,,,,,,,,,,,,,,,,,,,,,,,,,,,,,,,,,21,capillo,,,,,840.3145,841.8968,0,1,1.0499,,0,10,10,20,1,REAL,FAKE,,,,,,,,,,,,,,,,,
,,,,,,,,,66d06fd15b37d17345069c4c,spanish,13 or older,"no, only English or Spanish",no,2025-08-12_14h29.12.871,empathy_intonation_perc,2024.2.4,Win32,59.88023952,66d06fd15b37d17345069c4c,687ed1b7e638a4cbf2f02089,689b874ed0ae9b5b45d959c4,,,,,,,,,,,,,,1,,,,,,,,,,,,,,,,,,,,,,,,,,,,,,,,,,,,,,,,,,,,,,,,,,,,,,,,,80,hormiga,,,,,841.8977,843.4103,0,0,0.972,,0,11,11,79,1,REAL,FAKE,,,,,,,,,,,,,,,,,
,,,,,,,,,66d06fd15b37d17345069c4c,spanish,13 or older,"no, only English or Spanish",no,2025-08-12_14h29.12.871,empathy_intonation_perc,2024.2.4,Win32,59.88023952,66d06fd15b37d17345069c4c,687ed1b7e638a4cbf2f02089,689b874ed0ae9b5b45d959c4,,,,,,,,,,,,,,1,,,,,,,,,,,,,,,,,,,,,,,,,,,,,,,,,,,,,,,,,,,,,,,,,,,,,,,,,31,pandilla,,,,,843.4114,846.3602,1,1,2.4064,,0,12,12,30,1,REAL,FAKE,,,,,,,,,,,,,,,,,
,,,,,,,,,66d06fd15b37d17345069c4c,spanish,13 or older,"no, only English or Spanish",no,2025-08-12_14h29.12.871,empathy_intonation_perc,2024.2.4,Win32,59.88023952,66d06fd15b37d17345069c4c,687ed1b7e638a4cbf2f02089,689b874ed0ae9b5b45d959c4,,,,,,,,,,,,,,1,,,,,,,,,,,,,,,,,,,,,,,,,,,,,,,,,,,,,,,,,,,,,,,,,,,,,,,,,56,musgo,,,,,846.3613,847.4784,0,0,0.5983,,0,13,13,55,1,REAL,FAKE,,,,,,,,,,,,,,,,,
,,,,,,,,,66d06fd15b37d17345069c4c,spanish,13 or older,"no, only English or Spanish",no,2025-08-12_14h29.12.871,empathy_intonation_perc,2024.2.4,Win32,59.88023952,66d06fd15b37d17345069c4c,687ed1b7e638a4cbf2f02089,689b874ed0ae9b5b45d959c4,,,,,,,,,,,,,,1,,,,,,,,,,,,,,,,,,,,,,,,,,,,,,,,,,,,,,,,,,,,,,,,,,,,,,,,,61,seda,,,,,847.4794,848.5805,1,1,0.5843,,0,14,14,60,1,REAL,FAKE,,,,,,,,,,,,,,,,,
,,,,,,,,,66d06fd15b37d17345069c4c,spanish,13 or older,"no, only English or Spanish",no,2025-08-12_14h29.12.871,empathy_intonation_perc,2024.2.4,Win32,59.88023952,66d06fd15b37d17345069c4c,687ed1b7e638a4cbf2f02089,689b874ed0ae9b5b45d959c4,,,,,,,,,,,,,,1,,,,,,,,,,,,,,,,,,,,,,,,,,,,,,,,,,,,,,,,,,,,,,,,,,,,,,,,,76,atar,,,,,848.5816,849.9646,0,0,0.8515,,0,15,15,75,1,REAL,FAKE,,,,,,,,,,,,,,,,,
,,,,,,,,,66d06fd15b37d17345069c4c,spanish,13 or older,"no, only English or Spanish",no,2025-08-12_14h29.12.871,empathy_intonation_perc,2024.2.4,Win32,59.88023952,66d06fd15b37d17345069c4c,687ed1b7e638a4cbf2f02089,689b874ed0ae9b5b45d959c4,,,,,,,,,,,,,,1,,,,,,,,,,,,,,,,,,,,,,,,,,,,,,,,,,,,,,,,,,,,,,,,,,,,,,,,,69,engatusar,,,,,849.9653,851.4101,0,0,0.9074,,0,16,16,68,1,REAL,FAKE,,,,,,,,,,,,,,,,,
,,,,,,,,,66d06fd15b37d17345069c4c,spanish,13 or older,"no, only English or Spanish",no,2025-08-12_14h29.12.871,empathy_intonation_perc,2024.2.4,Win32,59.88023952,66d06fd15b37d17345069c4c,687ed1b7e638a4cbf2f02089,689b874ed0ae9b5b45d959c4,,,,,,,,,,,,,,1,,,,,,,,,,,,,,,,,,,,,,,,,,,,,,,,,,,,,,,,,,,,,,,,,,,,,,,,,44,cuchara,,,,,851.4112,852.9462,1,1,1.0006,,0,17,17,43,1,REAL,FAKE,,,,,,,,,,,,,,,,,
,,,,,,,,,66d06fd15b37d17345069c4c,spanish,13 or older,"no, only English or Spanish",no,2025-08-12_14h29.12.871,empathy_intonation_perc,2024.2.4,Win32,59.88023952,66d06fd15b37d17345069c4c,687ed1b7e638a4cbf2f02089,689b874ed0ae9b5b45d959c4,,,,,,,,,,,,,,1,,,,,,,,,,,,,,,,,,,,,,,,,,,,,,,,,,,,,,,,,,,,,,,,,,,,,,,,,75,yacer,,,,,852.9473,854.2464,0,0,0.7671,,0,18,18,74,1,REAL,FAKE,,,,,,,,,,,,,,,,,
,,,,,,,,,66d06fd15b37d17345069c4c,spanish,13 or older,"no, only English or Spanish",no,2025-08-12_14h29.12.871,empathy_intonation_perc,2024.2.4,Win32,59.88023952,66d06fd15b37d17345069c4c,687ed1b7e638a4cbf2f02089,689b874ed0ae9b5b45d959c4,,,,,,,,,,,,,,1,,,,,,,,,,,,,,,,,,,,,,,,,,,,,,,,,,,,,,,,,,,,,,,,,,,,,,,,,26,secuestro,,,,,854.2475,855.761,1,1,0.9714,,0,19,19,25,1,REAL,FAKE,,,,,,,,,,,,,,,,,
,,,,,,,,,66d06fd15b37d17345069c4c,spanish,13 or older,"no, only English or Spanish",no,2025-08-12_14h29.12.871,empathy_intonation_perc,2024.2.4,Win32,59.88023952,66d06fd15b37d17345069c4c,687ed1b7e638a4cbf2f02089,689b874ed0ae9b5b45d959c4,,,,,,,,,,,,,,1,,,,,,,,,,,,,,,,,,,,,,,,,,,,,,,,,,,,,,,,,,,,,,,,,,,,,,,,,43,canela,,,,,855.7619,857.5138,0,0,1.2272,,0,20,20,42,1,REAL,FAKE,,,,,,,,,,,,,,,,,
,,,,,,,,,66d06fd15b37d17345069c4c,spanish,13 or older,"no, only English or Spanish",no,2025-08-12_14h29.12.871,empathy_intonation_perc,2024.2.4,Win32,59.88023952,66d06fd15b37d17345069c4c,687ed1b7e638a4cbf2f02089,689b874ed0ae9b5b45d959c4,,,,,,,,,,,,,,0,,,,,,,,,,,,,,,,,,,,,,,,,,,,,,,,,,,,,,,,,,,,,,,,,,,,,,,,,70,temblo,,,,,857.5148,858.9123,0,1,0.8666,,0,21,21,69,1,REAL,FAKE,,,,,,,,,,,,,,,,,
,,,,,,,,,66d06fd15b37d17345069c4c,spanish,13 or older,"no, only English or Spanish",no,2025-08-12_14h29.12.871,empathy_intonation_perc,2024.2.4,Win32,59.88023952,66d06fd15b37d17345069c4c,687ed1b7e638a4cbf2f02089,689b874ed0ae9b5b45d959c4,,,,,,,,,,,,,,1,,,,,,,,,,,,,,,,,,,,,,,,,,,,,,,,,,,,,,,,,,,,,,,,,,,,,,,,,51,candado,,,,,858.9134,860.7927,0,0,1.3354,,0,22,22,50,1,REAL,FAKE,,,,,,,,,,,,,,,,,
,,,,,,,,,66d06fd15b37d17345069c4c,spanish,13 or older,"no, only English or Spanish",no,2025-08-12_14h29.12.871,empathy_intonation_perc,2024.2.4,Win32,59.88023952,66d06fd15b37d17345069c4c,687ed1b7e638a4cbf2f02089,689b874ed0ae9b5b45d959c4,,,,,,,,,,,,,,1,,,,,,,,,,,,,,,,,,,,,,,,,,,,,,,,,,,,,,,,,,,,,,,,,,,,,,,,,81,pozo,,,,,860.7948,862.5102,1,1,1.1692,,0,23,23,80,1,REAL,FAKE,,,,,,,,,,,,,,,,,
,,,,,,,,,66d06fd15b37d17345069c4c,spanish,13 or older,"no, only English or Spanish",no,2025-08-12_14h29.12.871,empathy_intonation_perc,2024.2.4,Win32,59.88023952,66d06fd15b37d17345069c4c,687ed1b7e638a4cbf2f02089,689b874ed0ae9b5b45d959c4,,,,,,,,,,,,,,0,,,,,,,,,,,,,,,,,,,,,,,,,,,,,,,,,,,,,,,,,,,,,,,,,,,,,,,,,1,terzo,,,,,862.5112,863.7125,1,0,0.6844,,0,24,24,0,1,REAL,FAKE,,,,,,,,,,,,,,,,,
,,,,,,,,,66d06fd15b37d17345069c4c,spanish,13 or older,"no, only English or Spanish",no,2025-08-12_14h29.12.871,empathy_intonation_perc,2024.2.4,Win32,59.88023952,66d06fd15b37d17345069c4c,687ed1b7e638a4cbf2f02089,689b874ed0ae9b5b45d959c4,,,,,,,,,,,,,,0,,,,,,,,,,,,,,,,,,,,,,,,,,,,,,,,,,,,,,,,,,,,,,,,,,,,,,,,,66,hacido,,,,,863.7135,864.812,0,1,0.5815,,0,25,25,65,1,REAL,FAKE,,,,,,,,,,,,,,,,,
,,,,,,,,,66d06fd15b37d17345069c4c,spanish,13 or older,"no, only English or Spanish",no,2025-08-12_14h29.12.871,empathy_intonation_perc,2024.2.4,Win32,59.88023952,66d06fd15b37d17345069c4c,687ed1b7e638a4cbf2f02089,689b874ed0ae9b5b45d959c4,,,,,,,,,,,,,,1,,,,,,,,,,,,,,,,,,,,,,,,,,,,,,,,,,,,,,,,,,,,,,,,,,,,,,,,,22,lacayo,,,,,864.813,866.3088,0,0,0.9604,,0,26,26,21,1,REAL,FAKE,,,,,,,,,,,,,,,,,
,,,,,,,,,66d06fd15b37d17345069c4c,spanish,13 or older,"no, only English or Spanish",no,2025-08-12_14h29.12.871,empathy_intonation_perc,2024.2.4,Win32,59.88023952,66d06fd15b37d17345069c4c,687ed1b7e638a4cbf2f02089,689b874ed0ae9b5b45d959c4,,,,,,,,,,,,,,1,,,,,,,,,,,,,,,,,,,,,,,,,,,,,,,,,,,,,,,,,,,,,,,,,,,,,,,,,2,pellizcar,,,,,866.3102,867.9626,1,1,1.134,,0,27,27,1,1,REAL,FAKE,,,,,,,,,,,,,,,,,
,,,,,,,,,66d06fd15b37d17345069c4c,spanish,13 or older,"no, only English or Spanish",no,2025-08-12_14h29.12.871,empathy_intonation_perc,2024.2.4,Win32,59.88023952,66d06fd15b37d17345069c4c,687ed1b7e638a4cbf2f02089,689b874ed0ae9b5b45d959c4,,,,,,,,,,,,,,1,,,,,,,,,,,,,,,,,,,,,,,,,,,,,,,,,,,,,,,,,,,,,,,,,,,,,,,,,9,hacha,,,,,867.9636,869.163,1,1,0.6677,,0,28,28,8,1,REAL,FAKE,,,,,,,,,,,,,,,,,
,,,,,,,,,66d06fd15b37d17345069c4c,spanish,13 or older,"no, only English or Spanish",no,2025-08-12_14h29.12.871,empathy_intonation_perc,2024.2.4,Win32,59.88023952,66d06fd15b37d17345069c4c,687ed1b7e638a4cbf2f02089,689b874ed0ae9b5b45d959c4,,,,,,,,,,,,,,1,,,,,,,,,,,,,,,,,,,,,,,,,,,,,,,,,,,,,,,,,,,,,,,,,,,,,,,,,34,aviso,,,,,869.164,870.296,1,1,0.6007,,0,29,29,33,1,REAL,FAKE,,,,,,,,,,,,,,,,,
,,,,,,,,,66d06fd15b37d17345069c4c,spanish,13 or older,"no, only English or Spanish",no,2025-08-12_14h29.12.871,empathy_intonation_perc,2024.2.4,Win32,59.88023952,66d06fd15b37d17345069c4c,687ed1b7e638a4cbf2f02089,689b874ed0ae9b5b45d959c4,,,,,,,,,,,,,,1,,,,,,,,,,,,,,,,,,,,,,,,,,,,,,,,,,,,,,,,,,,,,,,,,,,,,,,,,37,granuja,,,,,870.297,871.8923,0,0,1.0542,,0,30,30,36,1,REAL,FAKE,,,,,,,,,,,,,,,,,
,,,,,,,,,66d06fd15b37d17345069c4c,spanish,13 or older,"no, only English or Spanish",no,2025-08-12_14h29.12.871,empathy_intonation_perc,2024.2.4,Win32,59.88023952,66d06fd15b37d17345069c4c,687ed1b7e638a4cbf2f02089,689b874ed0ae9b5b45d959c4,,,,,,,,,,,,,,1,,,,,,,,,,,,,,,,,,,,,,,,,,,,,,,,,,,,,,,,,,,,,,,,,,,,,,,,,91,click the 1 key.,,,,,871.8944,873.8784,1,1,1.4665,,0,31,31,90,1,REAL,FAKE,,,,,,,,,,,,,,,,,
,,,,,,,,,66d06fd15b37d17345069c4c,spanish,13 or older,"no, only English or Spanish",no,2025-08-12_14h29.12.871,empathy_intonation_perc,2024.2.4,Win32,59.88023952,66d06fd15b37d17345069c4c,687ed1b7e638a4cbf2f02089,689b874ed0ae9b5b45d959c4,,,,,,,,,,,,,,1,,,,,,,,,,,,,,,,,,,,,,,,,,,,,,,,,,,,,,,,,,,,,,,,,,,,,,,,,24,látigo,,,,,873.8798,875.4423,0,0,1.0257,,0,32,32,23,1,REAL,FAKE,,,,,,,,,,,,,,,,,
,,,,,,,,,66d06fd15b37d17345069c4c,spanish,13 or older,"no, only English or Spanish",no,2025-08-12_14h29.12.871,empathy_intonation_perc,2024.2.4,Win32,59.88023952,66d06fd15b37d17345069c4c,687ed1b7e638a4cbf2f02089,689b874ed0ae9b5b45d959c4,,,,,,,,,,,,,,1,,,,,,,,,,,,,,,,,,,,,,,,,,,,,,,,,,,,,,,,,,,,,,,,,,,,,,,,,7,pésimo,,,,,875.4437,876.8641,1,1,0.902,,0,33,33,6,1,REAL,FAKE,,,,,,,,,,,,,,,,,
,,,,,,,,,66d06fd15b37d17345069c4c,spanish,13 or older,"no, only English or Spanish",no,2025-08-12_14h29.12.871,empathy_intonation_perc,2024.2.4,Win32,59.88023952,66d06fd15b37d17345069c4c,687ed1b7e638a4cbf2f02089,689b874ed0ae9b5b45d959c4,,,,,,,,,,,,,,1,,,,,,,,,,,,,,,,,,,,,,,,,,,,,,,,,,,,,,,,,,,,,,,,,,,,,,,,,13,helar,,,,,876.8651,878.3971,0,0,1.0008,,0,34,34,12,1,REAL,FAKE,,,,,,,,,,,,,,,,,
,,,,,,,,,66d06fd15b37d17345069c4c,spanish,13 or older,"no, only English or Spanish",no,2025-08-12_14h29.12.871,empathy_intonation_perc,2024.2.4,Win32,59.88023952,66d06fd15b37d17345069c4c,687ed1b7e638a4cbf2f02089,689b874ed0ae9b5b45d959c4,,,,,,,,,,,,,,1,,,,,,,,,,,,,,,,,,,,,,,,,,,,,,,,,,,,,,,,,,,,,,,,,,,,,,,,,5,zapato,,,,,878.3982,879.4954,1,1,0.565,,0,35,35,4,1,REAL,FAKE,,,,,,,,,,,,,,,,,
,,,,,,,,,66d06fd15b37d17345069c4c,spanish,13 or older,"no, only English or Spanish",no,2025-08-12_14h29.12.871,empathy_intonation_perc,2024.2.4,Win32,59.88023952,66d06fd15b37d17345069c4c,687ed1b7e638a4cbf2f02089,689b874ed0ae9b5b45d959c4,,,,,,,,,,,,,,1,,,,,,,,,,,,,,,,,,,,,,,,,,,,,,,,,,,,,,,,,,,,,,,,,,,,,,,,,64,orgulloso,,,,,879.4964,880.8421,0,0,0.8109,,0,36,36,63,1,REAL,FAKE,,,,,,,,,,,,,,,,,
,,,,,,,,,66d06fd15b37d17345069c4c,spanish,13 or older,"no, only English or Spanish",no,2025-08-12_14h29.12.871,empathy_intonation_perc,2024.2.4,Win32,59.88023952,66d06fd15b37d17345069c4c,687ed1b7e638a4cbf2f02089,689b874ed0ae9b5b45d959c4,,,,,,,,,,,,,,0,,,,,,,,,,,,,,,,,,,,,,,,,,,,,,,,,,,,,,,,,,,,,,,,,,,,,,,,,82,empirador,,,,,880.8438,882.0309,1,0,0.6518,,0,37,37,81,1,REAL,FAKE,,,,,,,,,,,,,,,,,
,,,,,,,,,66d06fd15b37d17345069c4c,spanish,13 or older,"no, only English or Spanish",no,2025-08-12_14h29.12.871,empathy_intonation_perc,2024.2.4,Win32,59.88023952,66d06fd15b37d17345069c4c,687ed1b7e638a4cbf2f02089,689b874ed0ae9b5b45d959c4,,,,,,,,,,,,,,1,,,,,,,,,,,,,,,,,,,,,,,,,,,,,,,,,,,,,,,,,,,,,,,,,,,,,,,,,46,martillo,,,,,882.032,883.2947,0,0,0.733,,0,38,38,45,1,REAL,FAKE,,,,,,,,,,,,,,,,,
,,,,,,,,,66d06fd15b37d17345069c4c,spanish,13 or older,"no, only English or Spanish",no,2025-08-12_14h29.12.871,empathy_intonation_perc,2024.2.4,Win32,59.88023952,66d06fd15b37d17345069c4c,687ed1b7e638a4cbf2f02089,689b874ed0ae9b5b45d959c4,,,,,,,,,,,,,,0,,,,,,,,,,,,,,,,,,,,,,,,,,,,,,,,,,,,,,,,,,,,,,,,,,,,,,,,,33,pauca,,,,,883.2961,884.9252,1,0,1.086,,0,39,39,32,1,REAL,FAKE,,,,,,,,,,,,,,,,,
,,,,,,,,,66d06fd15b37d17345069c4c,spanish,13 or older,"no, only English or Spanish",no,2025-08-12_14h29.12.871,empathy_intonation_perc,2024.2.4,Win32,59.88023952,66d06fd15b37d17345069c4c,687ed1b7e638a4cbf2f02089,689b874ed0ae9b5b45d959c4,,,,,,,,,,,,,,1,,,,,,,,,,,,,,,,,,,,,,,,,,,,,,,,,,,,,,,,,,,,,,,,,,,,,,,,,25,bisagra,,,,,884.9265,886.4963,1,1,1.0352,,0,40,40,24,1,REAL,FAKE,,,,,,,,,,,,,,,,,
,,,,,,,,,66d06fd15b37d17345069c4c,spanish,13 or older,"no, only English or Spanish",no,2025-08-12_14h29.12.871,empathy_intonation_perc,2024.2.4,Win32,59.88023952,66d06fd15b37d17345069c4c,687ed1b7e638a4cbf2f02089,689b874ed0ae9b5b45d959c4,,,,,,,,,,,,,,1,,,,,,,,,,,,,,,,,,,,,,,,,,,,,,,,,,,,,,,,,,,,,,,,,,,,,,,,,90,clavel,,,,,886.4969,887.6089,0,0,0.5709,,0,41,41,89,1,REAL,FAKE,,,,,,,,,,,,,,,,,
,,,,,,,,,66d06fd15b37d17345069c4c,spanish,13 or older,"no, only English or Spanish",no,2025-08-12_14h29.12.871,empathy_intonation_perc,2024.2.4,Win32,59.88023952,66d06fd15b37d17345069c4c,687ed1b7e638a4cbf2f02089,689b874ed0ae9b5b45d959c4,,,,,,,,,,,,,,1,,,,,,,,,,,,,,,,,,,,,,,,,,,,,,,,,,,,,,,,,,,,,,,,,,,,,,,,,20,ávido,,,,,887.61,889.0255,0,0,0.8725,,0,42,42,19,1,REAL,FAKE,,,,,,,,,,,,,,,,,
,,,,,,,,,66d06fd15b37d17345069c4c,spanish,13 or older,"no, only English or Spanish",no,2025-08-12_14h29.12.871,empathy_intonation_perc,2024.2.4,Win32,59.88023952,66d06fd15b37d17345069c4c,687ed1b7e638a4cbf2f02089,689b874ed0ae9b5b45d959c4,,,,,,,,,,,,,,1,,,,,,,,,,,,,,,,,,,,,,,,,,,,,,,,,,,,,,,,,,,,,,,,,,,,,,,,,45,jilguero,,,,,889.0267,890.6254,0,0,1.0605,,0,43,43,44,1,REAL,FAKE,,,,,,,,,,,,,,,,,
,,,,,,,,,66d06fd15b37d17345069c4c,spanish,13 or older,"no, only English or Spanish",no,2025-08-12_14h29.12.871,empathy_intonation_perc,2024.2.4,Win32,59.88023952,66d06fd15b37d17345069c4c,687ed1b7e638a4cbf2f02089,689b874ed0ae9b5b45d959c4,,,,,,,,,,,,,,1,,,,,,,,,,,,,,,,,,,,,,,,,,,,,,,,,,,,,,,,,,,,,,,,,,,,,,,,,59,besar,,,,,890.6268,891.6588,1,1,0.5055,,0,44,44,58,1,REAL,FAKE,,,,,,,,,,,,,,,,,
,,,,,,,,,66d06fd15b37d17345069c4c,spanish,13 or older,"no, only English or Spanish",no,2025-08-12_14h29.12.871,empathy_intonation_perc,2024.2.4,Win32,59.88023952,66d06fd15b37d17345069c4c,687ed1b7e638a4cbf2f02089,689b874ed0ae9b5b45d959c4,,,,,,,,,,,,,,1,,,,,,,,,,,,,,,,,,,,,,,,,,,,,,,,,,,,,,,,,,,,,,,,,,,,,,,,,60,matar,,,,,891.6603,892.8259,1,1,0.6434,,0,45,45,59,1,REAL,FAKE,,,,,,,,,,,,,,,,,
,,,,,,,,,66d06fd15b37d17345069c4c,spanish,13 or older,"no, only English or Spanish",no,2025-08-12_14h29.12.871,empathy_intonation_perc,2024.2.4,Win32,59.88023952,66d06fd15b37d17345069c4c,687ed1b7e638a4cbf2f02089,689b874ed0ae9b5b45d959c4,,,,,,,,,,,,,,0,,,,,,,,,,,,,,,,,,,,,,,,,,,,,,,,,,,,,,,,,,,,,,,,,,,,,,,,,42,cadallo,,,,,892.8269,893.9785,0,1,0.6173,,0,46,46,41,1,REAL,FAKE,,,,,,,,,,,,,,,,,
,,,,,,,,,66d06fd15b37d17345069c4c,spanish,13 or older,"no, only English or Spanish",no,2025-08-12_14h29.12.871,empathy_intonation_perc,2024.2.4,Win32,59.88023952,66d06fd15b37d17345069c4c,687ed1b7e638a4cbf2f02089,689b874ed0ae9b5b45d959c4,,,,,,,,,,,,,,1,,,,,,,,,,,,,,,,,,,,,,,,,,,,,,,,,,,,,,,,,,,,,,,,,,,,,,,,,55,nevar,,,,,893.9794,895.4955,0,0,0.9844,,0,47,47,54,1,REAL,FAKE,,,,,,,,,,,,,,,,,
,,,,,,,,,66d06fd15b37d17345069c4c,spanish,13 or older,"no, only English or Spanish",no,2025-08-12_14h29.12.871,empathy_intonation_perc,2024.2.4,Win32,59.88023952,66d06fd15b37d17345069c4c,687ed1b7e638a4cbf2f02089,689b874ed0ae9b5b45d959c4,,,,,,,,,,,,,,1,,,,,,,,,,,,,,,,,,,,,,,,,,,,,,,,,,,,,,,,,,,,,,,,,,,,,,,,,12,asesinato,,,,,895.4965,896.8745,0,0,0.8433,,0,48,48,11,1,REAL,FAKE,,,,,,,,,,,,,,,,,
,,,,,,,,,66d06fd15b37d17345069c4c,spanish,13 or older,"no, only English or Spanish",no,2025-08-12_14h29.12.871,empathy_intonation_perc,2024.2.4,Win32,59.88023952,66d06fd15b37d17345069c4c,687ed1b7e638a4cbf2f02089,689b874ed0ae9b5b45d959c4,,,,,,,,,,,,,,0,,,,,,,,,,,,,,,,,,,,,,,,,,,,,,,,,,,,,,,,,,,,,,,,,,,,,,,,,92,click the 0 key.,,,,,896.8756,898.225,0,1,0.8069,,0,49,49,91,1,REAL,FAKE,,,,,,,,,,,,,,,,,
,,,,,,,,,66d06fd15b37d17345069c4c,spanish,13 or older,"no, only English or Spanish",no,2025-08-12_14h29.12.871,empathy_intonation_perc,2024.2.4,Win32,59.88023952,66d06fd15b37d17345069c4c,687ed1b7e638a4cbf2f02089,689b874ed0ae9b5b45d959c4,,,,,,,,,,,,,,0,,,,,,,,,,,,,,,,,,,,,,,,,,,,,,,,,,,,,,,,,,,,,,,,,,,,,,,,,27,acutación,,,,,898.226,900.1769,0,1,1.4097,,0,50,50,26,1,REAL,FAKE,,,,,,,,,,,,,,,,,
,,,,,,,,,66d06fd15b37d17345069c4c,spanish,13 or older,"no, only English or Spanish",no,2025-08-12_14h29.12.871,empathy_intonation_perc,2024.2.4,Win32,59.88023952,66d06fd15b37d17345069c4c,687ed1b7e638a4cbf2f02089,689b874ed0ae9b5b45d959c4,,,,,,,,,,,,,,1,,,,,,,,,,,,,,,,,,,,,,,,,,,,,,,,,,,,,,,,,,,,,,,,,,,,,,,,,48,ladrón,,,,,900.178,901.6086,1,1,0.909,,0,51,51,47,1,REAL,FAKE,,,,,,,,,,,,,,,,,
,,,,,,,,,66d06fd15b37d17345069c4c,spanish,13 or older,"no, only English or Spanish",no,2025-08-12_14h29.12.871,empathy_intonation_perc,2024.2.4,Win32,59.88023952,66d06fd15b37d17345069c4c,687ed1b7e638a4cbf2f02089,689b874ed0ae9b5b45d959c4,,,,,,,,,,,,,,1,,,,,,,,,,,,,,,,,,,,,,,,,,,,,,,,,,,,,,,,,,,,,,,,,,,,,,,,,67,cabello,,,,,901.6098,902.7751,1,1,0.6398,,0,52,52,66,1,REAL,FAKE,,,,,,,,,,,,,,,,,
,,,,,,,,,66d06fd15b37d17345069c4c,spanish,13 or older,"no, only English or Spanish",no,2025-08-12_14h29.12.871,empathy_intonation_perc,2024.2.4,Win32,59.88023952,66d06fd15b37d17345069c4c,687ed1b7e638a4cbf2f02089,689b874ed0ae9b5b45d959c4,,,,,,,,,,,,,,1,,,,,,,,,,,,,,,,,,,,,,,,,,,,,,,,,,,,,,,,,,,,,,,,,,,,,,,,,78,frondoso,,,,,902.7762,904.1453,0,0,0.8345,,0,53,53,77,1,REAL,FAKE,,,,,,,,,,,,,,,,,
,,,,,,,,,66d06fd15b37d17345069c4c,spanish,13 or older,"no, only English or Spanish",no,2025-08-12_14h29.12.871,empathy_intonation_perc,2024.2.4,Win32,59.88023952,66d06fd15b37d17345069c4c,687ed1b7e638a4cbf2f02089,689b874ed0ae9b5b45d959c4,,,,,,,,,,,,,,0,,,,,,,,,,,,,,,,,,,,,,,,,,,,,,,,,,,,,,,,,,,,,,,,,,,,,,,,,30,alardio,,,,,904.1463,905.3418,0,1,0.6513,,0,54,54,29,1,REAL,FAKE,,,,,,,,,,,,,,,,,
,,,,,,,,,66d06fd15b37d17345069c4c,spanish,13 or older,"no, only English or Spanish",no,2025-08-12_14h29.12.871,empathy_intonation_perc,2024.2.4,Win32,59.88023952,66d06fd15b37d17345069c4c,687ed1b7e638a4cbf2f02089,689b874ed0ae9b5b45d959c4,,,,,,,,,,,,,,1,,,,,,,,,,,,,,,,,,,,,,,,,,,,,,,,,,,,,,,,,,,,,,,,,,,,,,,,,52,camisa,,,,,905.3432,906.5779,0,0,0.7005,,0,55,55,51,1,REAL,FAKE,,,,,,,,,,,,,,,,,
,,,,,,,,,66d06fd15b37d17345069c4c,spanish,13 or older,"no, only English or Spanish",no,2025-08-12_14h29.12.871,empathy_intonation_perc,2024.2.4,Win32,59.88023952,66d06fd15b37d17345069c4c,687ed1b7e638a4cbf2f02089,689b874ed0ae9b5b45d959c4,,,,,,,,,,,,,,0,,,,,,,,,,,,,,,,,,,,,,,,,,,,,,,,,,,,,,,,,,,,,,,,,,,,,,,,,17,floroso,,,,,906.5789,907.9767,1,0,0.8659,,0,56,56,16,1,REAL,FAKE,,,,,,,,,,,,,,,,,
,,,,,,,,,66d06fd15b37d17345069c4c,spanish,13 or older,"no, only English or Spanish",no,2025-08-12_14h29.12.871,empathy_intonation_perc,2024.2.4,Win32,59.88023952,66d06fd15b37d17345069c4c,687ed1b7e638a4cbf2f02089,689b874ed0ae9b5b45d959c4,,,,,,,,,,,,,,1,,,,,,,,,,,,,,,,,,,,,,,,,,,,,,,,,,,,,,,,,,,,,,,,,,,,,,,,,71,polvoriento,,,,,907.9776,909.1747,0,0,0.6538,,0,57,57,70,1,REAL,FAKE,,,,,,,,,,,,,,,,,
,,,,,,,,,66d06fd15b37d17345069c4c,spanish,13 or older,"no, only English or Spanish",no,2025-08-12_14h29.12.871,empathy_intonation_perc,2024.2.4,Win32,59.88023952,66d06fd15b37d17345069c4c,687ed1b7e638a4cbf2f02089,689b874ed0ae9b5b45d959c4,,,,,,,,,,,,,,1,,,,,,,,,,,,,,,,,,,,,,,,,,,,,,,,,,,,,,,,,,,,,,,,,,,,,,,,,49,ganar,,,,,909.1768,910.4245,1,1,0.7044,,0,58,58,48,1,REAL,FAKE,,,,,,,,,,,,,,,,,
,,,,,,,,,66d06fd15b37d17345069c4c,spanish,13 or older,"no, only English or Spanish",no,2025-08-12_14h29.12.871,empathy_intonation_perc,2024.2.4,Win32,59.88023952,66d06fd15b37d17345069c4c,687ed1b7e638a4cbf2f02089,689b874ed0ae9b5b45d959c4,,,,,,,,,,,,,,0,,,,,,,,,,,,,,,,,,,,,,,,,,,,,,,,,,,,,,,,,,,,,,,,,,,,,,,,,35,rompido,,,,,910.4255,911.8778,1,0,0.9165,,0,59,59,34,1,REAL,FAKE,,,,,,,,,,,,,,,,,
,,,,,,,,,66d06fd15b37d17345069c4c,spanish,13 or older,"no, only English or Spanish",no,2025-08-12_14h29.12.871,empathy_intonation_perc,2024.2.4,Win32,59.88023952,66d06fd15b37d17345069c4c,687ed1b7e638a4cbf2f02089,689b874ed0ae9b5b45d959c4,,,,,,,,,,,,,,0,,,,,,,,,,,,,,,,,,,,,,,,,,,,,,,,,,,,,,,,,,,,,,,,,,,,,,,,,74,cintro,,,,,911.8789,913.1958,0,1,0.7848,,0,60,60,73,1,REAL,FAKE,,,,,,,,,,,,,,,,,
,,,,,,,,,66d06fd15b37d17345069c4c,spanish,13 or older,"no, only English or Spanish",no,2025-08-12_14h29.12.871,empathy_intonation_perc,2024.2.4,Win32,59.88023952,66d06fd15b37d17345069c4c,687ed1b7e638a4cbf2f02089,689b874ed0ae9b5b45d959c4,,,,,,,,,,,,,,1,,,,,,,,,,,,,,,,,,,,,,,,,,,,,,,,,,,,,,,,,,,,,,,,,,,,,,,,,14,yunque,,,,,913.1968,914.3925,0,0,0.6561,,0,61,61,13,1,REAL,FAKE,,,,,,,,,,,,,,,,,
,,,,,,,,,66d06fd15b37d17345069c4c,spanish,13 or older,"no, only English or Spanish",no,2025-08-12_14h29.12.871,empathy_intonation_perc,2024.2.4,Win32,59.88023952,66d06fd15b37d17345069c4c,687ed1b7e638a4cbf2f02089,689b874ed0ae9b5b45d959c4,,,,,,,,,,,,,,0,,,,,,,,,,,,,,,,,,,,,,,,,,,,,,,,,,,,,,,,,,,,,,,,,,,,,,,,,53,vegada,,,,,914.3936,915.591,1,0,0.6545,,0,62,62,52,1,REAL,FAKE,,,,,,,,,,,,,,,,,
,,,,,,,,,66d06fd15b37d17345069c4c,spanish,13 or older,"no, only English or Spanish",no,2025-08-12_14h29.12.871,empathy_intonation_perc,2024.2.4,Win32,59.88023952,66d06fd15b37d17345069c4c,687ed1b7e638a4cbf2f02089,689b874ed0ae9b5b45d959c4,,,,,,,,,,,,,,0,,,,,,,,,,,,,,,,,,,,,,,,,,,,,,,,,,,,,,,,,,,,,,,,,,,,,,,,,79,tropaje,,,,,915.5931,916.7249,0,1,0.6104,,0,63,63,78,1,REAL,FAKE,,,,,,,,,,,,,,,,,
,,,,,,,,,66d06fd15b37d17345069c4c,spanish,13 or older,"no, only English or Spanish",no,2025-08-12_14h29.12.871,empathy_intonation_perc,2024.2.4,Win32,59.88023952,66d06fd15b37d17345069c4c,687ed1b7e638a4cbf2f02089,689b874ed0ae9b5b45d959c4,,,,,,,,,,,,,,0,,,,,,,,,,,,,,,,,,,,,,,,,,,,,,,,,,,,,,,,,,,,,,,,,,,,,,,,,32,fatacidad,,,,,916.726,918.6075,1,0,1.3377,,0,64,64,31,1,REAL,FAKE,,,,,,,,,,,,,,,,,
,,,,,,,,,66d06fd15b37d17345069c4c,spanish,13 or older,"no, only English or Spanish",no,2025-08-12_14h29.12.871,empathy_intonation_perc,2024.2.4,Win32,59.88023952,66d06fd15b37d17345069c4c,687ed1b7e638a4cbf2f02089,689b874ed0ae9b5b45d959c4,,,,,,,,,,,,,,1,,,,,,,,,,,,,,,,,,,,,,,,,,,,,,,,,,,,,,,,,,,,,,,,,,,,,,,,,86,barato,,,,,918.6091,920.0073,1,1,0.8539,,0,65,65,85,1,REAL,FAKE,,,,,,,,,,,,,,,,,
,,,,,,,,,66d06fd15b37d17345069c4c,spanish,13 or older,"no, only English or Spanish",no,2025-08-12_14h29.12.871,empathy_intonation_perc,2024.2.4,Win32,59.88023952,66d06fd15b37d17345069c4c,687ed1b7e638a4cbf2f02089,689b874ed0ae9b5b45d959c4,,,,,,,,,,,,,,1,,,,,,,,,,,,,,,,,,,,,,,,,,,,,,,,,,,,,,,,,,,,,,,,,,,,,,,,,28,merodear,,,,,920.0084,921.0903,0,0,0.5385,,0,66,66,27,1,REAL,FAKE,,,,,,,,,,,,,,,,,
,,,,,,,,,66d06fd15b37d17345069c4c,spanish,13 or older,"no, only English or Spanish",no,2025-08-12_14h29.12.871,empathy_intonation_perc,2024.2.4,Win32,59.88023952,66d06fd15b37d17345069c4c,687ed1b7e638a4cbf2f02089,689b874ed0ae9b5b45d959c4,,,,,,,,,,,,,,0,,,,,,,,,,,,,,,,,,,,,,,,,,,,,,,,,,,,,,,,,,,,,,,,,,,,,,,,,19,brecedad,,,,,921.0912,922.2617,0,1,0.6346,,0,67,67,18,1,REAL,FAKE,,,,,,,,,,,,,,,,,
,,,,,,,,,66d06fd15b37d17345069c4c,spanish,13 or older,"no, only English or Spanish",no,2025-08-12_14h29.12.871,empathy_intonation_perc,2024.2.4,Win32,59.88023952,66d06fd15b37d17345069c4c,687ed1b7e638a4cbf2f02089,689b874ed0ae9b5b45d959c4,,,,,,,,,,,,,,0,,,,,,,,,,,,,,,,,,,,,,,,,,,,,,,,,,,,,,,,,,,,,,,,,,,,,,,,,18,arsa,,,,,922.2627,923.7244,0,1,0.9206,,0,68,68,17,1,REAL,FAKE,,,,,,,,,,,,,,,,,
,,,,,,,,,66d06fd15b37d17345069c4c,spanish,13 or older,"no, only English or Spanish",no,2025-08-12_14h29.12.871,empathy_intonation_perc,2024.2.4,Win32,59.88023952,66d06fd15b37d17345069c4c,687ed1b7e638a4cbf2f02089,689b874ed0ae9b5b45d959c4,,,,,,,,,,,,,,1,,,,,,,,,,,,,,,,,,,,,,,,,,,,,,,,,,,,,,,,,,,,,,,,,,,,,,,,,68,alegre,,,,,923.7262,924.779,1,1,0.534,,0,69,69,67,1,REAL,FAKE,,,,,,,,,,,,,,,,,
,,,,,,,,,66d06fd15b37d17345069c4c,spanish,13 or older,"no, only English or Spanish",no,2025-08-12_14h29.12.871,empathy_intonation_perc,2024.2.4,Win32,59.88023952,66d06fd15b37d17345069c4c,687ed1b7e638a4cbf2f02089,689b874ed0ae9b5b45d959c4,,,,,,,,,,,,,,1,,,,,,,,,,,,,,,,,,,,,,,,,,,,,,,,,,,,,,,,,,,,,,,,,,,,,,,,,57,tacaño,,,,,924.7799,926.7276,0,0,1.4166,,0,70,70,56,1,REAL,FAKE,,,,,,,,,,,,,,,,,
,,,,,,,,,66d06fd15b37d17345069c4c,spanish,13 or older,"no, only English or Spanish",no,2025-08-12_14h29.12.871,empathy_intonation_perc,2024.2.4,Win32,59.88023952,66d06fd15b37d17345069c4c,687ed1b7e638a4cbf2f02089,689b874ed0ae9b5b45d959c4,,,,,,,,,,,,,,1,,,,,,,,,,,,,,,,,,,,,,,,,,,,,,,,,,,,,,,,,,,,,,,,,,,,,,,,,54,fomentar,,,,,926.7288,928.5769,1,1,1.316,,0,71,71,53,1,REAL,FAKE,,,,,,,,,,,,,,,,,
,,,,,,,,,66d06fd15b37d17345069c4c,spanish,13 or older,"no, only English or Spanish",no,2025-08-12_14h29.12.871,empathy_intonation_perc,2024.2.4,Win32,59.88023952,66d06fd15b37d17345069c4c,687ed1b7e638a4cbf2f02089,689b874ed0ae9b5b45d959c4,,,,,,,,,,,,,,0,,,,,,,,,,,,,,,,,,,,,,,,,,,,,,,,,,,,,,,,,,,,,,,,,,,,,,,,,87,grodo,,,,,928.5778,929.9575,1,0,0.8372,,0,72,72,86,1,REAL,FAKE,,,,,,,,,,,,,,,,,
,,,,,,,,,66d06fd15b37d17345069c4c,spanish,13 or older,"no, only English or Spanish",no,2025-08-12_14h29.12.871,empathy_intonation_perc,2024.2.4,Win32,59.88023952,66d06fd15b37d17345069c4c,687ed1b7e638a4cbf2f02089,689b874ed0ae9b5b45d959c4,,,,,,,,,,,,,,1,,,,,,,,,,,,,,,,,,,,,,,,,,,,,,,,,,,,,,,,,,,,,,,,,,,,,,,,,39,torpe,,,,,929.9587,931.2142,0,0,0.7376,,0,73,73,38,1,REAL,FAKE,,,,,,,,,,,,,,,,,
,,,,,,,,,66d06fd15b37d17345069c4c,spanish,13 or older,"no, only English or Spanish",no,2025-08-12_14h29.12.871,empathy_intonation_perc,2024.2.4,Win32,59.88023952,66d06fd15b37d17345069c4c,687ed1b7e638a4cbf2f02089,689b874ed0ae9b5b45d959c4,,,,,,,,,,,,,,1,,,,,,,,,,,,,,,,,,,,,,,,,,,,,,,,,,,,,,,,,,,,,,,,,,,,,,,,,89,prisa,,,,,931.215,932.7075,0,0,0.9578,,0,74,74,88,1,REAL,FAKE,,,,,,,,,,,,,,,,,
,,,,,,,,,66d06fd15b37d17345069c4c,spanish,13 or older,"no, only English or Spanish",no,2025-08-12_14h29.12.871,empathy_intonation_perc,2024.2.4,Win32,59.88023952,66d06fd15b37d17345069c4c,687ed1b7e638a4cbf2f02089,689b874ed0ae9b5b45d959c4,,,,,,,,,,,,,,1,,,,,,,,,,,,,,,,,,,,,,,,,,,,,,,,,,,,,,,,,,,,,,,,,,,,,,,,,77,tiburón,,,,,932.7103,934.5614,0,0,1.3169,,0,75,75,76,1,REAL,FAKE,,,,,,,,,,,,,,,,,
,,,,,,,,,66d06fd15b37d17345069c4c,spanish,13 or older,"no, only English or Spanish",no,2025-08-12_14h29.12.871,empathy_intonation_perc,2024.2.4,Win32,59.88023952,66d06fd15b37d17345069c4c,687ed1b7e638a4cbf2f02089,689b874ed0ae9b5b45d959c4,,,,,,,,,,,,,,1,,,,,,,,,,,,,,,,,,,,,,,,,,,,,,,,,,,,,,,,,,,,,,,,,,,,,,,,,83,guante,,,,,934.5635,935.8282,1,1,0.7505,,0,76,76,82,1,REAL,FAKE,,,,,,,,,,,,,,,,,
,,,,,,,,,66d06fd15b37d17345069c4c,spanish,13 or older,"no, only English or Spanish",no,2025-08-12_14h29.12.871,empathy_intonation_perc,2024.2.4,Win32,59.88023952,66d06fd15b37d17345069c4c,687ed1b7e638a4cbf2f02089,689b874ed0ae9b5b45d959c4,,,,,,,,,,,,,,1,,,,,,,,,,,,,,,,,,,,,,,,,,,,,,,,,,,,,,,,,,,,,,,,,,,,,,,,,88,acantilado,,,,,935.8293,938.2934,1,1,1.9329,,0,77,77,87,1,REAL,FAKE,,,,,,,,,,,,,,,,,
,,,,,,,,,66d06fd15b37d17345069c4c,spanish,13 or older,"no, only English or Spanish",no,2025-08-12_14h29.12.871,empathy_intonation_perc,2024.2.4,Win32,59.88023952,66d06fd15b37d17345069c4c,687ed1b7e638a4cbf2f02089,689b874ed0ae9b5b45d959c4,,,,,,,,,,,,,,1,,,,,,,,,,,,,,,,,,,,,,,,,,,,,,,,,,,,,,,,,,,,,,,,,,,,,,,,,11,cenefa,,,,,938.2944,939.8595,0,0,1.0493,,0,78,78,10,1,REAL,FAKE,,,,,,,,,,,,,,,,,
,,,,,,,,,66d06fd15b37d17345069c4c,spanish,13 or older,"no, only English or Spanish",no,2025-08-12_14h29.12.871,empathy_intonation_perc,2024.2.4,Win32,59.88023952,66d06fd15b37d17345069c4c,687ed1b7e638a4cbf2f02089,689b874ed0ae9b5b45d959c4,,,,,,,,,,,,,,0,,,,,,,,,,,,,,,,,,,,,,,,,,,,,,,,,,,,,,,,,,,,,,,,,,,,,,,,,50,flamida,,,,,939.8605,941.1269,0,1,0.7335,,0,79,79,49,1,REAL,FAKE,,,,,,,,,,,,,,,,,
,,,,,,,,,66d06fd15b37d17345069c4c,spanish,13 or older,"no, only English or Spanish",no,2025-08-12_14h29.12.871,empathy_intonation_perc,2024.2.4,Win32,59.88023952,66d06fd15b37d17345069c4c,687ed1b7e638a4cbf2f02089,689b874ed0ae9b5b45d959c4,,,,,,,,,,,,,,0,,,,,,,,,,,,,,,,,,,,,,,,,,,,,,,,,,,,,,,,,,,,,,,,,,,,,,,,,16,abracer,,,,,941.1279,942.845,0,1,1.1852,,0,80,80,15,1,REAL,FAKE,,,,,,,,,,,,,,,,,
,,,,,,,,,66d06fd15b37d17345069c4c,spanish,13 or older,"no, only English or Spanish",no,2025-08-12_14h29.12.871,empathy_intonation_perc,2024.2.4,Win32,59.88023952,66d06fd15b37d17345069c4c,687ed1b7e638a4cbf2f02089,689b874ed0ae9b5b45d959c4,,,,,,,,,,,,,,0,,,,,,,,,,,,,,,,,,,,,,,,,,,,,,,,,,,,,,,,,,,,,,,,,,,,,,,,,58,plaudir,,,,,942.846,944.3905,0,1,1.0065,,0,81,81,57,1,REAL,FAKE,,,,,,,,,,,,,,,,,
,,,,,,,,,66d06fd15b37d17345069c4c,spanish,13 or older,"no, only English or Spanish",no,2025-08-12_14h29.12.871,empathy_intonation_perc,2024.2.4,Win32,59.88023952,66d06fd15b37d17345069c4c,687ed1b7e638a4cbf2f02089,689b874ed0ae9b5b45d959c4,,,,,,,,,,,,,,0,,,,,,,,,,,,,,,,,,,,,,,,,,,,,,,,,,,,,,,,,,,,,,,,,,,,,,,,,47,cartinar,,,,,944.3919,946.0238,0,1,1.1068,,0,82,82,46,1,REAL,FAKE,,,,,,,,,,,,,,,,,
,,,,,,,,,66d06fd15b37d17345069c4c,spanish,13 or older,"no, only English or Spanish",no,2025-08-12_14h29.12.871,empathy_intonation_perc,2024.2.4,Win32,59.88023952,66d06fd15b37d17345069c4c,687ed1b7e638a4cbf2f02089,689b874ed0ae9b5b45d959c4,,,,,,,,,,,,,,1,,,,,,,,,,,,,,,,,,,,,,,,,,,,,,,,,,,,,,,,,,,,,,,,,,,,,,,,,40,alfombra,,,,,946.0256,947.7068,0,0,1.1365,,0,83,83,39,1,REAL,FAKE,,,,,,,,,,,,,,,,,
,,,,,,,,,66d06fd15b37d17345069c4c,spanish,13 or older,"no, only English or Spanish",no,2025-08-12_14h29.12.871,empathy_intonation_perc,2024.2.4,Win32,59.88023952,66d06fd15b37d17345069c4c,687ed1b7e638a4cbf2f02089,689b874ed0ae9b5b45d959c4,,,,,,,,,,,,,,0,,,,,,,,,,,,,,,,,,,,,,,,,,,,,,,,,,,,,,,,,,,,,,,,,,,,,,,,,4,batillón,,,,,947.7092,949.3569,1,0,1.1215,,0,84,84,3,1,REAL,FAKE,,,,,,,,,,,,,,,,,
,,,,,,,,,66d06fd15b37d17345069c4c,spanish,13 or older,"no, only English or Spanish",no,2025-08-12_14h29.12.871,empathy_intonation_perc,2024.2.4,Win32,59.88023952,66d06fd15b37d17345069c4c,687ed1b7e638a4cbf2f02089,689b874ed0ae9b5b45d959c4,,,,,,,,,,,,,,1,,,,,,,,,,,,,,,,,,,,,,,,,,,,,,,,,,,,,,,,,,,,,,,,,,,,,,,,,41,rebuscar,,,,,949.3586,950.6402,1,1,0.7397,,0,85,85,40,1,REAL,FAKE,,,,,,,,,,,,,,,,,
,,,,,,,,,66d06fd15b37d17345069c4c,spanish,13 or older,"no, only English or Spanish",no,2025-08-12_14h29.12.871,empathy_intonation_perc,2024.2.4,Win32,59.88023952,66d06fd15b37d17345069c4c,687ed1b7e638a4cbf2f02089,689b874ed0ae9b5b45d959c4,,,,,,,,,,,,,,0,,,,,,,,,,,,,,,,,,,,,,,,,,,,,,,,,,,,,,,,,,,,,,,,,,,,,,,,,23,lampera,,,,,950.6417,951.9102,1,0,0.7507,,0,86,86,22,1,REAL,FAKE,,,,,,,,,,,,,,,,,
,,,,,,,,,66d06fd15b37d17345069c4c,spanish,13 or older,"no, only English or Spanish",no,2025-08-12_14h29.12.871,empathy_intonation_perc,2024.2.4,Win32,59.88023952,66d06fd15b37d17345069c4c,687ed1b7e638a4cbf2f02089,689b874ed0ae9b5b45d959c4,,,,,,,,,,,,,,1,,,,,,,,,,,,,,,,,,,,,,,,,,,,,,,,,,,,,,,,,,,,,,,,,,,,,,,,,62,flaco,,,,,951.9113,953.16,1,1,0.7171,,0,87,87,61,1,REAL,FAKE,,,,,,,,,,,,,,,,,
,,,,,,,,,66d06fd15b37d17345069c4c,spanish,13 or older,"no, only English or Spanish",no,2025-08-12_14h29.12.871,empathy_intonation_perc,2024.2.4,Win32,59.88023952,66d06fd15b37d17345069c4c,687ed1b7e638a4cbf2f02089,689b874ed0ae9b5b45d959c4,,,,,,,,,,,,,,1,,,,,,,,,,,,,,,,,,,,,,,,,,,,,,,,,,,,,,,,,,,,,,,,,,,,,,,,,38,estornudar,,,,,953.161,954.5064,0,0,0.8026,,0,88,88,37,1,REAL,FAKE,,,,,,,,,,,,,,,,,
,,,,,,,,,66d06fd15b37d17345069c4c,spanish,13 or older,"no, only English or Spanish",no,2025-08-12_14h29.12.871,empathy_intonation_perc,2024.2.4,Win32,59.88023952,66d06fd15b37d17345069c4c,687ed1b7e638a4cbf2f02089,689b874ed0ae9b5b45d959c4,,,,,,,,,,,,,,1,,,,,,,,,,,,,,,,,,,,,,,,,,,,,,,,,,,,,,,,,,,,,,,,,,,,,,,,,65,bizcocho,,,,,954.508,955.593,0,0,0.5507,,0,89,89,64,1,REAL,FAKE,,,,,,,,,,,,,,,,,
,,,,,,,,,66d06fd15b37d17345069c4c,spanish,13 or older,"no, only English or Spanish",no,2025-08-12_14h29.12.871,empathy_intonation_perc,2024.2.4,Win32,59.88023952,66d06fd15b37d17345069c4c,687ed1b7e638a4cbf2f02089,689b874ed0ae9b5b45d959c4,,,,,,,,,,,,,,1,,,,,,,,,,,,,,,,,,,,,,,,,,,,,,,,,,,,,,,,,,,,,,,,,,,,,,,,,15,regar,,,,,955.5938,956.8089,1,1,0.6824,,0,90,90,14,1,REAL,FAKE,,,,,,,,,,,,,,,,,
,,,,,,,,,66d06fd15b37d17345069c4c,spanish,13 or older,"no, only English or Spanish",no,2025-08-12_14h29.12.871,empathy_intonation_perc,2024.2.4,Win32,59.88023952,66d06fd15b37d17345069c4c,687ed1b7e638a4cbf2f02089,689b874ed0ae9b5b45d959c4,,,,,,,,,,,,,,0,,,,,,,,,,,,,,,,,,,,,,,,,,,,,,,,,,,,,,,,,,,,,,,,,,,,,,,,,10,antar,,,,,956.8099,958.0111,0,1,0.6681,,0,91,91,9,1,REAL,FAKE,,,,,,,,,,,,,,,,,
,,,,,,,,,66d06fd15b37d17345069c4c,spanish,13 or older,"no, only English or Spanish",no,2025-08-12_14h29.12.871,empathy_intonation_perc,2024.2.4,Win32,59.88023952,66d06fd15b37d17345069c4c,687ed1b7e638a4cbf2f02089,689b874ed0ae9b5b45d959c4,,,,,,,,,,,,,,,,,,,,,,,,,,,,,,,,,,,,,,,,,,,,,,,,,,,,,,,,,,,,,,,,,,,,,,,,,,,,,,,,,,,,,,,,,,958.0116,963.0941,,,,,,,,,,,,,,,
,,,,,,,,,66d06fd15b37d17345069c4c,spanish,13 or older,"no, only English or Spanish",no,2025-08-12_14h29.12.871,empathy_intonation_perc,2024.2.4,Win32,59.88023952,66d06fd15b37d17345069c4c,687ed1b7e638a4cbf2f02089,689b874ed0ae9b5b45d959c4,,,,,,,,,,,,,1,,,,,,,,,,,,,,,,,,,,,,,,,,,,,,,,,,,,,,,,,,,,,,,,,,,,,,,,,,,,,,,,,,,,,,,,,,,,,,,963.1109,968.7418,slightly agree,0,0,0,0,1,I can easily tell if someone else wants to enter a conversation.,1,0,1,0,,
,,,,,,,,,66d06fd15b37d17345069c4c,spanish,13 or older,"no, only English or Spanish",no,2025-08-12_14h29.12.871,empathy_intonation_perc,2024.2.4,Win32,59.88023952,66d06fd15b37d17345069c4c,687ed1b7e638a4cbf2f02089,689b874ed0ae9b5b45d959c4,,,,,,,,,,,,,2,,,,,,,,,,,,,,,,,,,,,,,,,,,,,,,,,,,,,,,,,,,,,,,,,,,,,,,,,,,,,,,,,,,,,,,,,,,,,,,968.7447,972.4893,slightly disagree,0,1,1,1,1,I prefer animals to humans.,0,1,0,0,,
,,,,,,,,,66d06fd15b37d17345069c4c,spanish,13 or older,"no, only English or Spanish",no,2025-08-12_14h29.12.871,empathy_intonation_perc,2024.2.4,Win32,59.88023952,66d06fd15b37d17345069c4c,687ed1b7e638a4cbf2f02089,689b874ed0ae9b5b45d959c4,,,,,,,,,,,,,3,,,,,,,,,,,,,,,,,,,,,,,,,,,,,,,,,,,,,,,,,,,,,,,,,,,,,,,,,,,,,,,,,,,,,,,,,,,,,,,972.4921,975.1406,slightly disagree,0,2,2,2,1,I try to keep up with the current trends and fashions.,0,1,0,0,,
,,,,,,,,,66d06fd15b37d17345069c4c,spanish,13 or older,"no, only English or Spanish",no,2025-08-12_14h29.12.871,empathy_intonation_perc,2024.2.4,Win32,59.88023952,66d06fd15b37d17345069c4c,687ed1b7e638a4cbf2f02089,689b874ed0ae9b5b45d959c4,,,,,,,,,,,,,4,,,,,,,,,,,,,,,,,,,,,,,,,,,,,,,,,,,,,,,,,,,,,,,,,,,,,,,,,,,,,,,,,,,,,,,,,,,,,,,975.1439,979.2385,slightly agree,0,3,3,3,1,"I find it difficult to explain to others things that I understand easily,   when they don't understand it first time.",1,0,0,1,,
,,,,,,,,,66d06fd15b37d17345069c4c,spanish,13 or older,"no, only English or Spanish",no,2025-08-12_14h29.12.871,empathy_intonation_perc,2024.2.4,Win32,59.88023952,66d06fd15b37d17345069c4c,687ed1b7e638a4cbf2f02089,689b874ed0ae9b5b45d959c4,,,,,,,,,,,,,5,,,,,,,,,,,,,,,,,,,,,,,,,,,,,,,,,,,,,,,,,,,,,,,,,,,,,,,,,,,,,,,,,,,,,,,,,,,,,,,979.2398,982.0055,slightly disagree,0,4,4,4,1,I dream most nights.,0,1,0,0,,
,,,,,,,,,66d06fd15b37d17345069c4c,spanish,13 or older,"no, only English or Spanish",no,2025-08-12_14h29.12.871,empathy_intonation_perc,2024.2.4,Win32,59.88023952,66d06fd15b37d17345069c4c,687ed1b7e638a4cbf2f02089,689b874ed0ae9b5b45d959c4,,,,,,,,,,,,,6,,,,,,,,,,,,,,,,,,,,,,,,,,,,,,,,,,,,,,,,,,,,,,,,,,,,,,,,,,,,,,,,,,,,,,,,,,,,,,,982.0086,983.8217,slightly disagree,0,5,5,5,1,I really enjoy caring for other people.,1,0,1,0,,
,,,,,,,,,66d06fd15b37d17345069c4c,spanish,13 or older,"no, only English or Spanish",no,2025-08-12_14h29.12.871,empathy_intonation_perc,2024.2.4,Win32,59.88023952,66d06fd15b37d17345069c4c,687ed1b7e638a4cbf2f02089,689b874ed0ae9b5b45d959c4,,,,,,,,,,,,,7,,,,,,,,,,,,,,,,,,,,,,,,,,,,,,,,,,,,,,,,,,,,,,,,,,,,,,,,,,,,,,,,,,,,,,,,,,,,,,,983.8251,987.139,slightly disagree,0,6,6,6,1,I try to solve my own problems rather than discussing them with others.,0,1,0,0,,
,,,,,,,,,66d06fd15b37d17345069c4c,spanish,13 or older,"no, only English or Spanish",no,2025-08-12_14h29.12.871,empathy_intonation_perc,2024.2.4,Win32,59.88023952,66d06fd15b37d17345069c4c,687ed1b7e638a4cbf2f02089,689b874ed0ae9b5b45d959c4,,,,,,,,,,,,,8,,,,,,,,,,,,,,,,,,,,,,,,,,,,,,,,,,,,,,,,,,,,,,,,,,,,,,,,,,,,,,,,,,,,,,,,,,,,,,,987.1419,989.406,slightly agree,0,7,7,7,1,I find it hard to know what to do in a social situation.,1,0,0,1,,
,,,,,,,,,66d06fd15b37d17345069c4c,spanish,13 or older,"no, only English or Spanish",no,2025-08-12_14h29.12.871,empathy_intonation_perc,2024.2.4,Win32,59.88023952,66d06fd15b37d17345069c4c,687ed1b7e638a4cbf2f02089,689b874ed0ae9b5b45d959c4,,,,,,,,,,,,,9,,,,,,,,,,,,,,,,,,,,,,,,,,,,,,,,,,,,,,,,,,,,,,,,,,,,,,,,,,,,,,,,,,,,,,,,,,,,,,,989.4082,991.0381,slightly disagree,0,8,8,8,1,I am at my best first thing in the morning.,0,1,0,0,,
,,,,,,,,,66d06fd15b37d17345069c4c,spanish,13 or older,"no, only English or Spanish",no,2025-08-12_14h29.12.871,empathy_intonation_perc,2024.2.4,Win32,59.88023952,66d06fd15b37d17345069c4c,687ed1b7e638a4cbf2f02089,689b874ed0ae9b5b45d959c4,,,,,,,,,,,,,10,,,,,,,,,,,,,,,,,,,,,,,,,,,,,,,,,,,,,,,,,,,,,,,,,,,,,,,,,,,,,,,,,,,,,,,,,,,,,,,991.0407,993.7548,strongly agree,0,9,9,9,1,People often tell me that I went too far in driving my point home in a discussion.,1,0,0,1,,
