instructions_exposure.started,instructions_exposure.stopped,instructions_exposure_loop.thisRepN,instructions_exposure_loop.thisTrialN,instructions_exposure_loop.thisN,instructions_exposure_loop.thisIndex,instructions_exposure_loop.ran,instructions_text,continue_text,participant_id,"What variety of Spanish are you most familiar with? (e.g., Peruvian, Spanish, Mexican)",At what age did you begin learning Spanish?,Are you proficient in any languages other than English/Spanish?,"Are you familiar with Caribbean (e.g., Caribbean, Puerto Rican) or Galician Spanish?",date,expName,psychopyVersion,OS,frameRate,id,study_id,session,trial_exposure.started,trial_exposure.stopped,key_resp_exposure.keys,key_resp_exposure.corr,key_resp_exposure.rt,key_resp_exposure.duration,key_resp.keys,exposure_loop.thisRepN,exposure_loop.thisTrialN,exposure_loop.thisN,exposure_loop.thisIndex,exposure_loop.ran,item_num,correct_response,question,path,duration,instructions_2afc.started,instructions_2afc.stopped,instructions_2afc_loop.thisRepN,instructions_2afc_loop.thisTrialN,instructions_2afc_loop.thisN,instructions_2afc_loop.thisIndex,instructions_2afc_loop.ran,practice_2afc.started,practice_2afc.stopped,key_resp_2afc_practice.keys,key_resp_2afc_practice.corr,key_resp_2afc_practice.rt,key_resp_2afc_practice.duration,trials_2afc_practice_loop.thisRepN,trials_2afc_practice_loop.thisTrialN,trials_2afc_practice_loop.thisN,trials_2afc_practice_loop.thisIndex,trials_2afc_practice_loop.ran,check_2afc.started,check_2afc.stopped,trial_2afc.started,trial_2afc.stopped,key_resp_2afc_trial.keys,key_resp_2afc_trial.corr,key_resp_2afc_trial.rt,key_resp_2afc_trial.duration,trials_2afc_loop.thisRepN,trials_2afc_loop.thisTrialN,trials_2afc_loop.thisN,trials_2afc_loop.thisIndex,trials_2afc_loop.ran,target,variety,instructions_lextale.started,instructions_lextale.stopped,instructions_lextale_loop.thisRepN,instructions_lextale_loop.thisTrialN,instructions_lextale_loop.thisN,instructions_lextale_loop.thisIndex,instructions_lextale_loop.ran,practice_lextale.started,practice_lextale.stopped,key_resp_lextale_practice.keys,key_resp_lextale_practice.corr,key_resp_lextale_practice.rt,key_resp_lextale_practice.duration,practice_feedback_lextale.started,practice_feedback_lextale.stopped,trials_lextale_practice_loop.thisRepN,trials_lextale_practice_loop.thisTrialN,trials_lextale_practice_loop.thisN,trials_lextale_practice_loop.thisIndex,trials_lextale_practice_loop.ran,stim,word,prac_button_real,prac_button_false,check_lextale.started,check_lextale.stopped,trial_lextale.started,trial_lextale.stopped,key_resp_lextale_trial.keys,key_resp_lextale_trial.corr,key_resp_lextale_trial.rt,key_resp_lextale_trial.duration,trials_lextale_loop.thisRepN,trials_lextale_loop.thisTrialN,trials_lextale_loop.thisN,trials_lextale_loop.thisIndex,trials_lextale_loop.ran,button_real,button_false,instructions_eq.started,instructions_eq.stopped,trial_eq.started,trial_eq.stopped,slider_eq_trial.response,trials_eq_loop.thisRepN,trials_eq_loop.thisTrialN,trials_eq_loop.thisN,trials_eq_loop.thisIndex,trials_eq_loop.ran,item,is_test_item,is_distractor,is_agree_score,is_disagree_score,end_exp.started,end_exp.stopped
0.0132,5.2555,0,0,0,0,1,"In the following task, you are going to hear a series of conversations.", (press the space bar to continue),66e32aaad05615cfd9fcbe48,Spanish,13 or older,"no, only English or Spanish",no,2025-07-23_08h32.06.819,empathy_intonation_perc,2024.2.4,Win32,20.04008016,66e32aaad05615cfd9fcbe48,687ed1b7e638a4cbf2f02089,6880d606c649c59c620f5b6e,,,,,,,,,,,,,,,,,,,,,,,,,,,,,,,,,,,,,,,,,,,,,,,,,,,,,,,,,,,,,,,,,,,,,,,,,,,,,,,,,,,,,,,,,,,,,,,,,,,,,,,,,,
5.256,10.0126,0,1,1,1,1,It is okay if you don't not 100% understand them!, (press the space bar to continue),66e32aaad05615cfd9fcbe48,Spanish,13 or older,"no, only English or Spanish",no,2025-07-23_08h32.06.819,empathy_intonation_perc,2024.2.4,Win32,20.04008016,66e32aaad05615cfd9fcbe48,687ed1b7e638a4cbf2f02089,6880d606c649c59c620f5b6e,,,,,,,,,,,,,,,,,,,,,,,,,,,,,,,,,,,,,,,,,,,,,,,,,,,,,,,,,,,,,,,,,,,,,,,,,,,,,,,,,,,,,,,,,,,,,,,,,,,,,,,,,,
10.0139,15.4499,0,2,2,2,1,"After, you will read a sentence about the conversation and decide if it's true or false.", (press the space bar to continue),66e32aaad05615cfd9fcbe48,Spanish,13 or older,"no, only English or Spanish",no,2025-07-23_08h32.06.819,empathy_intonation_perc,2024.2.4,Win32,20.04008016,66e32aaad05615cfd9fcbe48,687ed1b7e638a4cbf2f02089,6880d606c649c59c620f5b6e,,,,,,,,,,,,,,,,,,,,,,,,,,,,,,,,,,,,,,,,,,,,,,,,,,,,,,,,,,,,,,,,,,,,,,,,,,,,,,,,,,,,,,,,,,,,,,,,,,,,,,,,,,
15.4514,19.9933,0,3,3,3,1,"If it's true, press '1' (True) and if it's false press '0' (False).", (press the space bar to continue),66e32aaad05615cfd9fcbe48,Spanish,13 or older,"no, only English or Spanish",no,2025-07-23_08h32.06.819,empathy_intonation_perc,2024.2.4,Win32,20.04008016,66e32aaad05615cfd9fcbe48,687ed1b7e638a4cbf2f02089,6880d606c649c59c620f5b6e,,,,,,,,,,,,,,,,,,,,,,,,,,,,,,,,,,,,,,,,,,,,,,,,,,,,,,,,,,,,,,,,,,,,,,,,,,,,,,,,,,,,,,,,,,,,,,,,,,,,,,,,,,
,,,,,,,,,66e32aaad05615cfd9fcbe48,Spanish,13 or older,"no, only English or Spanish",no,2025-07-23_08h32.06.819,empathy_intonation_perc,2024.2.4,Win32,20.04008016,66e32aaad05615cfd9fcbe48,687ed1b7e638a4cbf2f02089,6880d606c649c59c620f5b6e,19.9994,60.0483,0,1,3.846,,,0,0,0,2,1,3,0,The mom already has rice.,./stim/exposure_wavs/pr_stimuli_convo.wav,36,,,,,,,,,,,,,,,,,,,,,,,,,,,,,,,,,,,,,,,,,,,,,,,,,,,,,,,,,,,,,,,,,,,,,,,,,,,,,,,,,,,,,,,,,
,,,,,,,,,66e32aaad05615cfd9fcbe48,Spanish,13 or older,"no, only English or Spanish",no,2025-07-23_08h32.06.819,empathy_intonation_perc,2024.2.4,Win32,20.04008016,66e32aaad05615cfd9fcbe48,687ed1b7e638a4cbf2f02089,6880d606c649c59c620f5b6e,60.0505,112.3377,0,0,5.0752,,,0,1,1,0,1,1,1,The son asked the mom if Aunt Marina is okay.,./stim/exposure_wavs/ga_stimuli_convo.wav,47,,,,,,,,,,,,,,,,,,,,,,,,,,,,,,,,,,,,,,,,,,,,,,,,,,,,,,,,,,,,,,,,,,,,,,,,,,,,,,,,,,,,,,,,,
,,,,,,,,,66e32aaad05615cfd9fcbe48,Spanish,13 or older,"no, only English or Spanish",no,2025-07-23_08h32.06.819,empathy_intonation_perc,2024.2.4,Win32,20.04008016,66e32aaad05615cfd9fcbe48,687ed1b7e638a4cbf2f02089,6880d606c649c59c620f5b6e,112.3401,179.1722,1,1,6.6129,,,0,2,2,1,1,2,1,The mom asked the daughter if she already went to the supermarket.,./stim/exposure_wavs/dr_stimuli_convo.wav,60,,,,,,,,,,,,,,,,,,,,,,,,,,,,,,,,,,,,,,,,,,,,,,,,,,,,,,,,,,,,,,,,,,,,,,,,,,,,,,,,,,,,,,,,,
,,,,,,,"In the following task you are going to hear a series of utterances. 

  You will decide if the utterances sound like questions or not using your keyboard.", (press the spacebar to continue),66e32aaad05615cfd9fcbe48,Spanish,13 or older,"no, only English or Spanish",no,2025-07-23_08h32.06.819,empathy_intonation_perc,2024.2.4,Win32,20.04008016,66e32aaad05615cfd9fcbe48,687ed1b7e638a4cbf2f02089,6880d606c649c59c620f5b6e,,,,,,,,,,,,,,,,,,179.1754,187.2519,0,0,0,0,1,,,,,,,,,,,,,,,,,,,,,,,,,,,,,,,,,,,,,,,,,,,,,,,,,,,,,,,,,,,,,,,,,,,,,,,,,,,,,,,,,,
,,,,,,,"If you believe the utterance is a question, type '1' (for 'yes') and if you do not 
  believe it is a question type '0' (for 'no').

  Let's practice a bit...", (press the spacebar to continue),66e32aaad05615cfd9fcbe48,Spanish,13 or older,"no, only English or Spanish",no,2025-07-23_08h32.06.819,empathy_intonation_perc,2024.2.4,Win32,20.04008016,66e32aaad05615cfd9fcbe48,687ed1b7e638a4cbf2f02089,6880d606c649c59c620f5b6e,,,,,,,,,,,,,,,,,,187.2534,207.4322,0,1,1,1,1,,,,,,,,,,,,,,,,,,,,,,,,,,,,,,,,,,,,,,,,,,,,,,,,,,,,,,,,,,,,,,,,,,,,,,,,,,,,,,,,,,
,,,,,,,,,66e32aaad05615cfd9fcbe48,Spanish,13 or older,"no, only English or Spanish",no,2025-07-23_08h32.06.819,empathy_intonation_perc,2024.2.4,Win32,20.04008016,66e32aaad05615cfd9fcbe48,687ed1b7e638a4cbf2f02089,6880d606c649c59c620f5b6e,,,,,,,,,,,,,,0,,./stim/wavs/puertorican_statement_filler_La-nina-pinta-con-su-amiga.wav,,,,,,,,,207.4367,211.3171,0,1,3.1344,,0,0,0,7,1,,,,,,,,,,,,,,,,,,,,,,,,,,,,,,,,,,,,,,,,,,,,,,,,,,,,,,,,,,,,,,,,,,,,,,,
,,,,,,,,,66e32aaad05615cfd9fcbe48,Spanish,13 or older,"no, only English or Spanish",no,2025-07-23_08h32.06.819,empathy_intonation_perc,2024.2.4,Win32,20.04008016,66e32aaad05615cfd9fcbe48,687ed1b7e638a4cbf2f02089,6880d606c649c59c620f5b6e,,,,,,,,,,,,,,1,,./stim/wavs/castilian_question_filler_Mi-esposo-conoce-al-chico.wav,,,,,,,,,211.3177,214.5491,1,1,2.5882,,0,1,1,0,1,,,,,,,,,,,,,,,,,,,,,,,,,,,,,,,,,,,,,,,,,,,,,,,,,,,,,,,,,,,,,,,,,,,,,,,
,,,,,,,,,66e32aaad05615cfd9fcbe48,Spanish,13 or older,"no, only English or Spanish",no,2025-07-23_08h32.06.819,empathy_intonation_perc,2024.2.4,Win32,20.04008016,66e32aaad05615cfd9fcbe48,687ed1b7e638a4cbf2f02089,6880d606c649c59c620f5b6e,,,,,,,,,,,,,,1,,./stim/wavs/chilean_question_filler_Mi-padre-cantaba-bien.wav,,,,,,,,,214.5495,218.0406,0,0,2.8635,0.0001,0,2,2,2,1,,,,,,,,,,,,,,,,,,,,,,,,,,,,,,,,,,,,,,,,,,,,,,,,,,,,,,,,,,,,,,,,,,,,,,,
,,,,,,,,,66e32aaad05615cfd9fcbe48,Spanish,13 or older,"no, only English or Spanish",no,2025-07-23_08h32.06.819,empathy_intonation_perc,2024.2.4,Win32,20.04008016,66e32aaad05615cfd9fcbe48,687ed1b7e638a4cbf2f02089,6880d606c649c59c620f5b6e,,,,,,,,,,,,,,0,,./stim/wavs/cuban_statement_filler_Cocinabas-por-la-noche.wav,,,,,,,,,218.0409,221.025,0,1,2.3306,,0,3,3,4,1,,,,,,,,,,,,,,,,,,,,,,,,,,,,,,,,,,,,,,,,,,,,,,,,,,,,,,,,,,,,,,,,,,,,,,,
,,,,,,,,,66e32aaad05615cfd9fcbe48,Spanish,13 or older,"no, only English or Spanish",no,2025-07-23_08h32.06.819,empathy_intonation_perc,2024.2.4,Win32,20.04008016,66e32aaad05615cfd9fcbe48,687ed1b7e638a4cbf2f02089,6880d606c649c59c620f5b6e,,,,,,,,,,,,,,1,,./stim/wavs/argentine_question_filler_Mi-vecino-habla-mucho.wav,,,,,,,,,221.0253,223.7346,1,1,2.0767,,0,4,4,1,1,,,,,,,,,,,,,,,,,,,,,,,,,,,,,,,,,,,,,,,,,,,,,,,,,,,,,,,,,,,,,,,,,,,,,,,
,,,,,,,,,66e32aaad05615cfd9fcbe48,Spanish,13 or older,"no, only English or Spanish",no,2025-07-23_08h32.06.819,empathy_intonation_perc,2024.2.4,Win32,20.04008016,66e32aaad05615cfd9fcbe48,687ed1b7e638a4cbf2f02089,6880d606c649c59c620f5b6e,,,,,,,,,,,,,,0,,./stim/wavs/andalusian_statement_filler_Alberto-nunca-se-afeita.wav,,,,,,,,,223.7349,227.2053,0,1,2.8229,,0,5,5,5,1,,,,,,,,,,,,,,,,,,,,,,,,,,,,,,,,,,,,,,,,,,,,,,,,,,,,,,,,,,,,,,,,,,,,,,,
,,,,,,,,,66e32aaad05615cfd9fcbe48,Spanish,13 or older,"no, only English or Spanish",no,2025-07-23_08h32.06.819,empathy_intonation_perc,2024.2.4,Win32,20.04008016,66e32aaad05615cfd9fcbe48,687ed1b7e638a4cbf2f02089,6880d606c649c59c620f5b6e,,,,,,,,,,,,,,1,,./stim/wavs/mexican_question_filler_Felipe-no-tiene-contrasena.wav,,,,,,,,,227.2057,245.6815,1,1,17.8496,,0,6,6,3,1,,,,,,,,,,,,,,,,,,,,,,,,,,,,,,,,,,,,,,,,,,,,,,,,,,,,,,,,,,,,,,,,,,,,,,,
,,,,,,,,,66e32aaad05615cfd9fcbe48,Spanish,13 or older,"no, only English or Spanish",no,2025-07-23_08h32.06.819,empathy_intonation_perc,2024.2.4,Win32,20.04008016,66e32aaad05615cfd9fcbe48,687ed1b7e638a4cbf2f02089,6880d606c649c59c620f5b6e,,,,,,,,,,,,,,0,,./stim/wavs/peruvian_statement_filler_El-nino-habla-con-su-madre.wav,,,,,,,,,245.6819,249.7669,0,1,3.3852,,0,7,7,6,1,,,,,,,,,,,,,,,,,,,,,,,,,,,,,,,,,,,,,,,,,,,,,,,,,,,,,,,,,,,,,,,,,,,,,,,
,,,,,,,,,66e32aaad05615cfd9fcbe48,Spanish,13 or older,"no, only English or Spanish",no,2025-07-23_08h32.06.819,empathy_intonation_perc,2024.2.4,Win32,20.04008016,66e32aaad05615cfd9fcbe48,687ed1b7e638a4cbf2f02089,6880d606c649c59c620f5b6e,,,,,,,,,,,,,,,,,,,,,,,,,,,,,,,,,,,,249.7672,254.8881,,,,,,,,,,,,,,,,,,,,,,,,,,,,,,,,,,,,,,,,,,,,,,,,,,,,,,,,,,,,,,,,,,,,,
,,,,,,,,,66e32aaad05615cfd9fcbe48,Spanish,13 or older,"no, only English or Spanish",no,2025-07-23_08h32.06.819,empathy_intonation_perc,2024.2.4,Win32,20.04008016,66e32aaad05615cfd9fcbe48,687ed1b7e638a4cbf2f02089,6880d606c649c59c620f5b6e,,,,,,,,,,,,,66,0,,./stim/wavs/puertorican_match_declarative-broad-focus_Emilio-ama-la-marcha.wav,,,,,,,,,,,,,,,,,,,,,,254.896,257.4912,0,1,1.9613,,0,0,0,65,1,0,puertorican,,,,,,,,,,,,,,,,,,,,,,,,,,,,,,,,,,,,,,,,,,,,,,,,,,,,,,,,
,,,,,,,,,66e32aaad05615cfd9fcbe48,Spanish,13 or older,"no, only English or Spanish",no,2025-07-23_08h32.06.819,empathy_intonation_perc,2024.2.4,Win32,20.04008016,66e32aaad05615cfd9fcbe48,687ed1b7e638a4cbf2f02089,6880d606c649c59c620f5b6e,,,,,,,,,,,,,46,0,,./stim/wavs/castilian_match_declarative-broad-focus_Emilio-ama-la-marcha.wav,,,,,,,,,,,,,,,,,,,,,,257.4916,260.189,0,1,2.0701,0.0001,0,1,1,45,1,0,castilian,,,,,,,,,,,,,,,,,,,,,,,,,,,,,,,,,,,,,,,,,,,,,,,,,,,,,,,,
,,,,,,,,,66e32aaad05615cfd9fcbe48,Spanish,13 or older,"no, only English or Spanish",no,2025-07-23_08h32.06.819,empathy_intonation_perc,2024.2.4,Win32,20.04008016,66e32aaad05615cfd9fcbe48,687ed1b7e638a4cbf2f02089,6880d606c649c59c620f5b6e,,,,,,,,,,,,,17,1,,./stim/wavs/mexican_match_interrogative-total-yn_Mariano-habla-del-tiempo.wav,,,,,,,,,,,,,,,,,,,,,,260.1892,262.6601,1,1,1.8142,,0,2,2,16,1,0,mexican,,,,,,,,,,,,,,,,,,,,,,,,,,,,,,,,,,,,,,,,,,,,,,,,,,,,,,,,
,,,,,,,,,66e32aaad05615cfd9fcbe48,Spanish,13 or older,"no, only English or Spanish",no,2025-07-23_08h32.06.819,empathy_intonation_perc,2024.2.4,Win32,20.04008016,66e32aaad05615cfd9fcbe48,687ed1b7e638a4cbf2f02089,6880d606c649c59c620f5b6e,,,,,,,,,,,,,60,0,,./stim/wavs/mexican_match_declarative-broad-focus_Emilio-ama-la-marcha.wav,,,,,,,,,,,,,,,,,,,,,,262.6604,265.2498,0,1,1.9535,,0,3,3,59,1,0,mexican,,,,,,,,,,,,,,,,,,,,,,,,,,,,,,,,,,,,,,,,,,,,,,,,,,,,,,,,
,,,,,,,,,66e32aaad05615cfd9fcbe48,Spanish,13 or older,"no, only English or Spanish",no,2025-07-23_08h32.06.819,empathy_intonation_perc,2024.2.4,Win32,20.04008016,66e32aaad05615cfd9fcbe48,687ed1b7e638a4cbf2f02089,6880d606c649c59c620f5b6e,,,,,,,,,,,,,24,1,,./stim/wavs/puertorican_match_interrogative-total-yn_Maria-bebe-el-vino.wav,,,,,,,,,,,,,,,,,,,,,,265.2502,267.9509,0,0,2.0682,,0,4,4,23,1,1,puertorican,,,,,,,,,,,,,,,,,,,,,,,,,,,,,,,,,,,,,,,,,,,,,,,,,,,,,,,,
,,,,,,,,,66e32aaad05615cfd9fcbe48,Spanish,13 or older,"no, only English or Spanish",no,2025-07-23_08h32.06.819,empathy_intonation_perc,2024.2.4,Win32,20.04008016,66e32aaad05615cfd9fcbe48,687ed1b7e638a4cbf2f02089,6880d606c649c59c620f5b6e,,,,,,,,,,,,,16,1,,./stim/wavs/mexican_match_interrogative-total-yn_Emilio-ama-la-marcha.wav,,,,,,,,,,,,,,,,,,,,,,267.9513,270.1938,1,1,1.5574,,0,5,5,15,1,0,mexican,,,,,,,,,,,,,,,,,,,,,,,,,,,,,,,,,,,,,,,,,,,,,,,,,,,,,,,,
,,,,,,,,,66e32aaad05615cfd9fcbe48,Spanish,13 or older,"no, only English or Spanish",no,2025-07-23_08h32.06.819,empathy_intonation_perc,2024.2.4,Win32,20.04008016,66e32aaad05615cfd9fcbe48,687ed1b7e638a4cbf2f02089,6880d606c649c59c620f5b6e,,,,,,,,,,,,,38,1,,./stim/wavs/mexican_mismatch_interrogative-total-yn_Mi-novio-viene-del-lago.wav,,,,,,,,,,,,,,,,,,,,,,270.1942,272.5012,1,1,1.5932,,0,6,6,37,1,0,mexican,,,,,,,,,,,,,,,,,,,,,,,,,,,,,,,,,,,,,,,,,,,,,,,,,,,,,,,,
,,,,,,,,,66e32aaad05615cfd9fcbe48,Spanish,13 or older,"no, only English or Spanish",no,2025-07-23_08h32.06.819,empathy_intonation_perc,2024.2.4,Win32,20.04008016,66e32aaad05615cfd9fcbe48,687ed1b7e638a4cbf2f02089,6880d606c649c59c620f5b6e,,,,,,,,,,,,,21,1,,./stim/wavs/puertorican_match_interrogative-total-yn_David-leia-el-libro.wav,,,,,,,,,,,,,,,,,,,,,,272.5016,274.7137,0,0,1.5772,,0,7,7,20,1,1,puertorican,,,,,,,,,,,,,,,,,,,,,,,,,,,,,,,,,,,,,,,,,,,,,,,,,,,,,,,,
,,,,,,,,,66e32aaad05615cfd9fcbe48,Spanish,13 or older,"no, only English or Spanish",no,2025-07-23_08h32.06.819,empathy_intonation_perc,2024.2.4,Win32,20.04008016,66e32aaad05615cfd9fcbe48,687ed1b7e638a4cbf2f02089,6880d606c649c59c620f5b6e,,,,,,,,,,,,,45,0,,./stim/wavs/castilian_match_declarative-broad-focus_David-leia-el-libro.wav,,,,,,,,,,,,,,,,,,,,,,274.7141,277.3001,0,1,1.9412,,0,8,8,44,1,0,castilian,,,,,,,,,,,,,,,,,,,,,,,,,,,,,,,,,,,,,,,,,,,,,,,,,,,,,,,,
,,,,,,,,,66e32aaad05615cfd9fcbe48,Spanish,13 or older,"no, only English or Spanish",no,2025-07-23_08h32.06.819,empathy_intonation_perc,2024.2.4,Win32,20.04008016,66e32aaad05615cfd9fcbe48,687ed1b7e638a4cbf2f02089,6880d606c649c59c620f5b6e,,,,,,,,,,,,,55,0,,./stim/wavs/cuban_match_declarative-broad-focus_Mariano-habla-del-tiempo.wav,,,,,,,,,,,,,,,,,,,,,,277.3006,280.0576,0,1,2.0826,,0,9,9,54,1,0,cuban,,,,,,,,,,,,,,,,,,,,,,,,,,,,,,,,,,,,,,,,,,,,,,,,,,,,,,,,
,,,,,,,,,66e32aaad05615cfd9fcbe48,Spanish,13 or older,"no, only English or Spanish",no,2025-07-23_08h32.06.819,empathy_intonation_perc,2024.2.4,Win32,20.04008016,66e32aaad05615cfd9fcbe48,687ed1b7e638a4cbf2f02089,6880d606c649c59c620f5b6e,,,,,,,,,,,,,33,1,,./stim/wavs/cuban_mismatch_interrogative-total-yn_Mi-novio-viene-del-lago.wav,,,,,,,,,,,,,,,,,,,,,,280.0581,282.5457,0,0,1.8444,,0,10,10,32,1,1,cuban,,,,,,,,,,,,,,,,,,,,,,,,,,,,,,,,,,,,,,,,,,,,,,,,,,,,,,,,
,,,,,,,,,66e32aaad05615cfd9fcbe48,Spanish,13 or older,"no, only English or Spanish",no,2025-07-23_08h32.06.819,empathy_intonation_perc,2024.2.4,Win32,20.04008016,66e32aaad05615cfd9fcbe48,687ed1b7e638a4cbf2f02089,6880d606c649c59c620f5b6e,,,,,,,,,,,,,61,0,,./stim/wavs/mexican_match_declarative-broad-focus_Mariano-habla-del-tiempo.wav,,,,,,,,,,,,,,,,,,,,,,282.5461,285.0122,0,1,1.8408,,0,11,11,60,1,0,mexican,,,,,,,,,,,,,,,,,,,,,,,,,,,,,,,,,,,,,,,,,,,,,,,,,,,,,,,,
,,,,,,,,,66e32aaad05615cfd9fcbe48,Spanish,13 or older,"no, only English or Spanish",no,2025-07-23_08h32.06.819,empathy_intonation_perc,2024.2.4,Win32,20.04008016,66e32aaad05615cfd9fcbe48,687ed1b7e638a4cbf2f02089,6880d606c649c59c620f5b6e,,,,,,,,,,,,,41,1,,./stim/wavs/puertorican_mismatch_interrogative-total-yn_El-nino-oye-el-rio.wav,,,,,,,,,,,,,,,,,,,,,,285.0126,287.5847,0,0,1.9364,,0,12,12,40,1,1,puertorican,,,,,,,,,,,,,,,,,,,,,,,,,,,,,,,,,,,,,,,,,,,,,,,,,,,,,,,,
,,,,,,,,,66e32aaad05615cfd9fcbe48,Spanish,13 or older,"no, only English or Spanish",no,2025-07-23_08h32.06.819,empathy_intonation_perc,2024.2.4,Win32,20.04008016,66e32aaad05615cfd9fcbe48,687ed1b7e638a4cbf2f02089,6880d606c649c59c620f5b6e,,,,,,,,,,,,,7,1,,./stim/wavs/cuban_match_interrogative-total-yn_Ana-lleva-el-abrigo.wav,,,,,,,,,,,,,,,,,,,,,,287.585,289.9668,0,0,1.7432,,0,13,13,6,1,1,cuban,,,,,,,,,,,,,,,,,,,,,,,,,,,,,,,,,,,,,,,,,,,,,,,,,,,,,,,,
,,,,,,,,,66e32aaad05615cfd9fcbe48,Spanish,13 or older,"no, only English or Spanish",no,2025-07-23_08h32.06.819,empathy_intonation_perc,2024.2.4,Win32,20.04008016,66e32aaad05615cfd9fcbe48,687ed1b7e638a4cbf2f02089,6880d606c649c59c620f5b6e,,,,,,,,,,,,,32,1,,./stim/wavs/cuban_mismatch_interrogative-total-yn_Mi-madre-come-la-fruta.wav,,,,,,,,,,,,,,,,,,,,,,289.9673,292.5402,0,0,1.9411,,0,14,14,31,1,1,cuban,,,,,,,,,,,,,,,,,,,,,,,,,,,,,,,,,,,,,,,,,,,,,,,,,,,,,,,,
,,,,,,,,,66e32aaad05615cfd9fcbe48,Spanish,13 or older,"no, only English or Spanish",no,2025-07-23_08h32.06.819,empathy_intonation_perc,2024.2.4,Win32,20.04008016,66e32aaad05615cfd9fcbe48,687ed1b7e638a4cbf2f02089,6880d606c649c59c620f5b6e,,,,,,,,,,,,,75,0,,./stim/wavs/cuban_mismatch_declarative-broad-focus_El-hombre-mira-la-luna.wav,,,,,,,,,,,,,,,,,,,,,,292.5407,295.0043,0,1,1.8399,,0,15,15,74,1,0,cuban,,,,,,,,,,,,,,,,,,,,,,,,,,,,,,,,,,,,,,,,,,,,,,,,,,,,,,,,
,,,,,,,,,66e32aaad05615cfd9fcbe48,Spanish,13 or older,"no, only English or Spanish",no,2025-07-23_08h32.06.819,empathy_intonation_perc,2024.2.4,Win32,20.04008016,66e32aaad05615cfd9fcbe48,687ed1b7e638a4cbf2f02089,6880d606c649c59c620f5b6e,,,,,,,,,,,,,87,0,,./stim/wavs/puertorican_mismatch_declarative-broad-focus_La-maestra-vive-en-Paris.wav,,,,,,,,,,,,,,,,,,,,,,295.0046,297.8292,0,1,2.1872,,0,16,16,86,1,0,puertorican,,,,,,,,,,,,,,,,,,,,,,,,,,,,,,,,,,,,,,,,,,,,,,,,,,,,,,,,
,,,,,,,,,66e32aaad05615cfd9fcbe48,Spanish,13 or older,"no, only English or Spanish",no,2025-07-23_08h32.06.819,empathy_intonation_perc,2024.2.4,Win32,20.04008016,66e32aaad05615cfd9fcbe48,687ed1b7e638a4cbf2f02089,6880d606c649c59c620f5b6e,,,,,,,,,,,,,77,0,,./stim/wavs/cuban_mismatch_declarative-broad-focus_Mi-novio-viene-del-lago.wav,,,,,,,,,,,,,,,,,,,,,,297.8296,300.6773,0,1,2.1941,,0,17,17,76,1,0,cuban,,,,,,,,,,,,,,,,,,,,,,,,,,,,,,,,,,,,,,,,,,,,,,,,,,,,,,,,
,,,,,,,,,66e32aaad05615cfd9fcbe48,Spanish,13 or older,"no, only English or Spanish",no,2025-07-23_08h32.06.819,empathy_intonation_perc,2024.2.4,Win32,20.04008016,66e32aaad05615cfd9fcbe48,687ed1b7e638a4cbf2f02089,6880d606c649c59c620f5b6e,,,,,,,,,,,,,12,1,,./stim/wavs/cuban_match_interrogative-total-yn_Marta-abre-el-regalo.wav,,,,,,,,,,,,,,,,,,,,,,300.6777,304.0235,1,1,2.7112,0.0002,0,18,18,11,1,1,cuban,,,,,,,,,,,,,,,,,,,,,,,,,,,,,,,,,,,,,,,,,,,,,,,,,,,,,,,,
,,,,,,,,,66e32aaad05615cfd9fcbe48,Spanish,13 or older,"no, only English or Spanish",no,2025-07-23_08h32.06.819,empathy_intonation_perc,2024.2.4,Win32,20.04008016,66e32aaad05615cfd9fcbe48,687ed1b7e638a4cbf2f02089,6880d606c649c59c620f5b6e,,,,,,,,,,,,,71,0,,./stim/wavs/castilian_mismatch_declarative-broad-focus_La-nina-lava-el-plato.wav,,,,,,,,,,,,,,,,,,,,,,304.0238,306.887,0,1,2.2324,,0,19,19,70,1,0,castilian,,,,,,,,,,,,,,,,,,,,,,,,,,,,,,,,,,,,,,,,,,,,,,,,,,,,,,,,
,,,,,,,,,66e32aaad05615cfd9fcbe48,Spanish,13 or older,"no, only English or Spanish",no,2025-07-23_08h32.06.819,empathy_intonation_perc,2024.2.4,Win32,20.04008016,66e32aaad05615cfd9fcbe48,687ed1b7e638a4cbf2f02089,6880d606c649c59c620f5b6e,,,,,,,,,,,,,39,1,,./stim/wavs/mexican_mismatch_interrogative-total-yn_Mi-tia-odia-la-lluvia.wav,,,,,,,,,,,,,,,,,,,,,,306.8875,309.2254,1,1,1.6916,,0,20,20,38,1,0,mexican,,,,,,,,,,,,,,,,,,,,,,,,,,,,,,,,,,,,,,,,,,,,,,,,,,,,,,,,
,,,,,,,,,66e32aaad05615cfd9fcbe48,Spanish,13 or older,"no, only English or Spanish",no,2025-07-23_08h32.06.819,empathy_intonation_perc,2024.2.4,Win32,20.04008016,66e32aaad05615cfd9fcbe48,687ed1b7e638a4cbf2f02089,6880d606c649c59c620f5b6e,,,,,,,,,,,,,58,0,,./stim/wavs/mexican_match_declarative-broad-focus_Daniel-iba-a-Bolivia.wav,,,,,,,,,,,,,,,,,,,,,,309.2258,311.8199,0,1,1.9589,,0,21,21,57,1,0,mexican,,,,,,,,,,,,,,,,,,,,,,,,,,,,,,,,,,,,,,,,,,,,,,,,,,,,,,,,
,,,,,,,,,66e32aaad05615cfd9fcbe48,Spanish,13 or older,"no, only English or Spanish",no,2025-07-23_08h32.06.819,empathy_intonation_perc,2024.2.4,Win32,20.04008016,66e32aaad05615cfd9fcbe48,687ed1b7e638a4cbf2f02089,6880d606c649c59c620f5b6e,,,,,,,,,,,,,57,0,,./stim/wavs/mexican_match_declarative-broad-focus_Ana-lleva-el-abrigo.wav,,,,,,,,,,,,,,,,,,,,,,311.8203,314.3304,0,1,1.8464,,0,22,22,56,1,0,mexican,,,,,,,,,,,,,,,,,,,,,,,,,,,,,,,,,,,,,,,,,,,,,,,,,,,,,,,,
,,,,,,,,,66e32aaad05615cfd9fcbe48,Spanish,13 or older,"no, only English or Spanish",no,2025-07-23_08h32.06.819,empathy_intonation_perc,2024.2.4,Win32,20.04008016,66e32aaad05615cfd9fcbe48,687ed1b7e638a4cbf2f02089,6880d606c649c59c620f5b6e,,,,,,,,,,,,,40,1,,./stim/wavs/puertorican_mismatch_interrogative-total-yn_El-hombre-mira-la-luna.wav,,,,,,,,,,,,,,,,,,,,,,314.3307,316.6381,1,1,1.6791,,0,23,23,39,1,1,puertorican,,,,,,,,,,,,,,,,,,,,,,,,,,,,,,,,,,,,,,,,,,,,,,,,,,,,,,,,
,,,,,,,,,66e32aaad05615cfd9fcbe48,Spanish,13 or older,"no, only English or Spanish",no,2025-07-23_08h32.06.819,empathy_intonation_perc,2024.2.4,Win32,20.04008016,66e32aaad05615cfd9fcbe48,687ed1b7e638a4cbf2f02089,6880d606c649c59c620f5b6e,,,,,,,,,,,,,44,1,,./stim/wavs/puertorican_mismatch_interrogative-total-yn_Mi-madre-come-la-fruta.wav,,,,,,,,,,,,,,,,,,,,,,316.6385,319.1997,0,0,1.9308,,0,24,24,43,1,1,puertorican,,,,,,,,,,,,,,,,,,,,,,,,,,,,,,,,,,,,,,,,,,,,,,,,,,,,,,,,
,,,,,,,,,66e32aaad05615cfd9fcbe48,Spanish,13 or older,"no, only English or Spanish",no,2025-07-23_08h32.06.819,empathy_intonation_perc,2024.2.4,Win32,20.04008016,66e32aaad05615cfd9fcbe48,687ed1b7e638a4cbf2f02089,6880d606c649c59c620f5b6e,,,,,,,,,,,,,18,1,,./stim/wavs/mexican_match_interrogative-total-yn_Marta-abre-el-regalo.wav,,,,,,,,,,,,,,,,,,,,,,319.2,321.3916,1,1,1.5533,,0,25,25,17,1,0,mexican,,,,,,,,,,,,,,,,,,,,,,,,,,,,,,,,,,,,,,,,,,,,,,,,,,,,,,,,
,,,,,,,,,66e32aaad05615cfd9fcbe48,Spanish,13 or older,"no, only English or Spanish",no,2025-07-23_08h32.06.819,empathy_intonation_perc,2024.2.4,Win32,20.04008016,66e32aaad05615cfd9fcbe48,687ed1b7e638a4cbf2f02089,6880d606c649c59c620f5b6e,,,,,,,,,,,,,85,0,,./stim/wavs/puertorican_mismatch_declarative-broad-focus_El-hombre-mira-la-luna.wav,,,,,,,,,,,,,,,,,,,,,,321.3919,323.6892,0,1,1.6774,,0,26,26,84,1,0,puertorican,,,,,,,,,,,,,,,,,,,,,,,,,,,,,,,,,,,,,,,,,,,,,,,,,,,,,,,,
,,,,,,,,,66e32aaad05615cfd9fcbe48,Spanish,13 or older,"no, only English or Spanish",no,2025-07-23_08h32.06.819,empathy_intonation_perc,2024.2.4,Win32,20.04008016,66e32aaad05615cfd9fcbe48,687ed1b7e638a4cbf2f02089,6880d606c649c59c620f5b6e,,,,,,,,,,,,,23,1,,./stim/wavs/puertorican_match_interrogative-total-yn_Manuela-vende-el-carro.wav,,,,,,,,,,,,,,,,,,,,,,323.6896,326.7866,1,1,2.4605,,0,27,27,22,1,1,puertorican,,,,,,,,,,,,,,,,,,,,,,,,,,,,,,,,,,,,,,,,,,,,,,,,,,,,,,,,
,,,,,,,,,66e32aaad05615cfd9fcbe48,Spanish,13 or older,"no, only English or Spanish",no,2025-07-23_08h32.06.819,empathy_intonation_perc,2024.2.4,Win32,20.04008016,66e32aaad05615cfd9fcbe48,687ed1b7e638a4cbf2f02089,6880d606c649c59c620f5b6e,,,,,,,,,,,,,84,0,,./stim/wavs/puertorican_mismatch_declarative-broad-focus_El-bebe-comia-muy-bien.wav,,,,,,,,,,,,,,,,,,,,,,326.787,329.2305,0,1,1.8052,,0,28,28,83,1,0,puertorican,,,,,,,,,,,,,,,,,,,,,,,,,,,,,,,,,,,,,,,,,,,,,,,,,,,,,,,,
,,,,,,,,,66e32aaad05615cfd9fcbe48,Spanish,13 or older,"no, only English or Spanish",no,2025-07-23_08h32.06.819,empathy_intonation_perc,2024.2.4,Win32,20.04008016,66e32aaad05615cfd9fcbe48,687ed1b7e638a4cbf2f02089,6880d606c649c59c620f5b6e,,,,,,,,,,,,,15,1,,./stim/wavs/mexican_match_interrogative-total-yn_David-leia-el-libro.wav,,,,,,,,,,,,,,,,,,,,,,329.231,331.5475,1,1,1.6788,,0,29,29,14,1,0,mexican,,,,,,,,,,,,,,,,,,,,,,,,,,,,,,,,,,,,,,,,,,,,,,,,,,,,,,,,
,,,,,,,,,66e32aaad05615cfd9fcbe48,Spanish,13 or older,"no, only English or Spanish",no,2025-07-23_08h32.06.819,empathy_intonation_perc,2024.2.4,Win32,20.04008016,66e32aaad05615cfd9fcbe48,687ed1b7e638a4cbf2f02089,6880d606c649c59c620f5b6e,,,,,,,,,,,,,88,0,,./stim/wavs/puertorican_mismatch_declarative-broad-focus_La-nina-lava-el-plato.wav,,,,,,,,,,,,,,,,,,,,,,331.5479,333.7442,0,1,1.5639,,0,30,30,87,1,0,puertorican,,,,,,,,,,,,,,,,,,,,,,,,,,,,,,,,,,,,,,,,,,,,,,,,,,,,,,,,
,,,,,,,,,66e32aaad05615cfd9fcbe48,Spanish,13 or older,"no, only English or Spanish",no,2025-07-23_08h32.06.819,empathy_intonation_perc,2024.2.4,Win32,20.04008016,66e32aaad05615cfd9fcbe48,687ed1b7e638a4cbf2f02089,6880d606c649c59c620f5b6e,,,,,,,,,,,,,52,0,,./stim/wavs/cuban_match_declarative-broad-focus_Daniel-iba-a-Bolivia.wav,,,,,,,,,,,,,,,,,,,,,,333.7446,336.4473,0,1,2.0661,0.0002,0,31,31,51,1,0,cuban,,,,,,,,,,,,,,,,,,,,,,,,,,,,,,,,,,,,,,,,,,,,,,,,,,,,,,,,
,,,,,,,,,66e32aaad05615cfd9fcbe48,Spanish,13 or older,"no, only English or Spanish",no,2025-07-23_08h32.06.819,empathy_intonation_perc,2024.2.4,Win32,20.04008016,66e32aaad05615cfd9fcbe48,687ed1b7e638a4cbf2f02089,6880d606c649c59c620f5b6e,,,,,,,,,,,,,80,0,,./stim/wavs/mexican_mismatch_declarative-broad-focus_El-hombre-mira-la-luna.wav,,,,,,,,,,,,,,,,,,,,,,336.4477,338.882,0,1,1.811,,0,32,32,79,1,0,mexican,,,,,,,,,,,,,,,,,,,,,,,,,,,,,,,,,,,,,,,,,,,,,,,,,,,,,,,,
,,,,,,,,,66e32aaad05615cfd9fcbe48,Spanish,13 or older,"no, only English or Spanish",no,2025-07-23_08h32.06.819,empathy_intonation_perc,2024.2.4,Win32,20.04008016,66e32aaad05615cfd9fcbe48,687ed1b7e638a4cbf2f02089,6880d606c649c59c620f5b6e,,,,,,,,,,,,,1,1,,./stim/wavs/castilian_match_interrogative-total-yn_David-leia-el-libro.wav,,,,,,,,,,,,,,,,,,,,,,338.8824,341.3472,1,1,1.8345,,0,33,33,0,1,0,castilian,,,,,,,,,,,,,,,,,,,,,,,,,,,,,,,,,,,,,,,,,,,,,,,,,,,,,,,,
,,,,,,,,,66e32aaad05615cfd9fcbe48,Spanish,13 or older,"no, only English or Spanish",no,2025-07-23_08h32.06.819,empathy_intonation_perc,2024.2.4,Win32,20.04008016,66e32aaad05615cfd9fcbe48,687ed1b7e638a4cbf2f02089,6880d606c649c59c620f5b6e,,,,,,,,,,,,,81,0,,./stim/wavs/mexican_mismatch_declarative-broad-focus_La-maestra-vive-en-Paris.wav,,,,,,,,,,,,,,,,,,,,,,341.3477,343.6934,0,1,1.6899,,0,34,34,80,1,0,mexican,,,,,,,,,,,,,,,,,,,,,,,,,,,,,,,,,,,,,,,,,,,,,,,,,,,,,,,,
,,,,,,,,,66e32aaad05615cfd9fcbe48,Spanish,13 or older,"no, only English or Spanish",no,2025-07-23_08h32.06.819,empathy_intonation_perc,2024.2.4,Win32,20.04008016,66e32aaad05615cfd9fcbe48,687ed1b7e638a4cbf2f02089,6880d606c649c59c620f5b6e,,,,,,,,,,,,,25,1,,./stim/wavs/castilian_mismatch_interrogative-total-yn_La-maestra-vive-en-Paris.wav,,,,,,,,,,,,,,,,,,,,,,343.6937,346.4082,1,1,2.0711,,0,35,35,24,1,0,castilian,,,,,,,,,,,,,,,,,,,,,,,,,,,,,,,,,,,,,,,,,,,,,,,,,,,,,,,,
,,,,,,,,,66e32aaad05615cfd9fcbe48,Spanish,13 or older,"no, only English or Spanish",no,2025-07-23_08h32.06.819,empathy_intonation_perc,2024.2.4,Win32,20.04008016,66e32aaad05615cfd9fcbe48,687ed1b7e638a4cbf2f02089,6880d606c649c59c620f5b6e,,,,,,,,,,,,,86,0,,./stim/wavs/puertorican_mismatch_declarative-broad-focus_El-nino-oye-el-rio.wav,,,,,,,,,,,,,,,,,,,,,,346.4086,348.847,0,1,1.8137,,0,36,36,85,1,0,puertorican,,,,,,,,,,,,,,,,,,,,,,,,,,,,,,,,,,,,,,,,,,,,,,,,,,,,,,,,
,,,,,,,,,66e32aaad05615cfd9fcbe48,Spanish,13 or older,"no, only English or Spanish",no,2025-07-23_08h32.06.819,empathy_intonation_perc,2024.2.4,Win32,20.04008016,66e32aaad05615cfd9fcbe48,687ed1b7e638a4cbf2f02089,6880d606c649c59c620f5b6e,,,,,,,,,,,,,64,0,,./stim/wavs/puertorican_match_declarative-broad-focus_Daniel-iba-a-Bolivia.wav,,,,,,,,,,,,,,,,,,,,,,348.8475,351.2833,0,1,1.8041,,0,37,37,63,1,0,puertorican,,,,,,,,,,,,,,,,,,,,,,,,,,,,,,,,,,,,,,,,,,,,,,,,,,,,,,,,
,,,,,,,,,66e32aaad05615cfd9fcbe48,Spanish,13 or older,"no, only English or Spanish",no,2025-07-23_08h32.06.819,empathy_intonation_perc,2024.2.4,Win32,20.04008016,66e32aaad05615cfd9fcbe48,687ed1b7e638a4cbf2f02089,6880d606c649c59c620f5b6e,,,,,,,,,,,,,79,0,,./stim/wavs/mexican_mismatch_declarative-broad-focus_El-bebe-comia-muy-bien.wav,,,,,,,,,,,,,,,,,,,,,,351.2836,353.989,0,1,2.0722,,0,38,38,78,1,0,mexican,,,,,,,,,,,,,,,,,,,,,,,,,,,,,,,,,,,,,,,,,,,,,,,,,,,,,,,,
,,,,,,,,,66e32aaad05615cfd9fcbe48,Spanish,13 or older,"no, only English or Spanish",no,2025-07-23_08h32.06.819,empathy_intonation_perc,2024.2.4,Win32,20.04008016,66e32aaad05615cfd9fcbe48,687ed1b7e638a4cbf2f02089,6880d606c649c59c620f5b6e,,,,,,,,,,,,,82,0,,./stim/wavs/mexican_mismatch_declarative-broad-focus_Mi-novio-viene-del-lago.wav,,,,,,,,,,,,,,,,,,,,,,353.9894,356.435,0,1,1.8024,,0,39,39,81,1,0,mexican,,,,,,,,,,,,,,,,,,,,,,,,,,,,,,,,,,,,,,,,,,,,,,,,,,,,,,,,
,,,,,,,,,66e32aaad05615cfd9fcbe48,Spanish,13 or older,"no, only English or Spanish",no,2025-07-23_08h32.06.819,empathy_intonation_perc,2024.2.4,Win32,20.04008016,66e32aaad05615cfd9fcbe48,687ed1b7e638a4cbf2f02089,6880d606c649c59c620f5b6e,,,,,,,,,,,,,27,1,,./stim/wavs/castilian_mismatch_interrogative-total-yn_Mi-madre-come-la-fruta.wav,,,,,,,,,,,,,,,,,,,,,,356.4353,359.1402,1,1,2.0622,,0,40,40,26,1,0,castilian,,,,,,,,,,,,,,,,,,,,,,,,,,,,,,,,,,,,,,,,,,,,,,,,,,,,,,,,
,,,,,,,,,66e32aaad05615cfd9fcbe48,Spanish,13 or older,"no, only English or Spanish",no,2025-07-23_08h32.06.819,empathy_intonation_perc,2024.2.4,Win32,20.04008016,66e32aaad05615cfd9fcbe48,687ed1b7e638a4cbf2f02089,6880d606c649c59c620f5b6e,,,,,,,,,,,,,8,1,,./stim/wavs/cuban_match_interrogative-total-yn_Daniel-iba-a-Bolivia.wav,,,,,,,,,,,,,,,,,,,,,,359.1405,361.59,0,0,1.8177,,0,41,41,7,1,1,cuban,,,,,,,,,,,,,,,,,,,,,,,,,,,,,,,,,,,,,,,,,,,,,,,,,,,,,,,,
,,,,,,,,,66e32aaad05615cfd9fcbe48,Spanish,13 or older,"no, only English or Spanish",no,2025-07-23_08h32.06.819,empathy_intonation_perc,2024.2.4,Win32,20.04008016,66e32aaad05615cfd9fcbe48,687ed1b7e638a4cbf2f02089,6880d606c649c59c620f5b6e,,,,,,,,,,,,,5,1,,./stim/wavs/castilian_match_interrogative-total-yn_Mariano-habla-del-tiempo.wav,,,,,,,,,,,,,,,,,,,,,,361.5903,364.2749,1,1,1.9345,,0,42,42,4,1,0,castilian,,,,,,,,,,,,,,,,,,,,,,,,,,,,,,,,,,,,,,,,,,,,,,,,,,,,,,,,
,,,,,,,,,66e32aaad05615cfd9fcbe48,Spanish,13 or older,"no, only English or Spanish",no,2025-07-23_08h32.06.819,empathy_intonation_perc,2024.2.4,Win32,20.04008016,66e32aaad05615cfd9fcbe48,687ed1b7e638a4cbf2f02089,6880d606c649c59c620f5b6e,,,,,,,,,,,,,68,0,,./stim/wavs/puertorican_match_declarative-broad-focus_Maria-bebe-el-vino.wav,,,,,,,,,,,,,,,,,,,,,,364.2752,366.6051,0,1,1.6938,9.99999E-05,0,43,43,67,1,0,puertorican,,,,,,,,,,,,,,,,,,,,,,,,,,,,,,,,,,,,,,,,,,,,,,,,,,,,,,,,
,,,,,,,,,66e32aaad05615cfd9fcbe48,Spanish,13 or older,"no, only English or Spanish",no,2025-07-23_08h32.06.819,empathy_intonation_perc,2024.2.4,Win32,20.04008016,66e32aaad05615cfd9fcbe48,687ed1b7e638a4cbf2f02089,6880d606c649c59c620f5b6e,,,,,,,,,,,,,37,1,,./stim/wavs/mexican_mismatch_interrogative-total-yn_La-maestra-vive-en-Paris.wav,,,,,,,,,,,,,,,,,,,,,,366.6055,369.0438,1,1,1.8148,,0,44,44,36,1,0,mexican,,,,,,,,,,,,,,,,,,,,,,,,,,,,,,,,,,,,,,,,,,,,,,,,,,,,,,,,
,,,,,,,,,66e32aaad05615cfd9fcbe48,Spanish,13 or older,"no, only English or Spanish",no,2025-07-23_08h32.06.819,empathy_intonation_perc,2024.2.4,Win32,20.04008016,66e32aaad05615cfd9fcbe48,687ed1b7e638a4cbf2f02089,6880d606c649c59c620f5b6e,,,,,,,,,,,,,49,0,,./stim/wavs/castilian_match_declarative-broad-focus_Mariano-habla-del-tiempo.wav,,,,,,,,,,,,,,,,,,,,,,369.0442,371.7568,0,1,2.0682,,0,45,45,48,1,0,castilian,,,,,,,,,,,,,,,,,,,,,,,,,,,,,,,,,,,,,,,,,,,,,,,,,,,,,,,,
,,,,,,,,,66e32aaad05615cfd9fcbe48,Spanish,13 or older,"no, only English or Spanish",no,2025-07-23_08h32.06.819,empathy_intonation_perc,2024.2.4,Win32,20.04008016,66e32aaad05615cfd9fcbe48,687ed1b7e638a4cbf2f02089,6880d606c649c59c620f5b6e,,,,,,,,,,,,,70,0,,./stim/wavs/castilian_mismatch_declarative-broad-focus_La-maestra-vive-en-Paris.wav,,,,,,,,,,,,,,,,,,,,,,371.7571,374.5267,0,1,2.1143,,0,46,46,69,1,0,castilian,,,,,,,,,,,,,,,,,,,,,,,,,,,,,,,,,,,,,,,,,,,,,,,,,,,,,,,,
,,,,,,,,,66e32aaad05615cfd9fcbe48,Spanish,13 or older,"no, only English or Spanish",no,2025-07-23_08h32.06.819,empathy_intonation_perc,2024.2.4,Win32,20.04008016,66e32aaad05615cfd9fcbe48,687ed1b7e638a4cbf2f02089,6880d606c649c59c620f5b6e,,,,,,,,,,,,,29,1,,./stim/wavs/castilian_mismatch_interrogative-total-yn_Mi-tia-odia-la-lluvia.wav,,,,,,,,,,,,,,,,,,,,,,374.5271,376.9656,1,1,1.7971,,0,47,47,28,1,0,castilian,,,,,,,,,,,,,,,,,,,,,,,,,,,,,,,,,,,,,,,,,,,,,,,,,,,,,,,,
,,,,,,,,,66e32aaad05615cfd9fcbe48,Spanish,13 or older,"no, only English or Spanish",no,2025-07-23_08h32.06.819,empathy_intonation_perc,2024.2.4,Win32,20.04008016,66e32aaad05615cfd9fcbe48,687ed1b7e638a4cbf2f02089,6880d606c649c59c620f5b6e,,,,,,,,,,,,,83,0,,./stim/wavs/mexican_mismatch_declarative-broad-focus_Mi-tia-odia-la-lluvia.wav,,,,,,,,,,,,,,,,,,,,,,376.966,379.4025,0,1,1.7992,0.0001,0,48,48,82,1,0,mexican,,,,,,,,,,,,,,,,,,,,,,,,,,,,,,,,,,,,,,,,,,,,,,,,,,,,,,,,
,,,,,,,,,66e32aaad05615cfd9fcbe48,Spanish,13 or older,"no, only English or Spanish",no,2025-07-23_08h32.06.819,empathy_intonation_perc,2024.2.4,Win32,20.04008016,66e32aaad05615cfd9fcbe48,687ed1b7e638a4cbf2f02089,6880d606c649c59c620f5b6e,,,,,,,,,,,,,26,1,,./stim/wavs/castilian_mismatch_interrogative-total-yn_La-nina-lava-el-plato.wav,,,,,,,,,,,,,,,,,,,,,,379.4028,381.8262,1,1,1.8034,,0,49,49,25,1,0,castilian,,,,,,,,,,,,,,,,,,,,,,,,,,,,,,,,,,,,,,,,,,,,,,,,,,,,,,,,
,,,,,,,,,66e32aaad05615cfd9fcbe48,Spanish,13 or older,"no, only English or Spanish",no,2025-07-23_08h32.06.819,empathy_intonation_perc,2024.2.4,Win32,20.04008016,66e32aaad05615cfd9fcbe48,687ed1b7e638a4cbf2f02089,6880d606c649c59c620f5b6e,,,,,,,,,,,,,74,0,,./stim/wavs/cuban_mismatch_declarative-broad-focus_El-bebe-comia-muy-bien.wav,,,,,,,,,,,,,,,,,,,,,,381.8268,384.1302,0,1,1.5537,,0,50,50,73,1,0,cuban,,,,,,,,,,,,,,,,,,,,,,,,,,,,,,,,,,,,,,,,,,,,,,,,,,,,,,,,
,,,,,,,,,66e32aaad05615cfd9fcbe48,Spanish,13 or older,"no, only English or Spanish",no,2025-07-23_08h32.06.819,empathy_intonation_perc,2024.2.4,Win32,20.04008016,66e32aaad05615cfd9fcbe48,687ed1b7e638a4cbf2f02089,6880d606c649c59c620f5b6e,,,,,,,,,,,,,34,1,,./stim/wavs/cuban_mismatch_interrogative-total-yn_Mi-tia-odia-la-lluvia.wav,,,,,,,,,,,,,,,,,,,,,,384.1305,386.584,0,0,1.8215,9.99999E-05,0,51,51,33,1,1,cuban,,,,,,,,,,,,,,,,,,,,,,,,,,,,,,,,,,,,,,,,,,,,,,,,,,,,,,,,
,,,,,,,,,66e32aaad05615cfd9fcbe48,Spanish,13 or older,"no, only English or Spanish",no,2025-07-23_08h32.06.819,empathy_intonation_perc,2024.2.4,Win32,20.04008016,66e32aaad05615cfd9fcbe48,687ed1b7e638a4cbf2f02089,6880d606c649c59c620f5b6e,,,,,,,,,,,,,20,1,,./stim/wavs/puertorican_match_interrogative-total-yn_Daniel-iba-a-Bolivia.wav,,,,,,,,,,,,,,,,,,,,,,386.5844,389.0083,0,0,1.8007,,0,52,52,19,1,1,puertorican,,,,,,,,,,,,,,,,,,,,,,,,,,,,,,,,,,,,,,,,,,,,,,,,,,,,,,,,
,,,,,,,,,66e32aaad05615cfd9fcbe48,Spanish,13 or older,"no, only English or Spanish",no,2025-07-23_08h32.06.819,empathy_intonation_perc,2024.2.4,Win32,20.04008016,66e32aaad05615cfd9fcbe48,687ed1b7e638a4cbf2f02089,6880d606c649c59c620f5b6e,,,,,,,,,,,,,9,1,,./stim/wavs/cuban_match_interrogative-total-yn_Manuela-vende-el-carro.wav,,,,,,,,,,,,,,,,,,,,,,389.0087,391.4903,0,0,1.8168,,0,53,53,8,1,1,cuban,,,,,,,,,,,,,,,,,,,,,,,,,,,,,,,,,,,,,,,,,,,,,,,,,,,,,,,,
,,,,,,,,,66e32aaad05615cfd9fcbe48,Spanish,13 or older,"no, only English or Spanish",no,2025-07-23_08h32.06.819,empathy_intonation_perc,2024.2.4,Win32,20.04008016,66e32aaad05615cfd9fcbe48,687ed1b7e638a4cbf2f02089,6880d606c649c59c620f5b6e,,,,,,,,,,,,,67,0,,./stim/wavs/puertorican_match_declarative-broad-focus_Manuela-vende-el-carro.wav,,,,,,,,,,,,,,,,,,,,,,391.4907,393.7995,0,1,1.6814,,0,54,54,66,1,0,puertorican,,,,,,,,,,,,,,,,,,,,,,,,,,,,,,,,,,,,,,,,,,,,,,,,,,,,,,,,
,,,,,,,,,66e32aaad05615cfd9fcbe48,Spanish,13 or older,"no, only English or Spanish",no,2025-07-23_08h32.06.819,empathy_intonation_perc,2024.2.4,Win32,20.04008016,66e32aaad05615cfd9fcbe48,687ed1b7e638a4cbf2f02089,6880d606c649c59c620f5b6e,,,,,,,,,,,,,35,1,,./stim/wavs/mexican_mismatch_interrogative-total-yn_El-hombre-mira-la-luna.wav,,,,,,,,,,,,,,,,,,,,,,393.7998,396.7532,1,1,2.3048,,0,55,55,34,1,0,mexican,,,,,,,,,,,,,,,,,,,,,,,,,,,,,,,,,,,,,,,,,,,,,,,,,,,,,,,,
,,,,,,,,,66e32aaad05615cfd9fcbe48,Spanish,13 or older,"no, only English or Spanish",no,2025-07-23_08h32.06.819,empathy_intonation_perc,2024.2.4,Win32,20.04008016,66e32aaad05615cfd9fcbe48,687ed1b7e638a4cbf2f02089,6880d606c649c59c620f5b6e,,,,,,,,,,,,,4,1,,./stim/wavs/castilian_match_interrogative-total-yn_Maria-bebe-el-vino.wav,,,,,,,,,,,,,,,,,,,,,,396.7535,398.9349,1,1,1.5493,,0,56,56,3,1,0,castilian,,,,,,,,,,,,,,,,,,,,,,,,,,,,,,,,,,,,,,,,,,,,,,,,,,,,,,,,
,,,,,,,,,66e32aaad05615cfd9fcbe48,Spanish,13 or older,"no, only English or Spanish",no,2025-07-23_08h32.06.819,empathy_intonation_perc,2024.2.4,Win32,20.04008016,66e32aaad05615cfd9fcbe48,687ed1b7e638a4cbf2f02089,6880d606c649c59c620f5b6e,,,,,,,,,,,,,36,1,,./stim/wavs/mexican_mismatch_interrogative-total-yn_El-nino-oye-el-rio.wav,,,,,,,,,,,,,,,,,,,,,,398.9353,401.3813,0,0,1.8061,,0,57,57,35,1,0,mexican,,,,,,,,,,,,,,,,,,,,,,,,,,,,,,,,,,,,,,,,,,,,,,,,,,,,,,,,
,,,,,,,,,66e32aaad05615cfd9fcbe48,Spanish,13 or older,"no, only English or Spanish",no,2025-07-23_08h32.06.819,empathy_intonation_perc,2024.2.4,Win32,20.04008016,66e32aaad05615cfd9fcbe48,687ed1b7e638a4cbf2f02089,6880d606c649c59c620f5b6e,,,,,,,,,,,,,54,0,,./stim/wavs/cuban_match_declarative-broad-focus_Maria-bebe-el-vino.wav,,,,,,,,,,,,,,,,,,,,,,401.3816,403.6966,0,1,1.6851,,0,58,58,53,1,0,cuban,,,,,,,,,,,,,,,,,,,,,,,,,,,,,,,,,,,,,,,,,,,,,,,,,,,,,,,,
,,,,,,,,,66e32aaad05615cfd9fcbe48,Spanish,13 or older,"no, only English or Spanish",no,2025-07-23_08h32.06.819,empathy_intonation_perc,2024.2.4,Win32,20.04008016,66e32aaad05615cfd9fcbe48,687ed1b7e638a4cbf2f02089,6880d606c649c59c620f5b6e,,,,,,,,,,,,,43,1,,./stim/wavs/puertorican_mismatch_interrogative-total-yn_La-nina-lava-el-plato.wav,,,,,,,,,,,,,,,,,,,,,,403.697,406.4343,0,0,2.0993,,0,59,59,42,1,1,puertorican,,,,,,,,,,,,,,,,,,,,,,,,,,,,,,,,,,,,,,,,,,,,,,,,,,,,,,,,
,,,,,,,,,66e32aaad05615cfd9fcbe48,Spanish,13 or older,"no, only English or Spanish",no,2025-07-23_08h32.06.819,empathy_intonation_perc,2024.2.4,Win32,20.04008016,66e32aaad05615cfd9fcbe48,687ed1b7e638a4cbf2f02089,6880d606c649c59c620f5b6e,,,,,,,,,,,,,72,0,,./stim/wavs/castilian_mismatch_declarative-broad-focus_Mi-novio-viene-del-lago.wav,,,,,,,,,,,,,,,,,,,,,,406.4347,409.2563,0,1,2.0803,,0,60,60,71,1,0,castilian,,,,,,,,,,,,,,,,,,,,,,,,,,,,,,,,,,,,,,,,,,,,,,,,,,,,,,,,
,,,,,,,,,66e32aaad05615cfd9fcbe48,Spanish,13 or older,"no, only English or Spanish",no,2025-07-23_08h32.06.819,empathy_intonation_perc,2024.2.4,Win32,20.04008016,66e32aaad05615cfd9fcbe48,687ed1b7e638a4cbf2f02089,6880d606c649c59c620f5b6e,,,,,,,,,,,,,76,0,,./stim/wavs/cuban_mismatch_declarative-broad-focus_La-nina-lava-el-plato.wav,,,,,,,,,,,,,,,,,,,,,,409.2568,411.4502,0,1,1.5599,,0,61,61,75,1,0,cuban,,,,,,,,,,,,,,,,,,,,,,,,,,,,,,,,,,,,,,,,,,,,,,,,,,,,,,,,
,,,,,,,,,66e32aaad05615cfd9fcbe48,Spanish,13 or older,"no, only English or Spanish",no,2025-07-23_08h32.06.819,empathy_intonation_perc,2024.2.4,Win32,20.04008016,66e32aaad05615cfd9fcbe48,687ed1b7e638a4cbf2f02089,6880d606c649c59c620f5b6e,,,,,,,,,,,,,56,0,,./stim/wavs/cuban_match_declarative-broad-focus_Marta-abre-el-regalo.wav,,,,,,,,,,,,,,,,,,,,,,411.4505,413.7719,0,1,1.7001,,0,62,62,55,1,0,cuban,,,,,,,,,,,,,,,,,,,,,,,,,,,,,,,,,,,,,,,,,,,,,,,,,,,,,,,,
,,,,,,,,,66e32aaad05615cfd9fcbe48,Spanish,13 or older,"no, only English or Spanish",no,2025-07-23_08h32.06.819,empathy_intonation_perc,2024.2.4,Win32,20.04008016,66e32aaad05615cfd9fcbe48,687ed1b7e638a4cbf2f02089,6880d606c649c59c620f5b6e,,,,,,,,,,,,,69,0,,./stim/wavs/castilian_mismatch_declarative-broad-focus_El-nino-oye-el-rio.wav,,,,,,,,,,,,,,,,,,,,,,413.7723,417.2435,1,0,2.8274,9.99999E-05,0,63,63,68,1,0,castilian,,,,,,,,,,,,,,,,,,,,,,,,,,,,,,,,,,,,,,,,,,,,,,,,,,,,,,,,
,,,,,,,,,66e32aaad05615cfd9fcbe48,Spanish,13 or older,"no, only English or Spanish",no,2025-07-23_08h32.06.819,empathy_intonation_perc,2024.2.4,Win32,20.04008016,66e32aaad05615cfd9fcbe48,687ed1b7e638a4cbf2f02089,6880d606c649c59c620f5b6e,,,,,,,,,,,,,13,1,,./stim/wavs/mexican_match_interrogative-total-yn_Ana-lleva-el-abrigo.wav,,,,,,,,,,,,,,,,,,,,,,417.2439,419.6905,0,0,1.8156,,0,64,64,12,1,0,mexican,,,,,,,,,,,,,,,,,,,,,,,,,,,,,,,,,,,,,,,,,,,,,,,,,,,,,,,,
,,,,,,,,,66e32aaad05615cfd9fcbe48,Spanish,13 or older,"no, only English or Spanish",no,2025-07-23_08h32.06.819,empathy_intonation_perc,2024.2.4,Win32,20.04008016,66e32aaad05615cfd9fcbe48,687ed1b7e638a4cbf2f02089,6880d606c649c59c620f5b6e,,,,,,,,,,,,,47,0,,./stim/wavs/castilian_match_declarative-broad-focus_Manuela-vende-el-carro.wav,,,,,,,,,,,,,,,,,,,,,,419.6907,422.5224,0,1,2.2091,,0,65,65,46,1,0,castilian,,,,,,,,,,,,,,,,,,,,,,,,,,,,,,,,,,,,,,,,,,,,,,,,,,,,,,,,
,,,,,,,,,66e32aaad05615cfd9fcbe48,Spanish,13 or older,"no, only English or Spanish",no,2025-07-23_08h32.06.819,empathy_intonation_perc,2024.2.4,Win32,20.04008016,66e32aaad05615cfd9fcbe48,687ed1b7e638a4cbf2f02089,6880d606c649c59c620f5b6e,,,,,,,,,,,,,11,1,,./stim/wavs/cuban_match_interrogative-total-yn_Mariano-habla-del-tiempo.wav,,,,,,,,,,,,,,,,,,,,,,422.5227,425.0994,0,0,1.9561,,0,66,66,10,1,1,cuban,,,,,,,,,,,,,,,,,,,,,,,,,,,,,,,,,,,,,,,,,,,,,,,,,,,,,,,,
,,,,,,,,,66e32aaad05615cfd9fcbe48,Spanish,13 or older,"no, only English or Spanish",no,2025-07-23_08h32.06.819,empathy_intonation_perc,2024.2.4,Win32,20.04008016,66e32aaad05615cfd9fcbe48,687ed1b7e638a4cbf2f02089,6880d606c649c59c620f5b6e,,,,,,,,,,,,,78,0,,./stim/wavs/cuban_mismatch_declarative-broad-focus_Mi-tia-odia-la-lluvia.wav,,,,,,,,,,,,,,,,,,,,,,425.0998,427.7821,0,1,2.0443,,0,67,67,77,1,0,cuban,,,,,,,,,,,,,,,,,,,,,,,,,,,,,,,,,,,,,,,,,,,,,,,,,,,,,,,,
,,,,,,,,,66e32aaad05615cfd9fcbe48,Spanish,13 or older,"no, only English or Spanish",no,2025-07-23_08h32.06.819,empathy_intonation_perc,2024.2.4,Win32,20.04008016,66e32aaad05615cfd9fcbe48,687ed1b7e638a4cbf2f02089,6880d606c649c59c620f5b6e,,,,,,,,,,,,,10,1,,./stim/wavs/cuban_match_interrogative-total-yn_Maria-bebe-el-vino.wav,,,,,,,,,,,,,,,,,,,,,,427.7824,430.2251,0,0,1.7979,,0,68,68,9,1,1,cuban,,,,,,,,,,,,,,,,,,,,,,,,,,,,,,,,,,,,,,,,,,,,,,,,,,,,,,,,
,,,,,,,,,66e32aaad05615cfd9fcbe48,Spanish,13 or older,"no, only English or Spanish",no,2025-07-23_08h32.06.819,empathy_intonation_perc,2024.2.4,Win32,20.04008016,66e32aaad05615cfd9fcbe48,687ed1b7e638a4cbf2f02089,6880d606c649c59c620f5b6e,,,,,,,,,,,,,63,0,,./stim/wavs/puertorican_match_declarative-broad-focus_Ana-lleva-el-abrigo.wav,,,,,,,,,,,,,,,,,,,,,,430.2255,432.5223,0,1,1.6658,,0,69,69,62,1,0,puertorican,,,,,,,,,,,,,,,,,,,,,,,,,,,,,,,,,,,,,,,,,,,,,,,,,,,,,,,,
,,,,,,,,,66e32aaad05615cfd9fcbe48,Spanish,13 or older,"no, only English or Spanish",no,2025-07-23_08h32.06.819,empathy_intonation_perc,2024.2.4,Win32,20.04008016,66e32aaad05615cfd9fcbe48,687ed1b7e638a4cbf2f02089,6880d606c649c59c620f5b6e,,,,,,,,,,,,,42,1,,./stim/wavs/puertorican_mismatch_interrogative-total-yn_La-maestra-vive-en-Paris.wav,,,,,,,,,,,,,,,,,,,,,,432.5226,435.0892,0,0,1.9374,,0,70,70,41,1,1,puertorican,,,,,,,,,,,,,,,,,,,,,,,,,,,,,,,,,,,,,,,,,,,,,,,,,,,,,,,,
,,,,,,,,,66e32aaad05615cfd9fcbe48,Spanish,13 or older,"no, only English or Spanish",no,2025-07-23_08h32.06.819,empathy_intonation_perc,2024.2.4,Win32,20.04008016,66e32aaad05615cfd9fcbe48,687ed1b7e638a4cbf2f02089,6880d606c649c59c620f5b6e,,,,,,,,,,,,,2,1,,./stim/wavs/castilian_match_interrogative-total-yn_Emilio-ama-la-marcha.wav,,,,,,,,,,,,,,,,,,,,,,435.0896,437.3926,1,1,1.6657,,0,71,71,1,1,0,castilian,,,,,,,,,,,,,,,,,,,,,,,,,,,,,,,,,,,,,,,,,,,,,,,,,,,,,,,,
,,,,,,,,,66e32aaad05615cfd9fcbe48,Spanish,13 or older,"no, only English or Spanish",no,2025-07-23_08h32.06.819,empathy_intonation_perc,2024.2.4,Win32,20.04008016,66e32aaad05615cfd9fcbe48,687ed1b7e638a4cbf2f02089,6880d606c649c59c620f5b6e,,,,,,,,,,,,,14,1,,./stim/wavs/mexican_match_interrogative-total-yn_Daniel-iba-a-Bolivia.wav,,,,,,,,,,,,,,,,,,,,,,437.393,439.9484,1,1,1.9324,,0,72,72,13,1,0,mexican,,,,,,,,,,,,,,,,,,,,,,,,,,,,,,,,,,,,,,,,,,,,,,,,,,,,,,,,
,,,,,,,,,66e32aaad05615cfd9fcbe48,Spanish,13 or older,"no, only English or Spanish",no,2025-07-23_08h32.06.819,empathy_intonation_perc,2024.2.4,Win32,20.04008016,66e32aaad05615cfd9fcbe48,687ed1b7e638a4cbf2f02089,6880d606c649c59c620f5b6e,,,,,,,,,,,,,50,0,,./stim/wavs/castilian_match_declarative-broad-focus_Marta-abre-el-regalo.wav,,,,,,,,,,,,,,,,,,,,,,439.9487,442.6473,0,1,2.0556,,0,73,73,49,1,0,castilian,,,,,,,,,,,,,,,,,,,,,,,,,,,,,,,,,,,,,,,,,,,,,,,,,,,,,,,,
,,,,,,,,,66e32aaad05615cfd9fcbe48,Spanish,13 or older,"no, only English or Spanish",no,2025-07-23_08h32.06.819,empathy_intonation_perc,2024.2.4,Win32,20.04008016,66e32aaad05615cfd9fcbe48,687ed1b7e638a4cbf2f02089,6880d606c649c59c620f5b6e,,,,,,,,,,,,,65,0,,./stim/wavs/puertorican_match_declarative-broad-focus_David-leia-el-libro.wav,,,,,,,,,,,,,,,,,,,,,,442.6477,444.9604,0,1,1.6853,,0,74,74,64,1,0,puertorican,,,,,,,,,,,,,,,,,,,,,,,,,,,,,,,,,,,,,,,,,,,,,,,,,,,,,,,,
,,,,,,,,,66e32aaad05615cfd9fcbe48,Spanish,13 or older,"no, only English or Spanish",no,2025-07-23_08h32.06.819,empathy_intonation_perc,2024.2.4,Win32,20.04008016,66e32aaad05615cfd9fcbe48,687ed1b7e638a4cbf2f02089,6880d606c649c59c620f5b6e,,,,,,,,,,,,,3,1,,./stim/wavs/castilian_match_interrogative-total-yn_Manuela-vende-el-carro.wav,,,,,,,,,,,,,,,,,,,,,,444.9607,447.4052,1,1,1.8108,,0,75,75,2,1,0,castilian,,,,,,,,,,,,,,,,,,,,,,,,,,,,,,,,,,,,,,,,,,,,,,,,,,,,,,,,
,,,,,,,,,66e32aaad05615cfd9fcbe48,Spanish,13 or older,"no, only English or Spanish",no,2025-07-23_08h32.06.819,empathy_intonation_perc,2024.2.4,Win32,20.04008016,66e32aaad05615cfd9fcbe48,687ed1b7e638a4cbf2f02089,6880d606c649c59c620f5b6e,,,,,,,,,,,,,62,0,,./stim/wavs/mexican_match_declarative-broad-focus_Marta-abre-el-regalo.wav,,,,,,,,,,,,,,,,,,,,,,447.4055,449.7105,0,1,1.6813,,0,76,76,61,1,0,mexican,,,,,,,,,,,,,,,,,,,,,,,,,,,,,,,,,,,,,,,,,,,,,,,,,,,,,,,,
,,,,,,,,,66e32aaad05615cfd9fcbe48,Spanish,13 or older,"no, only English or Spanish",no,2025-07-23_08h32.06.819,empathy_intonation_perc,2024.2.4,Win32,20.04008016,66e32aaad05615cfd9fcbe48,687ed1b7e638a4cbf2f02089,6880d606c649c59c620f5b6e,,,,,,,,,,,,,6,1,,./stim/wavs/castilian_match_interrogative-total-yn_Marta-abre-el-regalo.wav,,,,,,,,,,,,,,,,,,,,,,449.711,452.2928,1,1,1.9456,,0,77,77,5,1,0,castilian,,,,,,,,,,,,,,,,,,,,,,,,,,,,,,,,,,,,,,,,,,,,,,,,,,,,,,,,
,,,,,,,,,66e32aaad05615cfd9fcbe48,Spanish,13 or older,"no, only English or Spanish",no,2025-07-23_08h32.06.819,empathy_intonation_perc,2024.2.4,Win32,20.04008016,66e32aaad05615cfd9fcbe48,687ed1b7e638a4cbf2f02089,6880d606c649c59c620f5b6e,,,,,,,,,,,,,22,1,,./stim/wavs/puertorican_match_interrogative-total-yn_Emilio-ama-la-marcha.wav,,,,,,,,,,,,,,,,,,,,,,452.2931,454.6216,0,0,1.6795,,0,78,78,21,1,1,puertorican,,,,,,,,,,,,,,,,,,,,,,,,,,,,,,,,,,,,,,,,,,,,,,,,,,,,,,,,
,,,,,,,,,66e32aaad05615cfd9fcbe48,Spanish,13 or older,"no, only English or Spanish",no,2025-07-23_08h32.06.819,empathy_intonation_perc,2024.2.4,Win32,20.04008016,66e32aaad05615cfd9fcbe48,687ed1b7e638a4cbf2f02089,6880d606c649c59c620f5b6e,,,,,,,,,,,,,28,1,,./stim/wavs/castilian_mismatch_interrogative-total-yn_Mi-novio-viene-del-lago.wav,,,,,,,,,,,,,,,,,,,,,,454.6219,456.9436,1,1,1.6896,,0,79,79,27,1,0,castilian,,,,,,,,,,,,,,,,,,,,,,,,,,,,,,,,,,,,,,,,,,,,,,,,,,,,,,,,
,,,,,,,,,66e32aaad05615cfd9fcbe48,Spanish,13 or older,"no, only English or Spanish",no,2025-07-23_08h32.06.819,empathy_intonation_perc,2024.2.4,Win32,20.04008016,66e32aaad05615cfd9fcbe48,687ed1b7e638a4cbf2f02089,6880d606c649c59c620f5b6e,,,,,,,,,,,,,48,0,,./stim/wavs/castilian_match_declarative-broad-focus_Maria-bebe-el-vino.wav,,,,,,,,,,,,,,,,,,,,,,456.9441,459.5087,0,1,1.9357,,0,80,80,47,1,0,castilian,,,,,,,,,,,,,,,,,,,,,,,,,,,,,,,,,,,,,,,,,,,,,,,,,,,,,,,,
,,,,,,,,,66e32aaad05615cfd9fcbe48,Spanish,13 or older,"no, only English or Spanish",no,2025-07-23_08h32.06.819,empathy_intonation_perc,2024.2.4,Win32,20.04008016,66e32aaad05615cfd9fcbe48,687ed1b7e638a4cbf2f02089,6880d606c649c59c620f5b6e,,,,,,,,,,,,,59,0,,./stim/wavs/mexican_match_declarative-broad-focus_David-leia-el-libro.wav,,,,,,,,,,,,,,,,,,,,,,459.5091,461.9747,0,1,1.8382,,0,81,81,58,1,0,mexican,,,,,,,,,,,,,,,,,,,,,,,,,,,,,,,,,,,,,,,,,,,,,,,,,,,,,,,,
,,,,,,,,,66e32aaad05615cfd9fcbe48,Spanish,13 or older,"no, only English or Spanish",no,2025-07-23_08h32.06.819,empathy_intonation_perc,2024.2.4,Win32,20.04008016,66e32aaad05615cfd9fcbe48,687ed1b7e638a4cbf2f02089,6880d606c649c59c620f5b6e,,,,,,,,,,,,,19,1,,./stim/wavs/puertorican_match_interrogative-total-yn_Ana-lleva-el-abrigo.wav,,,,,,,,,,,,,,,,,,,,,,461.9751,464.6889,0,0,2.0768,,0,82,82,18,1,1,puertorican,,,,,,,,,,,,,,,,,,,,,,,,,,,,,,,,,,,,,,,,,,,,,,,,,,,,,,,,
,,,,,,,,,66e32aaad05615cfd9fcbe48,Spanish,13 or older,"no, only English or Spanish",no,2025-07-23_08h32.06.819,empathy_intonation_perc,2024.2.4,Win32,20.04008016,66e32aaad05615cfd9fcbe48,687ed1b7e638a4cbf2f02089,6880d606c649c59c620f5b6e,,,,,,,,,,,,,30,1,,./stim/wavs/cuban_mismatch_interrogative-total-yn_El-hombre-mira-la-luna.wav,,,,,,,,,,,,,,,,,,,,,,464.6892,467.3095,0,0,1.8592,,0,83,83,29,1,1,cuban,,,,,,,,,,,,,,,,,,,,,,,,,,,,,,,,,,,,,,,,,,,,,,,,,,,,,,,,
,,,,,,,,,66e32aaad05615cfd9fcbe48,Spanish,13 or older,"no, only English or Spanish",no,2025-07-23_08h32.06.819,empathy_intonation_perc,2024.2.4,Win32,20.04008016,66e32aaad05615cfd9fcbe48,687ed1b7e638a4cbf2f02089,6880d606c649c59c620f5b6e,,,,,,,,,,,,,31,1,,./stim/wavs/cuban_mismatch_interrogative-total-yn_El-nino-oye-el-rio.wav,,,,,,,,,,,,,,,,,,,,,,467.3099,469.789,0,0,1.8029,0.0002,0,84,84,30,1,1,cuban,,,,,,,,,,,,,,,,,,,,,,,,,,,,,,,,,,,,,,,,,,,,,,,,,,,,,,,,
,,,,,,,,,66e32aaad05615cfd9fcbe48,Spanish,13 or older,"no, only English or Spanish",no,2025-07-23_08h32.06.819,empathy_intonation_perc,2024.2.4,Win32,20.04008016,66e32aaad05615cfd9fcbe48,687ed1b7e638a4cbf2f02089,6880d606c649c59c620f5b6e,,,,,,,,,,,,,73,0,,./stim/wavs/castilian_mismatch_declarative-broad-focus_Mi-tia-odia-la-lluvia.wav,,,,,,,,,,,,,,,,,,,,,,469.7893,473.1219,0,1,2.6935,,0,85,85,72,1,0,castilian,,,,,,,,,,,,,,,,,,,,,,,,,,,,,,,,,,,,,,,,,,,,,,,,,,,,,,,,
,,,,,,,,,66e32aaad05615cfd9fcbe48,Spanish,13 or older,"no, only English or Spanish",no,2025-07-23_08h32.06.819,empathy_intonation_perc,2024.2.4,Win32,20.04008016,66e32aaad05615cfd9fcbe48,687ed1b7e638a4cbf2f02089,6880d606c649c59c620f5b6e,,,,,,,,,,,,,51,0,,./stim/wavs/cuban_match_declarative-broad-focus_Ana-lleva-el-abrigo.wav,,,,,,,,,,,,,,,,,,,,,,473.1223,475.4947,0,1,1.6986,,0,86,86,50,1,0,cuban,,,,,,,,,,,,,,,,,,,,,,,,,,,,,,,,,,,,,,,,,,,,,,,,,,,,,,,,
,,,,,,,,,66e32aaad05615cfd9fcbe48,Spanish,13 or older,"no, only English or Spanish",no,2025-07-23_08h32.06.819,empathy_intonation_perc,2024.2.4,Win32,20.04008016,66e32aaad05615cfd9fcbe48,687ed1b7e638a4cbf2f02089,6880d606c649c59c620f5b6e,,,,,,,,,,,,,53,0,,./stim/wavs/cuban_match_declarative-broad-focus_Manuela-vende-el-carro.wav,,,,,,,,,,,,,,,,,,,,,,475.4951,477.8023,0,1,1.6874,,0,87,87,52,1,0,cuban,,,,,,,,,,,,,,,,,,,,,,,,,,,,,,,,,,,,,,,,,,,,,,,,,,,,,,,,
,,,,,,,"Great! Now we will move on. The next task consists of about 60 trials, in each of which you will see a string of letters. 
  
  Your task is to decide whether this is a real Spanish word or not.", (press the spacebar to continue),66e32aaad05615cfd9fcbe48,Spanish,13 or older,"no, only English or Spanish",no,2025-07-23_08h32.06.819,empathy_intonation_perc,2024.2.4,Win32,20.04008016,66e32aaad05615cfd9fcbe48,687ed1b7e638a4cbf2f02089,6880d606c649c59c620f5b6e,,,,,,,,,,,,,,,,,,,,,,,,,,,,,,,,,,,,,,,,,,,,,,,,,,,477.806,485.7197,0,0,0,0,1,,,,,,,,,,,,,,,,,,,,,,,,,,,,,,,,,,,,,,,,,,,,,,,,,
,,,,,,,"If you think it is an existing Spanish word, you type '1' (for 'REAL'), and if you think it is not an existing Spanish word, you type '0' (for 'FAKE').", (press the spacebar to continue),66e32aaad05615cfd9fcbe48,Spanish,13 or older,"no, only English or Spanish",no,2025-07-23_08h32.06.819,empathy_intonation_perc,2024.2.4,Win32,20.04008016,66e32aaad05615cfd9fcbe48,687ed1b7e638a4cbf2f02089,6880d606c649c59c620f5b6e,,,,,,,,,,,,,,,,,,,,,,,,,,,,,,,,,,,,,,,,,,,,,,,,,,,485.7212,492.5021,0,1,1,1,1,,,,,,,,,,,,,,,,,,,,,,,,,,,,,,,,,,,,,,,,,,,,,,,,,
,,,,,,,"If you are sure that the word exists, even though you don’t know its exact meaning, you may still respond '1' (REAL). 
  
  But if you are not sure if it is an existing word, you should respond '0' (FAKE).
  
  Let's do a practice round...", (press the spacebar to continue),66e32aaad05615cfd9fcbe48,Spanish,13 or older,"no, only English or Spanish",no,2025-07-23_08h32.06.819,empathy_intonation_perc,2024.2.4,Win32,20.04008016,66e32aaad05615cfd9fcbe48,687ed1b7e638a4cbf2f02089,6880d606c649c59c620f5b6e,,,,,,,,,,,,,,,,,,,,,,,,,,,,,,,,,,,,,,,,,,,,,,,,,,,492.5039,501.6614,0,2,2,2,1,,,,,,,,,,,,,,,,,,,,,,,,,,,,,,,,,,,,,,,,,,,,,,,,,
,,,,,,,,,66e32aaad05615cfd9fcbe48,Spanish,13 or older,"no, only English or Spanish",no,2025-07-23_08h32.06.819,empathy_intonation_perc,2024.2.4,Win32,20.04008016,66e32aaad05615cfd9fcbe48,687ed1b7e638a4cbf2f02089,6880d606c649c59c620f5b6e,,,,,,,,,,,,,,0,,,,,,,,,,,,,,,,,,,,,,,,,,,,,,,,,,,,,,,,,,,,501.6664,505.026,1,0,2.7392,0.0002,505.0262,506.0415,0,0,0,0,1,0,depiste,REAL,FAKE,,,,,,,,,,,,,,,,,,,,,,,,,,,,,,,,
,,,,,,,,,66e32aaad05615cfd9fcbe48,Spanish,13 or older,"no, only English or Spanish",no,2025-07-23_08h32.06.819,empathy_intonation_perc,2024.2.4,Win32,20.04008016,66e32aaad05615cfd9fcbe48,687ed1b7e638a4cbf2f02089,6880d606c649c59c620f5b6e,,,,,,,,,,,,,,1,,,,,,,,,,,,,,,,,,,,,,,,,,,,,,,,,,,,,,,,,,,,506.0424,507.8411,1,1,1.1667,,507.8415,508.8602,0,1,1,1,1,0,sí,REAL,FAKE,,,,,,,,,,,,,,,,,,,,,,,,,,,,,,,,
,,,,,,,,,66e32aaad05615cfd9fcbe48,Spanish,13 or older,"no, only English or Spanish",no,2025-07-23_08h32.06.819,empathy_intonation_perc,2024.2.4,Win32,20.04008016,66e32aaad05615cfd9fcbe48,687ed1b7e638a4cbf2f02089,6880d606c649c59c620f5b6e,,,,,,,,,,,,,,0,,,,,,,,,,,,,,,,,,,,,,,,,,,,,,,,,,,,,,,,,,,,508.8611,510.5279,0,1,1.0379,,510.5279,511.5277,0,2,2,2,1,0,coné,REAL,FAKE,,,,,,,,,,,,,,,,,,,,,,,,,,,,,,,,
,,,,,,,,,66e32aaad05615cfd9fcbe48,Spanish,13 or older,"no, only English or Spanish",no,2025-07-23_08h32.06.819,empathy_intonation_perc,2024.2.4,Win32,20.04008016,66e32aaad05615cfd9fcbe48,687ed1b7e638a4cbf2f02089,6880d606c649c59c620f5b6e,,,,,,,,,,,,,,0,,,,,,,,,,,,,,,,,,,,,,,,,,,,,,,,,,,,,,,,,,,,511.5282,513.9764,0,1,1.822,,513.9764,514.9992,0,3,3,3,1,0,calpar,REAL,FAKE,,,,,,,,,,,,,,,,,,,,,,,,,,,,,,,,
,,,,,,,,,66e32aaad05615cfd9fcbe48,Spanish,13 or older,"no, only English or Spanish",no,2025-07-23_08h32.06.819,empathy_intonation_perc,2024.2.4,Win32,20.04008016,66e32aaad05615cfd9fcbe48,687ed1b7e638a4cbf2f02089,6880d606c649c59c620f5b6e,,,,,,,,,,,,,,0,,,,,,,,,,,,,,,,,,,,,,,,,,,,,,,,,,,,,,,,,,,,514.9999,516.534,0,1,0.9061,,516.534,517.5365,0,4,4,4,1,0,joten,REAL,FAKE,,,,,,,,,,,,,,,,,,,,,,,,,,,,,,,,
,,,,,,,,,66e32aaad05615cfd9fcbe48,Spanish,13 or older,"no, only English or Spanish",no,2025-07-23_08h32.06.819,empathy_intonation_perc,2024.2.4,Win32,20.04008016,66e32aaad05615cfd9fcbe48,687ed1b7e638a4cbf2f02089,6880d606c649c59c620f5b6e,,,,,,,,,,,,,,1,,,,,,,,,,,,,,,,,,,,,,,,,,,,,,,,,,,,,,,,,,,,517.537,519.4679,0,0,1.188,,519.4684,520.4913,0,5,5,5,1,0,sacapuntas,REAL,FAKE,,,,,,,,,,,,,,,,,,,,,,,,,,,,,,,,
,,,,,,,,,66e32aaad05615cfd9fcbe48,Spanish,13 or older,"no, only English or Spanish",no,2025-07-23_08h32.06.819,empathy_intonation_perc,2024.2.4,Win32,20.04008016,66e32aaad05615cfd9fcbe48,687ed1b7e638a4cbf2f02089,6880d606c649c59c620f5b6e,,,,,,,,,,,,,,0,,,,,,,,,,,,,,,,,,,,,,,,,,,,,,,,,,,,,,,,,,,,520.4921,522.413,1,0,1.1762,,522.413,523.4348,0,6,6,6,1,0,priba,REAL,FAKE,,,,,,,,,,,,,,,,,,,,,,,,,,,,,,,,
,,,,,,,,,66e32aaad05615cfd9fcbe48,Spanish,13 or older,"no, only English or Spanish",no,2025-07-23_08h32.06.819,empathy_intonation_perc,2024.2.4,Win32,20.04008016,66e32aaad05615cfd9fcbe48,687ed1b7e638a4cbf2f02089,6880d606c649c59c620f5b6e,,,,,,,,,,,,,,0,,,,,,,,,,,,,,,,,,,,,,,,,,,,,,,,,,,,,,,,,,,,523.4353,525.3788,1,0,1.1979,,525.3789,526.3993,0,7,7,7,1,0,pelasula,REAL,FAKE,,,,,,,,,,,,,,,,,,,,,,,,,,,,,,,,
,,,,,,,,,66e32aaad05615cfd9fcbe48,Spanish,13 or older,"no, only English or Spanish",no,2025-07-23_08h32.06.819,empathy_intonation_perc,2024.2.4,Win32,20.04008016,66e32aaad05615cfd9fcbe48,687ed1b7e638a4cbf2f02089,6880d606c649c59c620f5b6e,,,,,,,,,,,,,,1,,,,,,,,,,,,,,,,,,,,,,,,,,,,,,,,,,,,,,,,,,,,526.3998,527.9285,1,1,0.9075,,527.9289,528.9199,0,8,8,8,1,0,bien,REAL,FAKE,,,,,,,,,,,,,,,,,,,,,,,,,,,,,,,,
,,,,,,,,,66e32aaad05615cfd9fcbe48,Spanish,13 or older,"no, only English or Spanish",no,2025-07-23_08h32.06.819,empathy_intonation_perc,2024.2.4,Win32,20.04008016,66e32aaad05615cfd9fcbe48,687ed1b7e638a4cbf2f02089,6880d606c649c59c620f5b6e,,,,,,,,,,,,,,1,,,,,,,,,,,,,,,,,,,,,,,,,,,,,,,,,,,,,,,,,,,,528.9204,530.3456,1,1,0.7849,,530.3457,531.3366,0,9,9,9,1,0,casa,REAL,FAKE,,,,,,,,,,,,,,,,,,,,,,,,,,,,,,,,
,,,,,,,,,66e32aaad05615cfd9fcbe48,Spanish,13 or older,"no, only English or Spanish",no,2025-07-23_08h32.06.819,empathy_intonation_perc,2024.2.4,Win32,20.04008016,66e32aaad05615cfd9fcbe48,687ed1b7e638a4cbf2f02089,6880d606c649c59c620f5b6e,,,,,,,,,,,,,,0,,,,,,,,,,,,,,,,,,,,,,,,,,,,,,,,,,,,,,,,,,,,531.3372,533.2748,1,0,1.3033,,533.2752,534.2944,0,10,10,10,1,0,lejo,REAL,FAKE,,,,,,,,,,,,,,,,,,,,,,,,,,,,,,,,
,,,,,,,,,66e32aaad05615cfd9fcbe48,Spanish,13 or older,"no, only English or Spanish",no,2025-07-23_08h32.06.819,empathy_intonation_perc,2024.2.4,Win32,20.04008016,66e32aaad05615cfd9fcbe48,687ed1b7e638a4cbf2f02089,6880d606c649c59c620f5b6e,,,,,,,,,,,,,,0,,,,,,,,,,,,,,,,,,,,,,,,,,,,,,,,,,,,,,,,,,,,534.2951,536.3874,0,1,1.4534,,536.3877,537.3803,0,11,11,11,1,0,pretantas,REAL,FAKE,,,,,,,,,,,,,,,,,,,,,,,,,,,,,,,,
,,,,,,,,,66e32aaad05615cfd9fcbe48,Spanish,13 or older,"no, only English or Spanish",no,2025-07-23_08h32.06.819,empathy_intonation_perc,2024.2.4,Win32,20.04008016,66e32aaad05615cfd9fcbe48,687ed1b7e638a4cbf2f02089,6880d606c649c59c620f5b6e,,,,,,,,,,,,,,,,,,,,,,,,,,,,,,,,,,,,,,,,,,,,,,,,,,,,,,,,,,,,,,,,,,,,,,,,,,,537.3805,539.058,,,,,,,,,,,,,,,,,,,,,,,,,,,,,,
,,,,,,,,,66e32aaad05615cfd9fcbe48,Spanish,13 or older,"no, only English or Spanish",no,2025-07-23_08h32.06.819,empathy_intonation_perc,2024.2.4,Win32,20.04008016,66e32aaad05615cfd9fcbe48,687ed1b7e638a4cbf2f02089,6880d606c649c59c620f5b6e,,,,,,,,,,,,,,1,,,,,,,,,,,,,,,,,,,,,,,,,,,,,,,,,,,,,,,,,,,,,,,,,,,,,,,,,13,helar,,,,,539.0652,541.5037,1,1,1.809,,0,0,0,12,1,REAL,FAKE,,,,,,,,,,,,,,,,,
,,,,,,,,,66e32aaad05615cfd9fcbe48,Spanish,13 or older,"no, only English or Spanish",no,2025-07-23_08h32.06.819,empathy_intonation_perc,2024.2.4,Win32,20.04008016,66e32aaad05615cfd9fcbe48,687ed1b7e638a4cbf2f02089,6880d606c649c59c620f5b6e,,,,,,,,,,,,,,1,,,,,,,,,,,,,,,,,,,,,,,,,,,,,,,,,,,,,,,,,,,,,,,,,,,,,,,,,68,alegre,,,,,541.5043,543.7565,1,1,1.5233,,0,1,1,67,1,REAL,FAKE,,,,,,,,,,,,,,,,,
,,,,,,,,,66e32aaad05615cfd9fcbe48,Spanish,13 or older,"no, only English or Spanish",no,2025-07-23_08h32.06.819,empathy_intonation_perc,2024.2.4,Win32,20.04008016,66e32aaad05615cfd9fcbe48,687ed1b7e638a4cbf2f02089,6880d606c649c59c620f5b6e,,,,,,,,,,,,,,1,,,,,,,,,,,,,,,,,,,,,,,,,,,,,,,,,,,,,,,,,,,,,,,,,,,,,,,,,45,jilguero,,,,,543.7571,545.5325,0,0,1.0285,,0,2,2,44,1,REAL,FAKE,,,,,,,,,,,,,,,,,
,,,,,,,,,66e32aaad05615cfd9fcbe48,Spanish,13 or older,"no, only English or Spanish",no,2025-07-23_08h32.06.819,empathy_intonation_perc,2024.2.4,Win32,20.04008016,66e32aaad05615cfd9fcbe48,687ed1b7e638a4cbf2f02089,6880d606c649c59c620f5b6e,,,,,,,,,,,,,,1,,,,,,,,,,,,,,,,,,,,,,,,,,,,,,,,,,,,,,,,,,,,,,,,,,,,,,,,,48,ladrón,,,,,545.5337,547.5489,1,1,1.2935,,0,3,3,47,1,REAL,FAKE,,,,,,,,,,,,,,,,,
,,,,,,,,,66e32aaad05615cfd9fcbe48,Spanish,13 or older,"no, only English or Spanish",no,2025-07-23_08h32.06.819,empathy_intonation_perc,2024.2.4,Win32,20.04008016,66e32aaad05615cfd9fcbe48,687ed1b7e638a4cbf2f02089,6880d606c649c59c620f5b6e,,,,,,,,,,,,,,1,,,,,,,,,,,,,,,,,,,,,,,,,,,,,,,,,,,,,,,,,,,,,,,,,,,,,,,,,20,ávido,,,,,547.5503,549.5549,1,1,1.2765,,0,4,4,19,1,REAL,FAKE,,,,,,,,,,,,,,,,,
,,,,,,,,,66e32aaad05615cfd9fcbe48,Spanish,13 or older,"no, only English or Spanish",no,2025-07-23_08h32.06.819,empathy_intonation_perc,2024.2.4,Win32,20.04008016,66e32aaad05615cfd9fcbe48,687ed1b7e638a4cbf2f02089,6880d606c649c59c620f5b6e,,,,,,,,,,,,,,1,,,,,,,,,,,,,,,,,,,,,,,,,,,,,,,,,,,,,,,,,,,,,,,,,,,,,,,,,62,flaco,,,,,549.5556,551.3167,1,1,1.0233,,0,5,5,61,1,REAL,FAKE,,,,,,,,,,,,,,,,,
,,,,,,,,,66e32aaad05615cfd9fcbe48,Spanish,13 or older,"no, only English or Spanish",no,2025-07-23_08h32.06.819,empathy_intonation_perc,2024.2.4,Win32,20.04008016,66e32aaad05615cfd9fcbe48,687ed1b7e638a4cbf2f02089,6880d606c649c59c620f5b6e,,,,,,,,,,,,,,0,,,,,,,,,,,,,,,,,,,,,,,,,,,,,,,,,,,,,,,,,,,,,,,,,,,,,,,,,50,flamida,,,,,551.3174,553.2126,1,0,1.1579,,0,6,6,49,1,REAL,FAKE,,,,,,,,,,,,,,,,,
,,,,,,,,,66e32aaad05615cfd9fcbe48,Spanish,13 or older,"no, only English or Spanish",no,2025-07-23_08h32.06.819,empathy_intonation_perc,2024.2.4,Win32,20.04008016,66e32aaad05615cfd9fcbe48,687ed1b7e638a4cbf2f02089,6880d606c649c59c620f5b6e,,,,,,,,,,,,,,0,,,,,,,,,,,,,,,,,,,,,,,,,,,,,,,,,,,,,,,,,,,,,,,,,,,,,,,,,35,rompido,,,,,553.2133,555.2719,0,1,1.4284,9.99999E-05,0,7,7,34,1,REAL,FAKE,,,,,,,,,,,,,,,,,
,,,,,,,,,66e32aaad05615cfd9fcbe48,Spanish,13 or older,"no, only English or Spanish",no,2025-07-23_08h32.06.819,empathy_intonation_perc,2024.2.4,Win32,20.04008016,66e32aaad05615cfd9fcbe48,687ed1b7e638a4cbf2f02089,6880d606c649c59c620f5b6e,,,,,,,,,,,,,,1,,,,,,,,,,,,,,,,,,,,,,,,,,,,,,,,,,,,,,,,,,,,,,,,,,,,,,,,,24,látigo,,,,,555.2725,557.0771,0,0,1.1767,,0,8,8,23,1,REAL,FAKE,,,,,,,,,,,,,,,,,
,,,,,,,,,66e32aaad05615cfd9fcbe48,Spanish,13 or older,"no, only English or Spanish",no,2025-07-23_08h32.06.819,empathy_intonation_perc,2024.2.4,Win32,20.04008016,66e32aaad05615cfd9fcbe48,687ed1b7e638a4cbf2f02089,6880d606c649c59c620f5b6e,,,,,,,,,,,,,,1,,,,,,,,,,,,,,,,,,,,,,,,,,,,,,,,,,,,,,,,,,,,,,,,,,,,,,,,,54,fomentar,,,,,557.0778,558.8633,1,1,1.1515,,0,9,9,53,1,REAL,FAKE,,,,,,,,,,,,,,,,,
,,,,,,,,,66e32aaad05615cfd9fcbe48,Spanish,13 or older,"no, only English or Spanish",no,2025-07-23_08h32.06.819,empathy_intonation_perc,2024.2.4,Win32,20.04008016,66e32aaad05615cfd9fcbe48,687ed1b7e638a4cbf2f02089,6880d606c649c59c620f5b6e,,,,,,,,,,,,,,1,,,,,,,,,,,,,,,,,,,,,,,,,,,,,,,,,,,,,,,,,,,,,,,,,,,,,,,,,6,tergiversar,,,,,558.8638,560.7703,0,0,1.1582,,0,10,10,5,1,REAL,FAKE,,,,,,,,,,,,,,,,,
,,,,,,,,,66e32aaad05615cfd9fcbe48,Spanish,13 or older,"no, only English or Spanish",no,2025-07-23_08h32.06.819,empathy_intonation_perc,2024.2.4,Win32,20.04008016,66e32aaad05615cfd9fcbe48,687ed1b7e638a4cbf2f02089,6880d606c649c59c620f5b6e,,,,,,,,,,,,,,1,,,,,,,,,,,,,,,,,,,,,,,,,,,,,,,,,,,,,,,,,,,,,,,,,,,,,,,,,36,loro,,,,,560.7709,562.3982,0,0,0.8907,,0,11,11,35,1,REAL,FAKE,,,,,,,,,,,,,,,,,
,,,,,,,,,66e32aaad05615cfd9fcbe48,Spanish,13 or older,"no, only English or Spanish",no,2025-07-23_08h32.06.819,empathy_intonation_perc,2024.2.4,Win32,20.04008016,66e32aaad05615cfd9fcbe48,687ed1b7e638a4cbf2f02089,6880d606c649c59c620f5b6e,,,,,,,,,,,,,,1,,,,,,,,,,,,,,,,,,,,,,,,,,,,,,,,,,,,,,,,,,,,,,,,,,,,,,,,,59,besar,,,,,562.3989,563.9018,1,1,0.7734,,0,12,12,58,1,REAL,FAKE,,,,,,,,,,,,,,,,,
,,,,,,,,,66e32aaad05615cfd9fcbe48,Spanish,13 or older,"no, only English or Spanish",no,2025-07-23_08h32.06.819,empathy_intonation_perc,2024.2.4,Win32,20.04008016,66e32aaad05615cfd9fcbe48,687ed1b7e638a4cbf2f02089,6880d606c649c59c620f5b6e,,,,,,,,,,,,,,1,,,,,,,,,,,,,,,,,,,,,,,,,,,,,,,,,,,,,,,,,,,,,,,,,,,,,,,,,49,ganar,,,,,563.9024,565.6695,0,0,1.1465,,0,13,13,48,1,REAL,FAKE,,,,,,,,,,,,,,,,,
,,,,,,,,,66e32aaad05615cfd9fcbe48,Spanish,13 or older,"no, only English or Spanish",no,2025-07-23_08h32.06.819,empathy_intonation_perc,2024.2.4,Win32,20.04008016,66e32aaad05615cfd9fcbe48,687ed1b7e638a4cbf2f02089,6880d606c649c59c620f5b6e,,,,,,,,,,,,,,1,,,,,,,,,,,,,,,,,,,,,,,,,,,,,,,,,,,,,,,,,,,,,,,,,,,,,,,,,5,zapato,,,,,565.6703,567.437,1,1,1.0203,,0,14,14,4,1,REAL,FAKE,,,,,,,,,,,,,,,,,
,,,,,,,,,66e32aaad05615cfd9fcbe48,Spanish,13 or older,"no, only English or Spanish",no,2025-07-23_08h32.06.819,empathy_intonation_perc,2024.2.4,Win32,20.04008016,66e32aaad05615cfd9fcbe48,687ed1b7e638a4cbf2f02089,6880d606c649c59c620f5b6e,,,,,,,,,,,,,,1,,,,,,,,,,,,,,,,,,,,,,,,,,,,,,,,,,,,,,,,,,,,,,,,,,,,,,,,,88,acantilado,,,,,567.4375,569.1124,0,0,0.9479,,0,15,15,87,1,REAL,FAKE,,,,,,,,,,,,,,,,,
,,,,,,,,,66e32aaad05615cfd9fcbe48,Spanish,13 or older,"no, only English or Spanish",no,2025-07-23_08h32.06.819,empathy_intonation_perc,2024.2.4,Win32,20.04008016,66e32aaad05615cfd9fcbe48,687ed1b7e638a4cbf2f02089,6880d606c649c59c620f5b6e,,,,,,,,,,,,,,0,,,,,,,,,,,,,,,,,,,,,,,,,,,,,,,,,,,,,,,,,,,,,,,,,,,,,,,,,42,cadallo,,,,,569.113,571.4935,1,0,1.7601,,0,16,16,41,1,REAL,FAKE,,,,,,,,,,,,,,,,,
,,,,,,,,,66e32aaad05615cfd9fcbe48,Spanish,13 or older,"no, only English or Spanish",no,2025-07-23_08h32.06.819,empathy_intonation_perc,2024.2.4,Win32,20.04008016,66e32aaad05615cfd9fcbe48,687ed1b7e638a4cbf2f02089,6880d606c649c59c620f5b6e,,,,,,,,,,,,,,0,,,,,,,,,,,,,,,,,,,,,,,,,,,,,,,,,,,,,,,,,,,,,,,,,,,,,,,,,47,cartinar,,,,,571.4942,573.0705,0,1,0.9376,,0,17,17,46,1,REAL,FAKE,,,,,,,,,,,,,,,,,
,,,,,,,,,66e32aaad05615cfd9fcbe48,Spanish,13 or older,"no, only English or Spanish",no,2025-07-23_08h32.06.819,empathy_intonation_perc,2024.2.4,Win32,20.04008016,66e32aaad05615cfd9fcbe48,687ed1b7e638a4cbf2f02089,6880d606c649c59c620f5b6e,,,,,,,,,,,,,,1,,,,,,,,,,,,,,,,,,,,,,,,,,,,,,,,,,,,,,,,,,,,,,,,,,,,,,,,,31,pandilla,,,,,573.0712,574.7177,0,0,1.0253,,0,18,18,30,1,REAL,FAKE,,,,,,,,,,,,,,,,,
,,,,,,,,,66e32aaad05615cfd9fcbe48,Spanish,13 or older,"no, only English or Spanish",no,2025-07-23_08h32.06.819,empathy_intonation_perc,2024.2.4,Win32,20.04008016,66e32aaad05615cfd9fcbe48,687ed1b7e638a4cbf2f02089,6880d606c649c59c620f5b6e,,,,,,,,,,,,,,1,,,,,,,,,,,,,,,,,,,,,,,,,,,,,,,,,,,,,,,,,,,,,,,,,,,,,,,,,3,pulmones,,,,,574.7183,576.6178,1,1,1.1546,,0,19,19,2,1,REAL,FAKE,,,,,,,,,,,,,,,,,
,,,,,,,,,66e32aaad05615cfd9fcbe48,Spanish,13 or older,"no, only English or Spanish",no,2025-07-23_08h32.06.819,empathy_intonation_perc,2024.2.4,Win32,20.04008016,66e32aaad05615cfd9fcbe48,687ed1b7e638a4cbf2f02089,6880d606c649c59c620f5b6e,,,,,,,,,,,,,,1,,,,,,,,,,,,,,,,,,,,,,,,,,,,,,,,,,,,,,,,,,,,,,,,,,,,,,,,,57,tacaño,,,,,576.6187,579.134,0,0,1.7718,,0,20,20,56,1,REAL,FAKE,,,,,,,,,,,,,,,,,
,,,,,,,,,66e32aaad05615cfd9fcbe48,Spanish,13 or older,"no, only English or Spanish",no,2025-07-23_08h32.06.819,empathy_intonation_perc,2024.2.4,Win32,20.04008016,66e32aaad05615cfd9fcbe48,687ed1b7e638a4cbf2f02089,6880d606c649c59c620f5b6e,,,,,,,,,,,,,,1,,,,,,,,,,,,,,,,,,,,,,,,,,,,,,,,,,,,,,,,,,,,,,,,,,,,,,,,,52,camisa,,,,,579.1346,580.6507,1,1,0.8916,,0,21,21,51,1,REAL,FAKE,,,,,,,,,,,,,,,,,
,,,,,,,,,66e32aaad05615cfd9fcbe48,Spanish,13 or older,"no, only English or Spanish",no,2025-07-23_08h32.06.819,empathy_intonation_perc,2024.2.4,Win32,20.04008016,66e32aaad05615cfd9fcbe48,687ed1b7e638a4cbf2f02089,6880d606c649c59c620f5b6e,,,,,,,,,,,,,,0,,,,,,,,,,,,,,,,,,,,,,,,,,,,,,,,,,,,,,,,,,,,,,,,,,,,,,,,,27,acutación,,,,,580.6513,583.3092,0,1,1.9165,,0,22,22,26,1,REAL,FAKE,,,,,,,,,,,,,,,,,
,,,,,,,,,66e32aaad05615cfd9fcbe48,Spanish,13 or older,"no, only English or Spanish",no,2025-07-23_08h32.06.819,empathy_intonation_perc,2024.2.4,Win32,20.04008016,66e32aaad05615cfd9fcbe48,687ed1b7e638a4cbf2f02089,6880d606c649c59c620f5b6e,,,,,,,,,,,,,,1,,,,,,,,,,,,,,,,,,,,,,,,,,,,,,,,,,,,,,,,,,,,,,,,,,,,,,,,,60,matar,,,,,583.3099,585.1102,1,1,1.1715,,0,23,23,59,1,REAL,FAKE,,,,,,,,,,,,,,,,,
,,,,,,,,,66e32aaad05615cfd9fcbe48,Spanish,13 or older,"no, only English or Spanish",no,2025-07-23_08h32.06.819,empathy_intonation_perc,2024.2.4,Win32,20.04008016,66e32aaad05615cfd9fcbe48,687ed1b7e638a4cbf2f02089,6880d606c649c59c620f5b6e,,,,,,,,,,,,,,1,,,,,,,,,,,,,,,,,,,,,,,,,,,,,,,,,,,,,,,,,,,,,,,,,,,,,,,,,40,alfombra,,,,,585.1108,586.9159,0,0,1.1726,,0,24,24,39,1,REAL,FAKE,,,,,,,,,,,,,,,,,
,,,,,,,,,66e32aaad05615cfd9fcbe48,Spanish,13 or older,"no, only English or Spanish",no,2025-07-23_08h32.06.819,empathy_intonation_perc,2024.2.4,Win32,20.04008016,66e32aaad05615cfd9fcbe48,687ed1b7e638a4cbf2f02089,6880d606c649c59c620f5b6e,,,,,,,,,,,,,,1,,,,,,,,,,,,,,,,,,,,,,,,,,,,,,,,,,,,,,,,,,,,,,,,,,,,,,,,,90,clavel,,,,,586.9166,588.5562,0,0,0.8971,,0,25,25,89,1,REAL,FAKE,,,,,,,,,,,,,,,,,
,,,,,,,,,66e32aaad05615cfd9fcbe48,Spanish,13 or older,"no, only English or Spanish",no,2025-07-23_08h32.06.819,empathy_intonation_perc,2024.2.4,Win32,20.04008016,66e32aaad05615cfd9fcbe48,687ed1b7e638a4cbf2f02089,6880d606c649c59c620f5b6e,,,,,,,,,,,,,,1,,,,,,,,,,,,,,,,,,,,,,,,,,,,,,,,,,,,,,,,,,,,,,,,,,,,,,,,,78,frondoso,,,,,588.557,590.9904,0,0,1.7,,0,26,26,77,1,REAL,FAKE,,,,,,,,,,,,,,,,,
,,,,,,,,,66e32aaad05615cfd9fcbe48,Spanish,13 or older,"no, only English or Spanish",no,2025-07-23_08h32.06.819,empathy_intonation_perc,2024.2.4,Win32,20.04008016,66e32aaad05615cfd9fcbe48,687ed1b7e638a4cbf2f02089,6880d606c649c59c620f5b6e,,,,,,,,,,,,,,1,,,,,,,,,,,,,,,,,,,,,,,,,,,,,,,,,,,,,,,,,,,,,,,,,,,,,,,,,76,atar,,,,,590.991,592.4036,1,1,0.7608,,0,27,27,75,1,REAL,FAKE,,,,,,,,,,,,,,,,,
,,,,,,,,,66e32aaad05615cfd9fcbe48,Spanish,13 or older,"no, only English or Spanish",no,2025-07-23_08h32.06.819,empathy_intonation_perc,2024.2.4,Win32,20.04008016,66e32aaad05615cfd9fcbe48,687ed1b7e638a4cbf2f02089,6880d606c649c59c620f5b6e,,,,,,,,,,,,,,1,,,,,,,,,,,,,,,,,,,,,,,,,,,,,,,,,,,,,,,,,,,,,,,,,,,,,,,,,81,pozo,,,,,592.4043,594.0878,0,0,0.9464,,0,28,28,80,1,REAL,FAKE,,,,,,,,,,,,,,,,,
,,,,,,,,,66e32aaad05615cfd9fcbe48,Spanish,13 or older,"no, only English or Spanish",no,2025-07-23_08h32.06.819,empathy_intonation_perc,2024.2.4,Win32,20.04008016,66e32aaad05615cfd9fcbe48,687ed1b7e638a4cbf2f02089,6880d606c649c59c620f5b6e,,,,,,,,,,,,,,0,,,,,,,,,,,,,,,,,,,,,,,,,,,,,,,,,,,,,,,,,,,,,,,,,,,,,,,,,29,decar,,,,,594.0883,595.4853,1,0,0.7771,,0,29,29,28,1,REAL,FAKE,,,,,,,,,,,,,,,,,
,,,,,,,,,66e32aaad05615cfd9fcbe48,Spanish,13 or older,"no, only English or Spanish",no,2025-07-23_08h32.06.819,empathy_intonation_perc,2024.2.4,Win32,20.04008016,66e32aaad05615cfd9fcbe48,687ed1b7e638a4cbf2f02089,6880d606c649c59c620f5b6e,,,,,,,,,,,,,,1,,,,,,,,,,,,,,,,,,,,,,,,,,,,,,,,,,,,,,,,,,,,,,,,,,,,,,,,,73,hervidor,,,,,595.4859,597.2539,1,1,1.0292,,0,30,30,72,1,REAL,FAKE,,,,,,,,,,,,,,,,,
,,,,,,,,,66e32aaad05615cfd9fcbe48,Spanish,13 or older,"no, only English or Spanish",no,2025-07-23_08h32.06.819,empathy_intonation_perc,2024.2.4,Win32,20.04008016,66e32aaad05615cfd9fcbe48,687ed1b7e638a4cbf2f02089,6880d606c649c59c620f5b6e,,,,,,,,,,,,,,0,,,,,,,,,,,,,,,,,,,,,,,,,,,,,,,,,,,,,,,,,,,,,,,,,,,,,,,,,8,cadeña,,,,,597.2546,598.9245,1,0,1.0493,,0,31,31,7,1,REAL,FAKE,,,,,,,,,,,,,,,,,
,,,,,,,,,66e32aaad05615cfd9fcbe48,Spanish,13 or older,"no, only English or Spanish",no,2025-07-23_08h32.06.819,empathy_intonation_perc,2024.2.4,Win32,20.04008016,66e32aaad05615cfd9fcbe48,687ed1b7e638a4cbf2f02089,6880d606c649c59c620f5b6e,,,,,,,,,,,,,,1,,,,,,,,,,,,,,,,,,,,,,,,,,,,,,,,,,,,,,,,,,,,,,,,,,,,,,,,,34,aviso,,,,,598.9251,600.5897,1,1,1.0342,,0,32,32,33,1,REAL,FAKE,,,,,,,,,,,,,,,,,
,,,,,,,,,66e32aaad05615cfd9fcbe48,Spanish,13 or older,"no, only English or Spanish",no,2025-07-23_08h32.06.819,empathy_intonation_perc,2024.2.4,Win32,20.04008016,66e32aaad05615cfd9fcbe48,687ed1b7e638a4cbf2f02089,6880d606c649c59c620f5b6e,,,,,,,,,,,,,,1,,,,,,,,,,,,,,,,,,,,,,,,,,,,,,,,,,,,,,,,,,,,,,,,,,,,,,,,,91,click the 1 key.,,,,,600.5907,602.7886,1,1,1.5736,,0,33,33,90,1,REAL,FAKE,,,,,,,,,,,,,,,,,
,,,,,,,,,66e32aaad05615cfd9fcbe48,Spanish,13 or older,"no, only English or Spanish",no,2025-07-23_08h32.06.819,empathy_intonation_perc,2024.2.4,Win32,20.04008016,66e32aaad05615cfd9fcbe48,687ed1b7e638a4cbf2f02089,6880d606c649c59c620f5b6e,,,,,,,,,,,,,,0,,,,,,,,,,,,,,,,,,,,,,,,,,,,,,,,,,,,,,,,,,,,,,,,,,,,,,,,,92,click the 0 key.,,,,,602.7893,604.4468,0,1,0.9066,,0,34,34,91,1,REAL,FAKE,,,,,,,,,,,,,,,,,
,,,,,,,,,66e32aaad05615cfd9fcbe48,Spanish,13 or older,"no, only English or Spanish",no,2025-07-23_08h32.06.819,empathy_intonation_perc,2024.2.4,Win32,20.04008016,66e32aaad05615cfd9fcbe48,687ed1b7e638a4cbf2f02089,6880d606c649c59c620f5b6e,,,,,,,,,,,,,,0,,,,,,,,,,,,,,,,,,,,,,,,,,,,,,,,,,,,,,,,,,,,,,,,,,,,,,,,,53,vegada,,,,,604.4475,606.8659,0,1,1.6854,,0,35,35,52,1,REAL,FAKE,,,,,,,,,,,,,,,,,
,,,,,,,,,66e32aaad05615cfd9fcbe48,Spanish,13 or older,"no, only English or Spanish",no,2025-07-23_08h32.06.819,empathy_intonation_perc,2024.2.4,Win32,20.04008016,66e32aaad05615cfd9fcbe48,687ed1b7e638a4cbf2f02089,6880d606c649c59c620f5b6e,,,,,,,,,,,,,,0,,,,,,,,,,,,,,,,,,,,,,,,,,,,,,,,,,,,,,,,,,,,,,,,,,,,,,,,,74,cintro,,,,,606.8666,608.3942,1,0,0.9007,,0,36,36,73,1,REAL,FAKE,,,,,,,,,,,,,,,,,
,,,,,,,,,66e32aaad05615cfd9fcbe48,Spanish,13 or older,"no, only English or Spanish",no,2025-07-23_08h32.06.819,empathy_intonation_perc,2024.2.4,Win32,20.04008016,66e32aaad05615cfd9fcbe48,687ed1b7e638a4cbf2f02089,6880d606c649c59c620f5b6e,,,,,,,,,,,,,,1,,,,,,,,,,,,,,,,,,,,,,,,,,,,,,,,,,,,,,,,,,,,,,,,,,,,,,,,,37,granuja,,,,,608.3949,610.5469,0,0,1.4115,,0,37,37,36,1,REAL,FAKE,,,,,,,,,,,,,,,,,
,,,,,,,,,66e32aaad05615cfd9fcbe48,Spanish,13 or older,"no, only English or Spanish",no,2025-07-23_08h32.06.819,empathy_intonation_perc,2024.2.4,Win32,20.04008016,66e32aaad05615cfd9fcbe48,687ed1b7e638a4cbf2f02089,6880d606c649c59c620f5b6e,,,,,,,,,,,,,,0,,,,,,,,,,,,,,,,,,,,,,,,,,,,,,,,,,,,,,,,,,,,,,,,,,,,,,,,,87,grodo,,,,,610.5475,612.5716,0,1,1.2922,,0,38,38,86,1,REAL,FAKE,,,,,,,,,,,,,,,,,
,,,,,,,,,66e32aaad05615cfd9fcbe48,Spanish,13 or older,"no, only English or Spanish",no,2025-07-23_08h32.06.819,empathy_intonation_perc,2024.2.4,Win32,20.04008016,66e32aaad05615cfd9fcbe48,687ed1b7e638a4cbf2f02089,6880d606c649c59c620f5b6e,,,,,,,,,,,,,,1,,,,,,,,,,,,,,,,,,,,,,,,,,,,,,,,,,,,,,,,,,,,,,,,,,,,,,,,,15,regar,,,,,612.5722,614.6063,1,1,1.2994,,0,39,39,14,1,REAL,FAKE,,,,,,,,,,,,,,,,,
,,,,,,,,,66e32aaad05615cfd9fcbe48,Spanish,13 or older,"no, only English or Spanish",no,2025-07-23_08h32.06.819,empathy_intonation_perc,2024.2.4,Win32,20.04008016,66e32aaad05615cfd9fcbe48,687ed1b7e638a4cbf2f02089,6880d606c649c59c620f5b6e,,,,,,,,,,,,,,0,,,,,,,,,,,,,,,,,,,,,,,,,,,,,,,,,,,,,,,,,,,,,,,,,,,,,,,,,17,floroso,,,,,614.607,616.1223,0,1,0.7609,,0,40,40,16,1,REAL,FAKE,,,,,,,,,,,,,,,,,
,,,,,,,,,66e32aaad05615cfd9fcbe48,Spanish,13 or older,"no, only English or Spanish",no,2025-07-23_08h32.06.819,empathy_intonation_perc,2024.2.4,Win32,20.04008016,66e32aaad05615cfd9fcbe48,687ed1b7e638a4cbf2f02089,6880d606c649c59c620f5b6e,,,,,,,,,,,,,,1,,,,,,,,,,,,,,,,,,,,,,,,,,,,,,,,,,,,,,,,,,,,,,,,,,,,,,,,,69,engatusar,,,,,616.1231,617.7098,0,0,0.9342,,0,41,41,68,1,REAL,FAKE,,,,,,,,,,,,,,,,,
,,,,,,,,,66e32aaad05615cfd9fcbe48,Spanish,13 or older,"no, only English or Spanish",no,2025-07-23_08h32.06.819,empathy_intonation_perc,2024.2.4,Win32,20.04008016,66e32aaad05615cfd9fcbe48,687ed1b7e638a4cbf2f02089,6880d606c649c59c620f5b6e,,,,,,,,,,,,,,0,,,,,,,,,,,,,,,,,,,,,,,,,,,,,,,,,,,,,,,,,,,,,,,,,,,,,,,,,16,abracer,,,,,617.7106,619.2163,1,0,0.761,,0,42,42,15,1,REAL,FAKE,,,,,,,,,,,,,,,,,
,,,,,,,,,66e32aaad05615cfd9fcbe48,Spanish,13 or older,"no, only English or Spanish",no,2025-07-23_08h32.06.819,empathy_intonation_perc,2024.2.4,Win32,20.04008016,66e32aaad05615cfd9fcbe48,687ed1b7e638a4cbf2f02089,6880d606c649c59c620f5b6e,,,,,,,,,,,,,,1,,,,,,,,,,,,,,,,,,,,,,,,,,,,,,,,,,,,,,,,,,,,,,,,,,,,,,,,,89,prisa,,,,,619.2169,620.8622,1,1,1.0201,,0,43,43,88,1,REAL,FAKE,,,,,,,,,,,,,,,,,
,,,,,,,,,66e32aaad05615cfd9fcbe48,Spanish,13 or older,"no, only English or Spanish",no,2025-07-23_08h32.06.819,empathy_intonation_perc,2024.2.4,Win32,20.04008016,66e32aaad05615cfd9fcbe48,687ed1b7e638a4cbf2f02089,6880d606c649c59c620f5b6e,,,,,,,,,,,,,,0,,,,,,,,,,,,,,,,,,,,,,,,,,,,,,,,,,,,,,,,,,,,,,,,,,,,,,,,,19,brecedad,,,,,620.8628,622.393,0,1,0.9078,,0,44,44,18,1,REAL,FAKE,,,,,,,,,,,,,,,,,
,,,,,,,,,66e32aaad05615cfd9fcbe48,Spanish,13 or older,"no, only English or Spanish",no,2025-07-23_08h32.06.819,empathy_intonation_perc,2024.2.4,Win32,20.04008016,66e32aaad05615cfd9fcbe48,687ed1b7e638a4cbf2f02089,6880d606c649c59c620f5b6e,,,,,,,,,,,,,,0,,,,,,,,,,,,,,,,,,,,,,,,,,,,,,,,,,,,,,,,,,,,,,,,,,,,,,,,,63,esposante,,,,,622.3936,624.2945,0,1,1.1703,,0,45,45,62,1,REAL,FAKE,,,,,,,,,,,,,,,,,
,,,,,,,,,66e32aaad05615cfd9fcbe48,Spanish,13 or older,"no, only English or Spanish",no,2025-07-23_08h32.06.819,empathy_intonation_perc,2024.2.4,Win32,20.04008016,66e32aaad05615cfd9fcbe48,687ed1b7e638a4cbf2f02089,6880d606c649c59c620f5b6e,,,,,,,,,,,,,,1,,,,,,,,,,,,,,,,,,,,,,,,,,,,,,,,,,,,,,,,,,,,,,,,,,,,,,,,,51,candado,,,,,624.2951,625.9366,1,1,0.9079,,0,46,46,50,1,REAL,FAKE,,,,,,,,,,,,,,,,,
,,,,,,,,,66e32aaad05615cfd9fcbe48,Spanish,13 or older,"no, only English or Spanish",no,2025-07-23_08h32.06.819,empathy_intonation_perc,2024.2.4,Win32,20.04008016,66e32aaad05615cfd9fcbe48,687ed1b7e638a4cbf2f02089,6880d606c649c59c620f5b6e,,,,,,,,,,,,,,1,,,,,,,,,,,,,,,,,,,,,,,,,,,,,,,,,,,,,,,,,,,,,,,,,,,,,,,,,14,yunque,,,,,625.9372,627.3353,0,0,0.7676,,0,47,47,13,1,REAL,FAKE,,,,,,,,,,,,,,,,,
,,,,,,,,,66e32aaad05615cfd9fcbe48,Spanish,13 or older,"no, only English or Spanish",no,2025-07-23_08h32.06.819,empathy_intonation_perc,2024.2.4,Win32,20.04008016,66e32aaad05615cfd9fcbe48,687ed1b7e638a4cbf2f02089,6880d606c649c59c620f5b6e,,,,,,,,,,,,,,0,,,,,,,,,,,,,,,,,,,,,,,,,,,,,,,,,,,,,,,,,,,,,,,,,,,,,,,,,33,pauca,,,,,627.3361,628.7519,0,1,0.7915,0.0002,0,48,48,32,1,REAL,FAKE,,,,,,,,,,,,,,,,,
,,,,,,,,,66e32aaad05615cfd9fcbe48,Spanish,13 or older,"no, only English or Spanish",no,2025-07-23_08h32.06.819,empathy_intonation_perc,2024.2.4,Win32,20.04008016,66e32aaad05615cfd9fcbe48,687ed1b7e638a4cbf2f02089,6880d606c649c59c620f5b6e,,,,,,,,,,,,,,1,,,,,,,,,,,,,,,,,,,,,,,,,,,,,,,,,,,,,,,,,,,,,,,,,,,,,,,,,75,yacer,,,,,628.7525,630.5348,0,0,1.0234,,0,49,49,74,1,REAL,FAKE,,,,,,,,,,,,,,,,,
,,,,,,,,,66e32aaad05615cfd9fcbe48,Spanish,13 or older,"no, only English or Spanish",no,2025-07-23_08h32.06.819,empathy_intonation_perc,2024.2.4,Win32,20.04008016,66e32aaad05615cfd9fcbe48,687ed1b7e638a4cbf2f02089,6880d606c649c59c620f5b6e,,,,,,,,,,,,,,1,,,,,,,,,,,,,,,,,,,,,,,,,,,,,,,,,,,,,,,,,,,,,,,,,,,,,,,,,28,merodear,,,,,630.5355,632.5703,0,0,1.2986,,0,50,50,27,1,REAL,FAKE,,,,,,,,,,,,,,,,,
,,,,,,,,,66e32aaad05615cfd9fcbe48,Spanish,13 or older,"no, only English or Spanish",no,2025-07-23_08h32.06.819,empathy_intonation_perc,2024.2.4,Win32,20.04008016,66e32aaad05615cfd9fcbe48,687ed1b7e638a4cbf2f02089,6880d606c649c59c620f5b6e,,,,,,,,,,,,,,0,,,,,,,,,,,,,,,,,,,,,,,,,,,,,,,,,,,,,,,,,,,,,,,,,,,,,,,,,79,tropaje,,,,,632.571,634.2106,1,0,0.9025,,0,51,51,78,1,REAL,FAKE,,,,,,,,,,,,,,,,,
,,,,,,,,,66e32aaad05615cfd9fcbe48,Spanish,13 or older,"no, only English or Spanish",no,2025-07-23_08h32.06.819,empathy_intonation_perc,2024.2.4,Win32,20.04008016,66e32aaad05615cfd9fcbe48,687ed1b7e638a4cbf2f02089,6880d606c649c59c620f5b6e,,,,,,,,,,,,,,0,,,,,,,,,,,,,,,,,,,,,,,,,,,,,,,,,,,,,,,,,,,,,,,,,,,,,,,,,84,escuto,,,,,634.2112,635.7412,1,0,0.9096,,0,52,52,83,1,REAL,FAKE,,,,,,,,,,,,,,,,,
,,,,,,,,,66e32aaad05615cfd9fcbe48,Spanish,13 or older,"no, only English or Spanish",no,2025-07-23_08h32.06.819,empathy_intonation_perc,2024.2.4,Win32,20.04008016,66e32aaad05615cfd9fcbe48,687ed1b7e638a4cbf2f02089,6880d606c649c59c620f5b6e,,,,,,,,,,,,,,1,,,,,,,,,,,,,,,,,,,,,,,,,,,,,,,,,,,,,,,,,,,,,,,,,,,,,,,,,41,rebuscar,,,,,635.7418,637.7841,1,1,1.2946,,0,53,53,40,1,REAL,FAKE,,,,,,,,,,,,,,,,,
,,,,,,,,,66e32aaad05615cfd9fcbe48,Spanish,13 or older,"no, only English or Spanish",no,2025-07-23_08h32.06.819,empathy_intonation_perc,2024.2.4,Win32,20.04008016,66e32aaad05615cfd9fcbe48,687ed1b7e638a4cbf2f02089,6880d606c649c59c620f5b6e,,,,,,,,,,,,,,1,,,,,,,,,,,,,,,,,,,,,,,,,,,,,,,,,,,,,,,,,,,,,,,,,,,,,,,,,25,bisagra,,,,,637.7847,639.717,0,0,1.1658,,0,54,54,24,1,REAL,FAKE,,,,,,,,,,,,,,,,,
,,,,,,,,,66e32aaad05615cfd9fcbe48,Spanish,13 or older,"no, only English or Spanish",no,2025-07-23_08h32.06.819,empathy_intonation_perc,2024.2.4,Win32,20.04008016,66e32aaad05615cfd9fcbe48,687ed1b7e638a4cbf2f02089,6880d606c649c59c620f5b6e,,,,,,,,,,,,,,1,,,,,,,,,,,,,,,,,,,,,,,,,,,,,,,,,,,,,,,,,,,,,,,,,,,,,,,,,71,polvoriento,,,,,639.7176,641.2573,0,0,0.7807,,0,55,55,70,1,REAL,FAKE,,,,,,,,,,,,,,,,,
,,,,,,,,,66e32aaad05615cfd9fcbe48,Spanish,13 or older,"no, only English or Spanish",no,2025-07-23_08h32.06.819,empathy_intonation_perc,2024.2.4,Win32,20.04008016,66e32aaad05615cfd9fcbe48,687ed1b7e638a4cbf2f02089,6880d606c649c59c620f5b6e,,,,,,,,,,,,,,1,,,,,,,,,,,,,,,,,,,,,,,,,,,,,,,,,,,,,,,,,,,,,,,,,,,,,,,,,9,hacha,,,,,641.2579,642.799,1,1,0.9093,,0,56,56,8,1,REAL,FAKE,,,,,,,,,,,,,,,,,
,,,,,,,,,66e32aaad05615cfd9fcbe48,Spanish,13 or older,"no, only English or Spanish",no,2025-07-23_08h32.06.819,empathy_intonation_perc,2024.2.4,Win32,20.04008016,66e32aaad05615cfd9fcbe48,687ed1b7e638a4cbf2f02089,6880d606c649c59c620f5b6e,,,,,,,,,,,,,,1,,,,,,,,,,,,,,,,,,,,,,,,,,,,,,,,,,,,,,,,,,,,,,,,,,,,,,,,,65,bizcocho,,,,,642.7996,644.3175,0,0,0.7681,,0,57,57,64,1,REAL,FAKE,,,,,,,,,,,,,,,,,
,,,,,,,,,66e32aaad05615cfd9fcbe48,Spanish,13 or older,"no, only English or Spanish",no,2025-07-23_08h32.06.819,empathy_intonation_perc,2024.2.4,Win32,20.04008016,66e32aaad05615cfd9fcbe48,687ed1b7e638a4cbf2f02089,6880d606c649c59c620f5b6e,,,,,,,,,,,,,,1,,,,,,,,,,,,,,,,,,,,,,,,,,,,,,,,,,,,,,,,,,,,,,,,,,,,,,,,,67,cabello,,,,,644.3181,645.7515,1,1,0.7872,,0,58,58,66,1,REAL,FAKE,,,,,,,,,,,,,,,,,
,,,,,,,,,66e32aaad05615cfd9fcbe48,Spanish,13 or older,"no, only English or Spanish",no,2025-07-23_08h32.06.819,empathy_intonation_perc,2024.2.4,Win32,20.04008016,66e32aaad05615cfd9fcbe48,687ed1b7e638a4cbf2f02089,6880d606c649c59c620f5b6e,,,,,,,,,,,,,,1,,,,,,,,,,,,,,,,,,,,,,,,,,,,,,,,,,,,,,,,,,,,,,,,,,,,,,,,,44,cuchara,,,,,645.7522,647.4256,1,1,0.9196,,0,59,59,43,1,REAL,FAKE,,,,,,,,,,,,,,,,,
,,,,,,,,,66e32aaad05615cfd9fcbe48,Spanish,13 or older,"no, only English or Spanish",no,2025-07-23_08h32.06.819,empathy_intonation_perc,2024.2.4,Win32,20.04008016,66e32aaad05615cfd9fcbe48,687ed1b7e638a4cbf2f02089,6880d606c649c59c620f5b6e,,,,,,,,,,,,,,0,,,,,,,,,,,,,,,,,,,,,,,,,,,,,,,,,,,,,,,,,,,,,,,,,,,,,,,,,21,capillo,,,,,647.4263,649.2055,1,0,1.1601,,0,60,60,20,1,REAL,FAKE,,,,,,,,,,,,,,,,,
,,,,,,,,,66e32aaad05615cfd9fcbe48,Spanish,13 or older,"no, only English or Spanish",no,2025-07-23_08h32.06.819,empathy_intonation_perc,2024.2.4,Win32,20.04008016,66e32aaad05615cfd9fcbe48,687ed1b7e638a4cbf2f02089,6880d606c649c59c620f5b6e,,,,,,,,,,,,,,1,,,,,,,,,,,,,,,,,,,,,,,,,,,,,,,,,,,,,,,,,,,,,,,,,,,,,,,,,11,cenefa,,,,,649.2061,650.6029,0,0,0.776,,0,61,61,10,1,REAL,FAKE,,,,,,,,,,,,,,,,,
,,,,,,,,,66e32aaad05615cfd9fcbe48,Spanish,13 or older,"no, only English or Spanish",no,2025-07-23_08h32.06.819,empathy_intonation_perc,2024.2.4,Win32,20.04008016,66e32aaad05615cfd9fcbe48,687ed1b7e638a4cbf2f02089,6880d606c649c59c620f5b6e,,,,,,,,,,,,,,0,,,,,,,,,,,,,,,,,,,,,,,,,,,,,,,,,,,,,,,,,,,,,,,,,,,,,,,,,70,temblo,,,,,650.6035,652.5185,1,0,1.1659,,0,62,62,69,1,REAL,FAKE,,,,,,,,,,,,,,,,,
,,,,,,,,,66e32aaad05615cfd9fcbe48,Spanish,13 or older,"no, only English or Spanish",no,2025-07-23_08h32.06.819,empathy_intonation_perc,2024.2.4,Win32,20.04008016,66e32aaad05615cfd9fcbe48,687ed1b7e638a4cbf2f02089,6880d606c649c59c620f5b6e,,,,,,,,,,,,,,1,,,,,,,,,,,,,,,,,,,,,,,,,,,,,,,,,,,,,,,,,,,,,,,,,,,,,,,,,22,lacayo,,,,,652.5192,654.08,0,0,0.8086,,0,63,63,21,1,REAL,FAKE,,,,,,,,,,,,,,,,,
,,,,,,,,,66e32aaad05615cfd9fcbe48,Spanish,13 or older,"no, only English or Spanish",no,2025-07-23_08h32.06.819,empathy_intonation_perc,2024.2.4,Win32,20.04008016,66e32aaad05615cfd9fcbe48,687ed1b7e638a4cbf2f02089,6880d606c649c59c620f5b6e,,,,,,,,,,,,,,1,,,,,,,,,,,,,,,,,,,,,,,,,,,,,,,,,,,,,,,,,,,,,,,,,,,,,,,,,85,laúd,,,,,654.0809,655.3643,0,0,0.6484,,0,64,64,84,1,REAL,FAKE,,,,,,,,,,,,,,,,,
,,,,,,,,,66e32aaad05615cfd9fcbe48,Spanish,13 or older,"no, only English or Spanish",no,2025-07-23_08h32.06.819,empathy_intonation_perc,2024.2.4,Win32,20.04008016,66e32aaad05615cfd9fcbe48,687ed1b7e638a4cbf2f02089,6880d606c649c59c620f5b6e,,,,,,,,,,,,,,1,,,,,,,,,,,,,,,,,,,,,,,,,,,,,,,,,,,,,,,,,,,,,,,,,,,,,,,,,46,martillo,,,,,655.365,657.4242,0,0,1.318,0.0002,0,65,65,45,1,REAL,FAKE,,,,,,,,,,,,,,,,,
,,,,,,,,,66e32aaad05615cfd9fcbe48,Spanish,13 or older,"no, only English or Spanish",no,2025-07-23_08h32.06.819,empathy_intonation_perc,2024.2.4,Win32,20.04008016,66e32aaad05615cfd9fcbe48,687ed1b7e638a4cbf2f02089,6880d606c649c59c620f5b6e,,,,,,,,,,,,,,0,,,,,,,,,,,,,,,,,,,,,,,,,,,,,,,,,,,,,,,,,,,,,,,,,,,,,,,,,66,hacido,,,,,657.4248,658.954,1,0,0.7908,,0,66,66,65,1,REAL,FAKE,,,,,,,,,,,,,,,,,
,,,,,,,,,66e32aaad05615cfd9fcbe48,Spanish,13 or older,"no, only English or Spanish",no,2025-07-23_08h32.06.819,empathy_intonation_perc,2024.2.4,Win32,20.04008016,66e32aaad05615cfd9fcbe48,687ed1b7e638a4cbf2f02089,6880d606c649c59c620f5b6e,,,,,,,,,,,,,,0,,,,,,,,,,,,,,,,,,,,,,,,,,,,,,,,,,,,,,,,,,,,,,,,,,,,,,,,,72,pemición,,,,,658.9547,660.3641,0,1,0.7878,,0,67,67,71,1,REAL,FAKE,,,,,,,,,,,,,,,,,
,,,,,,,,,66e32aaad05615cfd9fcbe48,Spanish,13 or older,"no, only English or Spanish",no,2025-07-23_08h32.06.819,empathy_intonation_perc,2024.2.4,Win32,20.04008016,66e32aaad05615cfd9fcbe48,687ed1b7e638a4cbf2f02089,6880d606c649c59c620f5b6e,,,,,,,,,,,,,,0,,,,,,,,,,,,,,,,,,,,,,,,,,,,,,,,,,,,,,,,,,,,,,,,,,,,,,,,,18,arsa,,,,,660.3648,662.1945,1,0,1.0919,,0,68,68,17,1,REAL,FAKE,,,,,,,,,,,,,,,,,
,,,,,,,,,66e32aaad05615cfd9fcbe48,Spanish,13 or older,"no, only English or Spanish",no,2025-07-23_08h32.06.819,empathy_intonation_perc,2024.2.4,Win32,20.04008016,66e32aaad05615cfd9fcbe48,687ed1b7e638a4cbf2f02089,6880d606c649c59c620f5b6e,,,,,,,,,,,,,,1,,,,,,,,,,,,,,,,,,,,,,,,,,,,,,,,,,,,,,,,,,,,,,,,,,,,,,,,,80,hormiga,,,,,662.1952,663.5542,0,0,0.7045,,0,69,69,79,1,REAL,FAKE,,,,,,,,,,,,,,,,,
,,,,,,,,,66e32aaad05615cfd9fcbe48,Spanish,13 or older,"no, only English or Spanish",no,2025-07-23_08h32.06.819,empathy_intonation_perc,2024.2.4,Win32,20.04008016,66e32aaad05615cfd9fcbe48,687ed1b7e638a4cbf2f02089,6880d606c649c59c620f5b6e,,,,,,,,,,,,,,1,,,,,,,,,,,,,,,,,,,,,,,,,,,,,,,,,,,,,,,,,,,,,,,,,,,,,,,,,38,estornudar,,,,,663.5549,665.4715,0,0,1.2364,,0,70,70,37,1,REAL,FAKE,,,,,,,,,,,,,,,,,
,,,,,,,,,66e32aaad05615cfd9fcbe48,Spanish,13 or older,"no, only English or Spanish",no,2025-07-23_08h32.06.819,empathy_intonation_perc,2024.2.4,Win32,20.04008016,66e32aaad05615cfd9fcbe48,687ed1b7e638a4cbf2f02089,6880d606c649c59c620f5b6e,,,,,,,,,,,,,,0,,,,,,,,,,,,,,,,,,,,,,,,,,,,,,,,,,,,,,,,,,,,,,,,,,,,,,,,,30,alardio,,,,,665.4722,666.9999,1,0,0.9061,,0,71,71,29,1,REAL,FAKE,,,,,,,,,,,,,,,,,
,,,,,,,,,66e32aaad05615cfd9fcbe48,Spanish,13 or older,"no, only English or Spanish",no,2025-07-23_08h32.06.819,empathy_intonation_perc,2024.2.4,Win32,20.04008016,66e32aaad05615cfd9fcbe48,687ed1b7e638a4cbf2f02089,6880d606c649c59c620f5b6e,,,,,,,,,,,,,,1,,,,,,,,,,,,,,,,,,,,,,,,,,,,,,,,,,,,,,,,,,,,,,,,,,,,,,,,,56,musgo,,,,,667.0004,668.6518,0,0,1.0279,,0,72,72,55,1,REAL,FAKE,,,,,,,,,,,,,,,,,
,,,,,,,,,66e32aaad05615cfd9fcbe48,Spanish,13 or older,"no, only English or Spanish",no,2025-07-23_08h32.06.819,empathy_intonation_perc,2024.2.4,Win32,20.04008016,66e32aaad05615cfd9fcbe48,687ed1b7e638a4cbf2f02089,6880d606c649c59c620f5b6e,,,,,,,,,,,,,,1,,,,,,,,,,,,,,,,,,,,,,,,,,,,,,,,,,,,,,,,,,,,,,,,,,,,,,,,,55,nevar,,,,,668.6524,670.2999,0,0,1.0258,,0,73,73,54,1,REAL,FAKE,,,,,,,,,,,,,,,,,
,,,,,,,,,66e32aaad05615cfd9fcbe48,Spanish,13 or older,"no, only English or Spanish",no,2025-07-23_08h32.06.819,empathy_intonation_perc,2024.2.4,Win32,20.04008016,66e32aaad05615cfd9fcbe48,687ed1b7e638a4cbf2f02089,6880d606c649c59c620f5b6e,,,,,,,,,,,,,,1,,,,,,,,,,,,,,,,,,,,,,,,,,,,,,,,,,,,,,,,,,,,,,,,,,,,,,,,,39,torpe,,,,,670.3005,672.2153,1,1,1.2895,,0,74,74,38,1,REAL,FAKE,,,,,,,,,,,,,,,,,
,,,,,,,,,66e32aaad05615cfd9fcbe48,Spanish,13 or older,"no, only English or Spanish",no,2025-07-23_08h32.06.819,empathy_intonation_perc,2024.2.4,Win32,20.04008016,66e32aaad05615cfd9fcbe48,687ed1b7e638a4cbf2f02089,6880d606c649c59c620f5b6e,,,,,,,,,,,,,,1,,,,,,,,,,,,,,,,,,,,,,,,,,,,,,,,,,,,,,,,,,,,,,,,,,,,,,,,,26,secuestro,,,,,672.216,673.6308,0,0,0.7841,,0,75,75,25,1,REAL,FAKE,,,,,,,,,,,,,,,,,
,,,,,,,,,66e32aaad05615cfd9fcbe48,Spanish,13 or older,"no, only English or Spanish",no,2025-07-23_08h32.06.819,empathy_intonation_perc,2024.2.4,Win32,20.04008016,66e32aaad05615cfd9fcbe48,687ed1b7e638a4cbf2f02089,6880d606c649c59c620f5b6e,,,,,,,,,,,,,,1,,,,,,,,,,,,,,,,,,,,,,,,,,,,,,,,,,,,,,,,,,,,,,,,,,,,,,,,,61,seda,,,,,673.6314,675.2888,1,1,0.8982,,0,76,76,60,1,REAL,FAKE,,,,,,,,,,,,,,,,,
,,,,,,,,,66e32aaad05615cfd9fcbe48,Spanish,13 or older,"no, only English or Spanish",no,2025-07-23_08h32.06.819,empathy_intonation_perc,2024.2.4,Win32,20.04008016,66e32aaad05615cfd9fcbe48,687ed1b7e638a4cbf2f02089,6880d606c649c59c620f5b6e,,,,,,,,,,,,,,1,,,,,,,,,,,,,,,,,,,,,,,,,,,,,,,,,,,,,,,,,,,,,,,,,,,,,,,,,7,pésimo,,,,,675.2894,677.2597,0,0,1.3417,,0,77,77,6,1,REAL,FAKE,,,,,,,,,,,,,,,,,
,,,,,,,,,66e32aaad05615cfd9fcbe48,Spanish,13 or older,"no, only English or Spanish",no,2025-07-23_08h32.06.819,empathy_intonation_perc,2024.2.4,Win32,20.04008016,66e32aaad05615cfd9fcbe48,687ed1b7e638a4cbf2f02089,6880d606c649c59c620f5b6e,,,,,,,,,,,,,,0,,,,,,,,,,,,,,,,,,,,,,,,,,,,,,,,,,,,,,,,,,,,,,,,,,,,,,,,,58,plaudir,,,,,677.2603,678.8058,1,0,0.9136,,0,78,78,57,1,REAL,FAKE,,,,,,,,,,,,,,,,,
,,,,,,,,,66e32aaad05615cfd9fcbe48,Spanish,13 or older,"no, only English or Spanish",no,2025-07-23_08h32.06.819,empathy_intonation_perc,2024.2.4,Win32,20.04008016,66e32aaad05615cfd9fcbe48,687ed1b7e638a4cbf2f02089,6880d606c649c59c620f5b6e,,,,,,,,,,,,,,0,,,,,,,,,,,,,,,,,,,,,,,,,,,,,,,,,,,,,,,,,,,,,,,,,,,,,,,,,32,fatacidad,,,,,678.8064,680.3494,0,1,0.7955,,0,79,79,31,1,REAL,FAKE,,,,,,,,,,,,,,,,,
,,,,,,,,,66e32aaad05615cfd9fcbe48,Spanish,13 or older,"no, only English or Spanish",no,2025-07-23_08h32.06.819,empathy_intonation_perc,2024.2.4,Win32,20.04008016,66e32aaad05615cfd9fcbe48,687ed1b7e638a4cbf2f02089,6880d606c649c59c620f5b6e,,,,,,,,,,,,,,1,,,,,,,,,,,,,,,,,,,,,,,,,,,,,,,,,,,,,,,,,,,,,,,,,,,,,,,,,77,tiburón,,,,,680.3502,681.7607,0,0,0.7858,,0,80,80,76,1,REAL,FAKE,,,,,,,,,,,,,,,,,
,,,,,,,,,66e32aaad05615cfd9fcbe48,Spanish,13 or older,"no, only English or Spanish",no,2025-07-23_08h32.06.819,empathy_intonation_perc,2024.2.4,Win32,20.04008016,66e32aaad05615cfd9fcbe48,687ed1b7e638a4cbf2f02089,6880d606c649c59c620f5b6e,,,,,,,,,,,,,,1,,,,,,,,,,,,,,,,,,,,,,,,,,,,,,,,,,,,,,,,,,,,,,,,,,,,,,,,,83,guante,,,,,681.7614,683.4277,1,1,0.9104,,0,81,81,82,1,REAL,FAKE,,,,,,,,,,,,,,,,,
,,,,,,,,,66e32aaad05615cfd9fcbe48,Spanish,13 or older,"no, only English or Spanish",no,2025-07-23_08h32.06.819,empathy_intonation_perc,2024.2.4,Win32,20.04008016,66e32aaad05615cfd9fcbe48,687ed1b7e638a4cbf2f02089,6880d606c649c59c620f5b6e,,,,,,,,,,,,,,0,,,,,,,,,,,,,,,,,,,,,,,,,,,,,,,,,,,,,,,,,,,,,,,,,,,,,,,,,4,batillón,,,,,683.4283,686.3713,0,1,2.209,,0,82,82,3,1,REAL,FAKE,,,,,,,,,,,,,,,,,
,,,,,,,,,66e32aaad05615cfd9fcbe48,Spanish,13 or older,"no, only English or Spanish",no,2025-07-23_08h32.06.819,empathy_intonation_perc,2024.2.4,Win32,20.04008016,66e32aaad05615cfd9fcbe48,687ed1b7e638a4cbf2f02089,6880d606c649c59c620f5b6e,,,,,,,,,,,,,,1,,,,,,,,,,,,,,,,,,,,,,,,,,,,,,,,,,,,,,,,,,,,,,,,,,,,,,,,,86,barato,,,,,686.3721,688.0205,1,1,0.9085,,0,83,83,85,1,REAL,FAKE,,,,,,,,,,,,,,,,,
,,,,,,,,,66e32aaad05615cfd9fcbe48,Spanish,13 or older,"no, only English or Spanish",no,2025-07-23_08h32.06.819,empathy_intonation_perc,2024.2.4,Win32,20.04008016,66e32aaad05615cfd9fcbe48,687ed1b7e638a4cbf2f02089,6880d606c649c59c620f5b6e,,,,,,,,,,,,,,0,,,,,,,,,,,,,,,,,,,,,,,,,,,,,,,,,,,,,,,,,,,,,,,,,,,,,,,,,10,antar,,,,,688.0211,689.4433,0,1,0.779,,0,84,84,9,1,REAL,FAKE,,,,,,,,,,,,,,,,,
,,,,,,,,,66e32aaad05615cfd9fcbe48,Spanish,13 or older,"no, only English or Spanish",no,2025-07-23_08h32.06.819,empathy_intonation_perc,2024.2.4,Win32,20.04008016,66e32aaad05615cfd9fcbe48,687ed1b7e638a4cbf2f02089,6880d606c649c59c620f5b6e,,,,,,,,,,,,,,1,,,,,,,,,,,,,,,,,,,,,,,,,,,,,,,,,,,,,,,,,,,,,,,,,,,,,,,,,12,asesinato,,,,,689.4439,690.9902,0,0,0.9196,9.99999E-05,0,85,85,11,1,REAL,FAKE,,,,,,,,,,,,,,,,,
,,,,,,,,,66e32aaad05615cfd9fcbe48,Spanish,13 or older,"no, only English or Spanish",no,2025-07-23_08h32.06.819,empathy_intonation_perc,2024.2.4,Win32,20.04008016,66e32aaad05615cfd9fcbe48,687ed1b7e638a4cbf2f02089,6880d606c649c59c620f5b6e,,,,,,,,,,,,,,0,,,,,,,,,,,,,,,,,,,,,,,,,,,,,,,,,,,,,,,,,,,,,,,,,,,,,,,,,23,lampera,,,,,690.9908,693.0716,0,1,1.4361,,0,86,86,22,1,REAL,FAKE,,,,,,,,,,,,,,,,,
,,,,,,,,,66e32aaad05615cfd9fcbe48,Spanish,13 or older,"no, only English or Spanish",no,2025-07-23_08h32.06.819,empathy_intonation_perc,2024.2.4,Win32,20.04008016,66e32aaad05615cfd9fcbe48,687ed1b7e638a4cbf2f02089,6880d606c649c59c620f5b6e,,,,,,,,,,,,,,1,,,,,,,,,,,,,,,,,,,,,,,,,,,,,,,,,,,,,,,,,,,,,,,,,,,,,,,,,2,pellizcar,,,,,693.0722,694.6183,0,0,0.9038,,0,87,87,1,1,REAL,FAKE,,,,,,,,,,,,,,,,,
,,,,,,,,,66e32aaad05615cfd9fcbe48,Spanish,13 or older,"no, only English or Spanish",no,2025-07-23_08h32.06.819,empathy_intonation_perc,2024.2.4,Win32,20.04008016,66e32aaad05615cfd9fcbe48,687ed1b7e638a4cbf2f02089,6880d606c649c59c620f5b6e,,,,,,,,,,,,,,0,,,,,,,,,,,,,,,,,,,,,,,,,,,,,,,,,,,,,,,,,,,,,,,,,,,,,,,,,82,empirador,,,,,694.6188,696.2741,1,0,0.9009,,0,88,88,81,1,REAL,FAKE,,,,,,,,,,,,,,,,,
,,,,,,,,,66e32aaad05615cfd9fcbe48,Spanish,13 or older,"no, only English or Spanish",no,2025-07-23_08h32.06.819,empathy_intonation_perc,2024.2.4,Win32,20.04008016,66e32aaad05615cfd9fcbe48,687ed1b7e638a4cbf2f02089,6880d606c649c59c620f5b6e,,,,,,,,,,,,,,0,,,,,,,,,,,,,,,,,,,,,,,,,,,,,,,,,,,,,,,,,,,,,,,,,,,,,,,,,1,terzo,,,,,696.2748,697.8057,1,0,0.9057,,0,89,89,0,1,REAL,FAKE,,,,,,,,,,,,,,,,,
,,,,,,,,,66e32aaad05615cfd9fcbe48,Spanish,13 or older,"no, only English or Spanish",no,2025-07-23_08h32.06.819,empathy_intonation_perc,2024.2.4,Win32,20.04008016,66e32aaad05615cfd9fcbe48,687ed1b7e638a4cbf2f02089,6880d606c649c59c620f5b6e,,,,,,,,,,,,,,1,,,,,,,,,,,,,,,,,,,,,,,,,,,,,,,,,,,,,,,,,,,,,,,,,,,,,,,,,64,orgulloso,,,,,697.8063,699.3321,0,0,0.7728,,0,90,90,63,1,REAL,FAKE,,,,,,,,,,,,,,,,,
,,,,,,,,,66e32aaad05615cfd9fcbe48,Spanish,13 or older,"no, only English or Spanish",no,2025-07-23_08h32.06.819,empathy_intonation_perc,2024.2.4,Win32,20.04008016,66e32aaad05615cfd9fcbe48,687ed1b7e638a4cbf2f02089,6880d606c649c59c620f5b6e,,,,,,,,,,,,,,1,,,,,,,,,,,,,,,,,,,,,,,,,,,,,,,,,,,,,,,,,,,,,,,,,,,,,,,,,43,canela,,,,,699.3328,700.7388,1,1,0.7775,,0,91,91,42,1,REAL,FAKE,,,,,,,,,,,,,,,,,
,,,,,,,,,66e32aaad05615cfd9fcbe48,Spanish,13 or older,"no, only English or Spanish",no,2025-07-23_08h32.06.819,empathy_intonation_perc,2024.2.4,Win32,20.04008016,66e32aaad05615cfd9fcbe48,687ed1b7e638a4cbf2f02089,6880d606c649c59c620f5b6e,,,,,,,,,,,,,,,,,,,,,,,,,,,,,,,,,,,,,,,,,,,,,,,,,,,,,,,,,,,,,,,,,,,,,,,,,,,,,,,,,,,,,,,,,,700.7391,708.3748,,,,,,,,,,,,,,,
,,,,,,,,,66e32aaad05615cfd9fcbe48,Spanish,13 or older,"no, only English or Spanish",no,2025-07-23_08h32.06.819,empathy_intonation_perc,2024.2.4,Win32,20.04008016,66e32aaad05615cfd9fcbe48,687ed1b7e638a4cbf2f02089,6880d606c649c59c620f5b6e,,,,,,,,,,,,,1,,,,,,,,,,,,,,,,,,,,,,,,,,,,,,,,,,,,,,,,,,,,,,,,,,,,,,,,,,,,,,,,,,,,,,,,,,,,,,,708.3815,712.7655,slightly agree,0,0,0,0,1,I can easily tell if someone else wants to enter a conversation.,1,0,1,0,,
,,,,,,,,,66e32aaad05615cfd9fcbe48,Spanish,13 or older,"no, only English or Spanish",no,2025-07-23_08h32.06.819,empathy_intonation_perc,2024.2.4,Win32,20.04008016,66e32aaad05615cfd9fcbe48,687ed1b7e638a4cbf2f02089,6880d606c649c59c620f5b6e,,,,,,,,,,,,,2,,,,,,,,,,,,,,,,,,,,,,,,,,,,,,,,,,,,,,,,,,,,,,,,,,,,,,,,,,,,,,,,,,,,,,,,,,,,,,,712.767,715.6126,slightly disagree,0,1,1,1,1,I prefer animals to humans.,0,1,0,0,,
,,,,,,,,,66e32aaad05615cfd9fcbe48,Spanish,13 or older,"no, only English or Spanish",no,2025-07-23_08h32.06.819,empathy_intonation_perc,2024.2.4,Win32,20.04008016,66e32aaad05615cfd9fcbe48,687ed1b7e638a4cbf2f02089,6880d606c649c59c620f5b6e,,,,,,,,,,,,,3,,,,,,,,,,,,,,,,,,,,,,,,,,,,,,,,,,,,,,,,,,,,,,,,,,,,,,,,,,,,,,,,,,,,,,,,,,,,,,,715.6139,718.5385,slightly disagree,0,2,2,2,1,I try to keep up with the current trends and fashions.,0,1,0,0,,
,,,,,,,,,66e32aaad05615cfd9fcbe48,Spanish,13 or older,"no, only English or Spanish",no,2025-07-23_08h32.06.819,empathy_intonation_perc,2024.2.4,Win32,20.04008016,66e32aaad05615cfd9fcbe48,687ed1b7e638a4cbf2f02089,6880d606c649c59c620f5b6e,,,,,,,,,,,,,4,,,,,,,,,,,,,,,,,,,,,,,,,,,,,,,,,,,,,,,,,,,,,,,,,,,,,,,,,,,,,,,,,,,,,,,,,,,,,,,718.5399,722.1959,slightly disagree,0,3,3,3,1,"I find it difficult to explain to others things that I understand easily,   when they don't understand it first time.",1,0,0,1,,
,,,,,,,,,66e32aaad05615cfd9fcbe48,Spanish,13 or older,"no, only English or Spanish",no,2025-07-23_08h32.06.819,empathy_intonation_perc,2024.2.4,Win32,20.04008016,66e32aaad05615cfd9fcbe48,687ed1b7e638a4cbf2f02089,6880d606c649c59c620f5b6e,,,,,,,,,,,,,5,,,,,,,,,,,,,,,,,,,,,,,,,,,,,,,,,,,,,,,,,,,,,,,,,,,,,,,,,,,,,,,,,,,,,,,,,,,,,,,722.1967,724.4709,slightly agree,0,4,4,4,1,I dream most nights.,0,1,0,0,,
,,,,,,,,,66e32aaad05615cfd9fcbe48,Spanish,13 or older,"no, only English or Spanish",no,2025-07-23_08h32.06.819,empathy_intonation_perc,2024.2.4,Win32,20.04008016,66e32aaad05615cfd9fcbe48,687ed1b7e638a4cbf2f02089,6880d606c649c59c620f5b6e,,,,,,,,,,,,,6,,,,,,,,,,,,,,,,,,,,,,,,,,,,,,,,,,,,,,,,,,,,,,,,,,,,,,,,,,,,,,,,,,,,,,,,,,,,,,,724.4717,726.886,slightly disagree,0,5,5,5,1,I really enjoy caring for other people.,1,0,1,0,,
,,,,,,,,,66e32aaad05615cfd9fcbe48,Spanish,13 or older,"no, only English or Spanish",no,2025-07-23_08h32.06.819,empathy_intonation_perc,2024.2.4,Win32,20.04008016,66e32aaad05615cfd9fcbe48,687ed1b7e638a4cbf2f02089,6880d606c649c59c620f5b6e,,,,,,,,,,,,,7,,,,,,,,,,,,,,,,,,,,,,,,,,,,,,,,,,,,,,,,,,,,,,,,,,,,,,,,,,,,,,,,,,,,,,,,,,,,,,,726.8873,729.4037,strongly agree,0,6,6,6,1,I try to solve my own problems rather than discussing them with others.,0,1,0,0,,
,,,,,,,,,66e32aaad05615cfd9fcbe48,Spanish,13 or older,"no, only English or Spanish",no,2025-07-23_08h32.06.819,empathy_intonation_perc,2024.2.4,Win32,20.04008016,66e32aaad05615cfd9fcbe48,687ed1b7e638a4cbf2f02089,6880d606c649c59c620f5b6e,,,,,,,,,,,,,8,,,,,,,,,,,,,,,,,,,,,,,,,,,,,,,,,,,,,,,,,,,,,,,,,,,,,,,,,,,,,,,,,,,,,,,,,,,,,,,729.4045,732.7412,slightly disagree,0,7,7,7,1,I find it hard to know what to do in a social situation.,1,0,0,1,,
,,,,,,,,,66e32aaad05615cfd9fcbe48,Spanish,13 or older,"no, only English or Spanish",no,2025-07-23_08h32.06.819,empathy_intonation_perc,2024.2.4,Win32,20.04008016,66e32aaad05615cfd9fcbe48,687ed1b7e638a4cbf2f02089,6880d606c649c59c620f5b6e,,,,,,,,,,,,,9,,,,,,,,,,,,,,,,,,,,,,,,,,,,,,,,,,,,,,,,,,,,,,,,,,,,,,,,,,,,,,,,,,,,,,,,,,,,,,,732.742,735.2952,slightly disagree,0,8,8,8,1,I am at my best first thing in the morning.,0,1,0,0,,
