instructions_exposure.started,instructions_exposure.stopped,instructions_exposure_loop.thisRepN,instructions_exposure_loop.thisTrialN,instructions_exposure_loop.thisN,instructions_exposure_loop.thisIndex,instructions_exposure_loop.ran,instructions_text,continue_text,participant_id,"What variety of Spanish are you most familiar with? (e.g., Peruvian, Spanish, Mexican)",At what age did you begin learning Spanish?,Are you proficient in any languages other than English/Spanish?,"Are you familiar with Caribbean (e.g., Caribbean, Puerto Rican) or Galician Spanish?",date,expName,psychopyVersion,OS,frameRate,id,study_id,session,trial_exposure.started,trial_exposure.stopped,key_resp_exposure.keys,key_resp_exposure.corr,key_resp_exposure.rt,key_resp_exposure.duration,key_resp.keys,key_resp.rt,key_resp.duration,exposure_loop.thisRepN,exposure_loop.thisTrialN,exposure_loop.thisN,exposure_loop.thisIndex,exposure_loop.ran,item_num,correct_response,question,path,duration,instructions_2afc.started,instructions_2afc.stopped,instructions_2afc_loop.thisRepN,instructions_2afc_loop.thisTrialN,instructions_2afc_loop.thisN,instructions_2afc_loop.thisIndex,instructions_2afc_loop.ran,practice_2afc.started,practice_2afc.stopped,key_resp_2afc_practice.keys,key_resp_2afc_practice.corr,key_resp_2afc_practice.rt,key_resp_2afc_practice.duration,trials_2afc_practice_loop.thisRepN,trials_2afc_practice_loop.thisTrialN,trials_2afc_practice_loop.thisN,trials_2afc_practice_loop.thisIndex,trials_2afc_practice_loop.ran,check_2afc.started,check_2afc.stopped,trial_2afc.started,trial_2afc.stopped,key_resp_2afc_trial.keys,key_resp_2afc_trial.corr,key_resp_2afc_trial.rt,key_resp_2afc_trial.duration,trials_2afc_loop.thisRepN,trials_2afc_loop.thisTrialN,trials_2afc_loop.thisN,trials_2afc_loop.thisIndex,trials_2afc_loop.ran,target,variety,instructions_lextale.started,instructions_lextale.stopped,instructions_lextale_loop.thisRepN,instructions_lextale_loop.thisTrialN,instructions_lextale_loop.thisN,instructions_lextale_loop.thisIndex,instructions_lextale_loop.ran,practice_lextale.started,practice_lextale.stopped,key_resp_lextale_practice.keys,key_resp_lextale_practice.corr,key_resp_lextale_practice.rt,key_resp_lextale_practice.duration,practice_feedback_lextale.started,practice_feedback_lextale.stopped,trials_lextale_practice_loop.thisRepN,trials_lextale_practice_loop.thisTrialN,trials_lextale_practice_loop.thisN,trials_lextale_practice_loop.thisIndex,trials_lextale_practice_loop.ran,stim,word,prac_button_real,prac_button_false,check_lextale.started,check_lextale.stopped,trial_lextale.started,trial_lextale.stopped,key_resp_lextale_trial.keys,key_resp_lextale_trial.corr,key_resp_lextale_trial.rt,key_resp_lextale_trial.duration,trials_lextale_loop.thisRepN,trials_lextale_loop.thisTrialN,trials_lextale_loop.thisN,trials_lextale_loop.thisIndex,trials_lextale_loop.ran,button_real,button_false,instructions_eq.started,instructions_eq.stopped,trial_eq.started,trial_eq.stopped,slider_eq_trial.response,trials_eq_loop.thisRepN,trials_eq_loop.thisTrialN,trials_eq_loop.thisN,trials_eq_loop.thisIndex,trials_eq_loop.ran,item,is_test_item,is_distractor,is_agree_score,is_disagree_score,end_exp.started,end_exp.stopped
0.0198,49.3302,0,0,0,0,1,"In the following task, you are going to hear a series of conversations.", (press the space bar to continue),671165ce01cd9c2699b90dc1,mexican,13 or older,"no, only English or Spanish",no,2025-08-12_14h18.06.064,empathy_intonation_perc,2024.2.4,Win32,59.88023952,671165ce01cd9c2699b90dc1,687ed1b7e638a4cbf2f02089,689b851063c6223382be1ffd,,,,,,,,,,,,,,,,,,,,,,,,,,,,,,,,,,,,,,,,,,,,,,,,,,,,,,,,,,,,,,,,,,,,,,,,,,,,,,,,,,,,,,,,,,,,,,,,,,,,,,,,,,,,
49.3325,53.7606,0,1,1,1,1,It is okay if you don't not 100% understand them!, (press the space bar to continue),671165ce01cd9c2699b90dc1,mexican,13 or older,"no, only English or Spanish",no,2025-08-12_14h18.06.064,empathy_intonation_perc,2024.2.4,Win32,59.88023952,671165ce01cd9c2699b90dc1,687ed1b7e638a4cbf2f02089,689b851063c6223382be1ffd,,,,,,,,,,,,,,,,,,,,,,,,,,,,,,,,,,,,,,,,,,,,,,,,,,,,,,,,,,,,,,,,,,,,,,,,,,,,,,,,,,,,,,,,,,,,,,,,,,,,,,,,,,,,
53.7853,57.6241,0,2,2,2,1,"After, you will read a sentence about the conversation and decide if it's true or false.", (press the space bar to continue),671165ce01cd9c2699b90dc1,mexican,13 or older,"no, only English or Spanish",no,2025-08-12_14h18.06.064,empathy_intonation_perc,2024.2.4,Win32,59.88023952,671165ce01cd9c2699b90dc1,687ed1b7e638a4cbf2f02089,689b851063c6223382be1ffd,,,,,,,,,,,,,,,,,,,,,,,,,,,,,,,,,,,,,,,,,,,,,,,,,,,,,,,,,,,,,,,,,,,,,,,,,,,,,,,,,,,,,,,,,,,,,,,,,,,,,,,,,,,,
57.6447,60.5557,0,3,3,3,1,"If it's true, press '1' (True) and if it's false press '0' (False).", (press the space bar to continue),671165ce01cd9c2699b90dc1,mexican,13 or older,"no, only English or Spanish",no,2025-08-12_14h18.06.064,empathy_intonation_perc,2024.2.4,Win32,59.88023952,671165ce01cd9c2699b90dc1,687ed1b7e638a4cbf2f02089,689b851063c6223382be1ffd,,,,,,,,,,,,,,,,,,,,,,,,,,,,,,,,,,,,,,,,,,,,,,,,,,,,,,,,,,,,,,,,,,,,,,,,,,,,,,,,,,,,,,,,,,,,,,,,,,,,,,,,,,,,
,,,,,,,,,671165ce01cd9c2699b90dc1,mexican,13 or older,"no, only English or Spanish",no,2025-08-12_14h18.06.064,empathy_intonation_perc,2024.2.4,Win32,59.88023952,671165ce01cd9c2699b90dc1,687ed1b7e638a4cbf2f02089,689b851063c6223382be1ffd,60.5839,142.6955,c,0,22.0283,,c,82.0975,,0,0,0,1,1,2,1,The mom asked the daughter if she already went to the supermarket.,./stim/exposure_wavs/dr_stimuli_convo.wav,60,,,,,,,,,,,,,,,,,,,,,,,,,,,,,,,,,,,,,,,,,,,,,,,,,,,,,,,,,,,,,,,,,,,,,,,,,,,,,,,,,,,,,,,,,
,,,,,,,,,671165ce01cd9c2699b90dc1,mexican,13 or older,"no, only English or Spanish",no,2025-08-12_14h18.06.064,empathy_intonation_perc,2024.2.4,Win32,59.88023952,671165ce01cd9c2699b90dc1,687ed1b7e638a4cbf2f02089,689b851063c6223382be1ffd,142.7144,168.1796,,0,,,c,25.4521,,0,1,1,2,1,3,0,The mom already has rice.,./stim/exposure_wavs/pr_stimuli_convo.wav,36,,,,,,,,,,,,,,,,,,,,,,,,,,,,,,,,,,,,,,,,,,,,,,,,,,,,,,,,,,,,,,,,,,,,,,,,,,,,,,,,,,,,,,,,,
,,,,,,,,,671165ce01cd9c2699b90dc1,mexican,13 or older,"no, only English or Spanish",no,2025-08-12_14h18.06.064,empathy_intonation_perc,2024.2.4,Win32,59.88023952,671165ce01cd9c2699b90dc1,687ed1b7e638a4cbf2f02089,689b851063c6223382be1ffd,168.1968,220.0847,c,0,4.8484,,c,51.8726,,0,2,2,0,1,1,1,The son asked the mom if Aunt Marina is okay.,./stim/exposure_wavs/ga_stimuli_convo.wav,47,,,,,,,,,,,,,,,,,,,,,,,,,,,,,,,,,,,,,,,,,,,,,,,,,,,,,,,,,,,,,,,,,,,,,,,,,,,,,,,,,,,,,,,,,
,,,,,,,"In the following task you are going to hear a series of utterances. 

  You will decide if the utterances sound like questions or not using your keyboard.", (press the spacebar to continue),671165ce01cd9c2699b90dc1,mexican,13 or older,"no, only English or Spanish",no,2025-08-12_14h18.06.064,empathy_intonation_perc,2024.2.4,Win32,59.88023952,671165ce01cd9c2699b90dc1,687ed1b7e638a4cbf2f02089,689b851063c6223382be1ffd,,,,,,,,,,,,,,,,,,,,220.1103,227.6651,0,0,0,0,1,,,,,,,,,,,,,,,,,,,,,,,,,,,,,,,,,,,,,,,,,,,,,,,,,,,,,,,,,,,,,,,,,,,,,,,,,,,,,,,,,,
,,,,,,,"If you believe the utterance is a question, type '1' (for 'yes') and if you do not 
  believe it is a question type '0' (for 'no').

  Let's practice a bit...", (press the spacebar to continue),671165ce01cd9c2699b90dc1,mexican,13 or older,"no, only English or Spanish",no,2025-08-12_14h18.06.064,empathy_intonation_perc,2024.2.4,Win32,59.88023952,671165ce01cd9c2699b90dc1,687ed1b7e638a4cbf2f02089,689b851063c6223382be1ffd,,,,,,,,,,,,,,,,,,,,227.6794,240.7411,0,1,1,1,1,,,,,,,,,,,,,,,,,,,,,,,,,,,,,,,,,,,,,,,,,,,,,,,,,,,,,,,,,,,,,,,,,,,,,,,,,,,,,,,,,,
,,,,,,,,,671165ce01cd9c2699b90dc1,mexican,13 or older,"no, only English or Spanish",no,2025-08-12_14h18.06.064,empathy_intonation_perc,2024.2.4,Win32,59.88023952,671165ce01cd9c2699b90dc1,687ed1b7e638a4cbf2f02089,689b851063c6223382be1ffd,,,,,,,,,,,,,,,,0,,./stim/wavs/andalusian_statement_filler_Alberto-nunca-se-afeita.wav,,,,,,,,,240.7689,243.5063,0,1,2.2092,,0,0,0,5,1,,,,,,,,,,,,,,,,,,,,,,,,,,,,,,,,,,,,,,,,,,,,,,,,,,,,,,,,,,,,,,,,,,,,,,,
,,,,,,,,,671165ce01cd9c2699b90dc1,mexican,13 or older,"no, only English or Spanish",no,2025-08-12_14h18.06.064,empathy_intonation_perc,2024.2.4,Win32,59.88023952,671165ce01cd9c2699b90dc1,687ed1b7e638a4cbf2f02089,689b851063c6223382be1ffd,,,,,,,,,,,,,,,,0,,./stim/wavs/peruvian_statement_filler_El-nino-habla-con-su-madre.wav,,,,,,,,,243.5082,246.1915,1,0,2.1576,,0,1,1,6,1,,,,,,,,,,,,,,,,,,,,,,,,,,,,,,,,,,,,,,,,,,,,,,,,,,,,,,,,,,,,,,,,,,,,,,,
,,,,,,,,,671165ce01cd9c2699b90dc1,mexican,13 or older,"no, only English or Spanish",no,2025-08-12_14h18.06.064,empathy_intonation_perc,2024.2.4,Win32,59.88023952,671165ce01cd9c2699b90dc1,687ed1b7e638a4cbf2f02089,689b851063c6223382be1ffd,,,,,,,,,,,,,,,,0,,./stim/wavs/cuban_statement_filler_Cocinabas-por-la-noche.wav,,,,,,,,,246.1945,248.2867,0,1,1.5706,,0,2,2,4,1,,,,,,,,,,,,,,,,,,,,,,,,,,,,,,,,,,,,,,,,,,,,,,,,,,,,,,,,,,,,,,,,,,,,,,,
,,,,,,,,,671165ce01cd9c2699b90dc1,mexican,13 or older,"no, only English or Spanish",no,2025-08-12_14h18.06.064,empathy_intonation_perc,2024.2.4,Win32,59.88023952,671165ce01cd9c2699b90dc1,687ed1b7e638a4cbf2f02089,689b851063c6223382be1ffd,,,,,,,,,,,,,,,,1,,./stim/wavs/chilean_question_filler_Mi-padre-cantaba-bien.wav,,,,,,,,,248.2901,250.7106,1,1,1.8965,,0,3,3,2,1,,,,,,,,,,,,,,,,,,,,,,,,,,,,,,,,,,,,,,,,,,,,,,,,,,,,,,,,,,,,,,,,,,,,,,,
,,,,,,,,,671165ce01cd9c2699b90dc1,mexican,13 or older,"no, only English or Spanish",no,2025-08-12_14h18.06.064,empathy_intonation_perc,2024.2.4,Win32,59.88023952,671165ce01cd9c2699b90dc1,687ed1b7e638a4cbf2f02089,689b851063c6223382be1ffd,,,,,,,,,,,,,,,,1,,./stim/wavs/mexican_question_filler_Felipe-no-tiene-contrasena.wav,,,,,,,,,250.7114,253.2968,1,1,2.0609,,0,4,4,3,1,,,,,,,,,,,,,,,,,,,,,,,,,,,,,,,,,,,,,,,,,,,,,,,,,,,,,,,,,,,,,,,,,,,,,,,
,,,,,,,,,671165ce01cd9c2699b90dc1,mexican,13 or older,"no, only English or Spanish",no,2025-08-12_14h18.06.064,empathy_intonation_perc,2024.2.4,Win32,59.88023952,671165ce01cd9c2699b90dc1,687ed1b7e638a4cbf2f02089,689b851063c6223382be1ffd,,,,,,,,,,,,,,,,1,,./stim/wavs/castilian_question_filler_Mi-esposo-conoce-al-chico.wav,,,,,,,,,253.3145,255.9488,1,1,2.1163,,0,5,5,0,1,,,,,,,,,,,,,,,,,,,,,,,,,,,,,,,,,,,,,,,,,,,,,,,,,,,,,,,,,,,,,,,,,,,,,,,
,,,,,,,,,671165ce01cd9c2699b90dc1,mexican,13 or older,"no, only English or Spanish",no,2025-08-12_14h18.06.064,empathy_intonation_perc,2024.2.4,Win32,59.88023952,671165ce01cd9c2699b90dc1,687ed1b7e638a4cbf2f02089,689b851063c6223382be1ffd,,,,,,,,,,,,,,,,0,,./stim/wavs/puertorican_statement_filler_La-nina-pinta-con-su-amiga.wav,,,,,,,,,255.9497,258.8133,0,1,2.3349,,0,6,6,7,1,,,,,,,,,,,,,,,,,,,,,,,,,,,,,,,,,,,,,,,,,,,,,,,,,,,,,,,,,,,,,,,,,,,,,,,
,,,,,,,,,671165ce01cd9c2699b90dc1,mexican,13 or older,"no, only English or Spanish",no,2025-08-12_14h18.06.064,empathy_intonation_perc,2024.2.4,Win32,59.88023952,671165ce01cd9c2699b90dc1,687ed1b7e638a4cbf2f02089,689b851063c6223382be1ffd,,,,,,,,,,,,,,,,1,,./stim/wavs/argentine_question_filler_Mi-vecino-habla-mucho.wav,,,,,,,,,258.8143,260.6621,0,0,1.3227,,0,7,7,1,1,,,,,,,,,,,,,,,,,,,,,,,,,,,,,,,,,,,,,,,,,,,,,,,,,,,,,,,,,,,,,,,,,,,,,,,
,,,,,,,,,671165ce01cd9c2699b90dc1,mexican,13 or older,"no, only English or Spanish",no,2025-08-12_14h18.06.064,empathy_intonation_perc,2024.2.4,Win32,59.88023952,671165ce01cd9c2699b90dc1,687ed1b7e638a4cbf2f02089,689b851063c6223382be1ffd,,,,,,,,,,,,,,,,,,,,,,,,,,,,,,,,,,,,,,260.6634,264.3941,,,,,,,,,,,,,,,,,,,,,,,,,,,,,,,,,,,,,,,,,,,,,,,,,,,,,,,,,,,,,,,,,,,,,
,,,,,,,,,671165ce01cd9c2699b90dc1,mexican,13 or older,"no, only English or Spanish",no,2025-08-12_14h18.06.064,empathy_intonation_perc,2024.2.4,Win32,59.88023952,671165ce01cd9c2699b90dc1,687ed1b7e638a4cbf2f02089,689b851063c6223382be1ffd,,,,,,,,,,,,,,,1,1,,./stim/wavs/castilian_match_interrogative-total-yn_David-leia-el-libro.wav,,,,,,,,,,,,,,,,,,,,,,264.4222,266.7755,1,1,1.8332,,0,0,0,0,1,0,castilian,,,,,,,,,,,,,,,,,,,,,,,,,,,,,,,,,,,,,,,,,,,,,,,,,,,,,,,,
,,,,,,,,,671165ce01cd9c2699b90dc1,mexican,13 or older,"no, only English or Spanish",no,2025-08-12_14h18.06.064,empathy_intonation_perc,2024.2.4,Win32,59.88023952,671165ce01cd9c2699b90dc1,687ed1b7e638a4cbf2f02089,689b851063c6223382be1ffd,,,,,,,,,,,,,,,33,1,,./stim/wavs/cuban_mismatch_interrogative-total-yn_Mi-novio-viene-del-lago.wav,,,,,,,,,,,,,,,,,,,,,,266.7772,269.2072,0,0,1.8965,,0,1,1,32,1,1,cuban,,,,,,,,,,,,,,,,,,,,,,,,,,,,,,,,,,,,,,,,,,,,,,,,,,,,,,,,
,,,,,,,,,671165ce01cd9c2699b90dc1,mexican,13 or older,"no, only English or Spanish",no,2025-08-12_14h18.06.064,empathy_intonation_perc,2024.2.4,Win32,59.88023952,671165ce01cd9c2699b90dc1,687ed1b7e638a4cbf2f02089,689b851063c6223382be1ffd,,,,,,,,,,,,,,,68,0,,./stim/wavs/puertorican_match_declarative-broad-focus_Maria-bebe-el-vino.wav,,,,,,,,,,,,,,,,,,,,,,269.2214,271.0897,0,1,1.3478,,0,2,2,67,1,0,puertorican,,,,,,,,,,,,,,,,,,,,,,,,,,,,,,,,,,,,,,,,,,,,,,,,,,,,,,,,
,,,,,,,,,671165ce01cd9c2699b90dc1,mexican,13 or older,"no, only English or Spanish",no,2025-08-12_14h18.06.064,empathy_intonation_perc,2024.2.4,Win32,59.88023952,671165ce01cd9c2699b90dc1,687ed1b7e638a4cbf2f02089,689b851063c6223382be1ffd,,,,,,,,,,,,,,,40,1,,./stim/wavs/puertorican_mismatch_interrogative-total-yn_El-hombre-mira-la-luna.wav,,,,,,,,,,,,,,,,,,,,,,271.0908,273.1238,1,1,1.5209,,0,3,3,39,1,1,puertorican,,,,,,,,,,,,,,,,,,,,,,,,,,,,,,,,,,,,,,,,,,,,,,,,,,,,,,,,
,,,,,,,,,671165ce01cd9c2699b90dc1,mexican,13 or older,"no, only English or Spanish",no,2025-08-12_14h18.06.064,empathy_intonation_perc,2024.2.4,Win32,59.88023952,671165ce01cd9c2699b90dc1,687ed1b7e638a4cbf2f02089,689b851063c6223382be1ffd,,,,,,,,,,,,,,,48,0,,./stim/wavs/castilian_match_declarative-broad-focus_Maria-bebe-el-vino.wav,,,,,,,,,,,,,,,,,,,,,,273.1272,275.6708,0,1,2.0179,,0,4,4,47,1,0,castilian,,,,,,,,,,,,,,,,,,,,,,,,,,,,,,,,,,,,,,,,,,,,,,,,,,,,,,,,
,,,,,,,,,671165ce01cd9c2699b90dc1,mexican,13 or older,"no, only English or Spanish",no,2025-08-12_14h18.06.064,empathy_intonation_perc,2024.2.4,Win32,59.88023952,671165ce01cd9c2699b90dc1,687ed1b7e638a4cbf2f02089,689b851063c6223382be1ffd,,,,,,,,,,,,,,,22,1,,./stim/wavs/puertorican_match_interrogative-total-yn_Emilio-ama-la-marcha.wav,,,,,,,,,,,,,,,,,,,,,,275.6714,277.9188,1,1,1.7158,,0,5,5,21,1,1,puertorican,,,,,,,,,,,,,,,,,,,,,,,,,,,,,,,,,,,,,,,,,,,,,,,,,,,,,,,,
,,,,,,,,,671165ce01cd9c2699b90dc1,mexican,13 or older,"no, only English or Spanish",no,2025-08-12_14h18.06.064,empathy_intonation_perc,2024.2.4,Win32,59.88023952,671165ce01cd9c2699b90dc1,687ed1b7e638a4cbf2f02089,689b851063c6223382be1ffd,,,,,,,,,,,,,,,52,0,,./stim/wavs/cuban_match_declarative-broad-focus_Daniel-iba-a-Bolivia.wav,,,,,,,,,,,,,,,,,,,,,,277.9196,280.8175,0,1,2.3627,,0,6,6,51,1,0,cuban,,,,,,,,,,,,,,,,,,,,,,,,,,,,,,,,,,,,,,,,,,,,,,,,,,,,,,,,
,,,,,,,,,671165ce01cd9c2699b90dc1,mexican,13 or older,"no, only English or Spanish",no,2025-08-12_14h18.06.064,empathy_intonation_perc,2024.2.4,Win32,59.88023952,671165ce01cd9c2699b90dc1,687ed1b7e638a4cbf2f02089,689b851063c6223382be1ffd,,,,,,,,,,,,,,,51,0,,./stim/wavs/cuban_match_declarative-broad-focus_Ana-lleva-el-abrigo.wav,,,,,,,,,,,,,,,,,,,,,,280.8187,283.5006,0,1,2.1504,,0,7,7,50,1,0,cuban,,,,,,,,,,,,,,,,,,,,,,,,,,,,,,,,,,,,,,,,,,,,,,,,,,,,,,,,
,,,,,,,,,671165ce01cd9c2699b90dc1,mexican,13 or older,"no, only English or Spanish",no,2025-08-12_14h18.06.064,empathy_intonation_perc,2024.2.4,Win32,59.88023952,671165ce01cd9c2699b90dc1,687ed1b7e638a4cbf2f02089,689b851063c6223382be1ffd,,,,,,,,,,,,,,,14,1,,./stim/wavs/mexican_match_interrogative-total-yn_Daniel-iba-a-Bolivia.wav,,,,,,,,,,,,,,,,,,,,,,283.5144,284.4322,1,1,0.4,,0,8,8,13,1,0,mexican,,,,,,,,,,,,,,,,,,,,,,,,,,,,,,,,,,,,,,,,,,,,,,,,,,,,,,,,
,,,,,,,,,671165ce01cd9c2699b90dc1,mexican,13 or older,"no, only English or Spanish",no,2025-08-12_14h18.06.064,empathy_intonation_perc,2024.2.4,Win32,59.88023952,671165ce01cd9c2699b90dc1,687ed1b7e638a4cbf2f02089,689b851063c6223382be1ffd,,,,,,,,,,,,,,,66,0,,./stim/wavs/puertorican_match_declarative-broad-focus_Emilio-ama-la-marcha.wav,,,,,,,,,,,,,,,,,,,,,,284.433,287.2483,1,0,2.2834,,0,9,9,65,1,0,puertorican,,,,,,,,,,,,,,,,,,,,,,,,,,,,,,,,,,,,,,,,,,,,,,,,,,,,,,,,
,,,,,,,,,671165ce01cd9c2699b90dc1,mexican,13 or older,"no, only English or Spanish",no,2025-08-12_14h18.06.064,empathy_intonation_perc,2024.2.4,Win32,59.88023952,671165ce01cd9c2699b90dc1,687ed1b7e638a4cbf2f02089,689b851063c6223382be1ffd,,,,,,,,,,,,,,,75,0,,./stim/wavs/cuban_mismatch_declarative-broad-focus_El-hombre-mira-la-luna.wav,,,,,,,,,,,,,,,,,,,,,,287.2606,289.6957,1,0,1.9207,,0,10,10,74,1,0,cuban,,,,,,,,,,,,,,,,,,,,,,,,,,,,,,,,,,,,,,,,,,,,,,,,,,,,,,,,
,,,,,,,,,671165ce01cd9c2699b90dc1,mexican,13 or older,"no, only English or Spanish",no,2025-08-12_14h18.06.064,empathy_intonation_perc,2024.2.4,Win32,59.88023952,671165ce01cd9c2699b90dc1,687ed1b7e638a4cbf2f02089,689b851063c6223382be1ffd,,,,,,,,,,,,,,,19,1,,./stim/wavs/puertorican_match_interrogative-total-yn_Ana-lleva-el-abrigo.wav,,,,,,,,,,,,,,,,,,,,,,289.6968,291.9779,1,1,1.7541,,0,11,11,18,1,1,puertorican,,,,,,,,,,,,,,,,,,,,,,,,,,,,,,,,,,,,,,,,,,,,,,,,,,,,,,,,
,,,,,,,,,671165ce01cd9c2699b90dc1,mexican,13 or older,"no, only English or Spanish",no,2025-08-12_14h18.06.064,empathy_intonation_perc,2024.2.4,Win32,59.88023952,671165ce01cd9c2699b90dc1,687ed1b7e638a4cbf2f02089,689b851063c6223382be1ffd,,,,,,,,,,,,,,,25,1,,./stim/wavs/castilian_mismatch_interrogative-total-yn_La-maestra-vive-en-Paris.wav,,,,,,,,,,,,,,,,,,,,,,291.9786,294.6108,0,0,2.1018,,0,12,12,24,1,0,castilian,,,,,,,,,,,,,,,,,,,,,,,,,,,,,,,,,,,,,,,,,,,,,,,,,,,,,,,,
,,,,,,,,,671165ce01cd9c2699b90dc1,mexican,13 or older,"no, only English or Spanish",no,2025-08-12_14h18.06.064,empathy_intonation_perc,2024.2.4,Win32,59.88023952,671165ce01cd9c2699b90dc1,687ed1b7e638a4cbf2f02089,689b851063c6223382be1ffd,,,,,,,,,,,,,,,37,1,,./stim/wavs/mexican_mismatch_interrogative-total-yn_La-maestra-vive-en-Paris.wav,,,,,,,,,,,,,,,,,,,,,,294.6114,297.3416,0,0,2.2049,,0,13,13,36,1,0,mexican,,,,,,,,,,,,,,,,,,,,,,,,,,,,,,,,,,,,,,,,,,,,,,,,,,,,,,,,
,,,,,,,,,671165ce01cd9c2699b90dc1,mexican,13 or older,"no, only English or Spanish",no,2025-08-12_14h18.06.064,empathy_intonation_perc,2024.2.4,Win32,59.88023952,671165ce01cd9c2699b90dc1,687ed1b7e638a4cbf2f02089,689b851063c6223382be1ffd,,,,,,,,,,,,,,,41,1,,./stim/wavs/puertorican_mismatch_interrogative-total-yn_El-nino-oye-el-rio.wav,,,,,,,,,,,,,,,,,,,,,,297.3559,299.5542,1,1,1.6847,,0,14,14,40,1,1,puertorican,,,,,,,,,,,,,,,,,,,,,,,,,,,,,,,,,,,,,,,,,,,,,,,,,,,,,,,,
,,,,,,,,,671165ce01cd9c2699b90dc1,mexican,13 or older,"no, only English or Spanish",no,2025-08-12_14h18.06.064,empathy_intonation_perc,2024.2.4,Win32,59.88023952,671165ce01cd9c2699b90dc1,687ed1b7e638a4cbf2f02089,689b851063c6223382be1ffd,,,,,,,,,,,,,,,12,1,,./stim/wavs/cuban_match_interrogative-total-yn_Marta-abre-el-regalo.wav,,,,,,,,,,,,,,,,,,,,,,299.5585,302.2685,0,0,2.1987,,0,15,15,11,1,1,cuban,,,,,,,,,,,,,,,,,,,,,,,,,,,,,,,,,,,,,,,,,,,,,,,,,,,,,,,,
,,,,,,,,,671165ce01cd9c2699b90dc1,mexican,13 or older,"no, only English or Spanish",no,2025-08-12_14h18.06.064,empathy_intonation_perc,2024.2.4,Win32,59.88023952,671165ce01cd9c2699b90dc1,687ed1b7e638a4cbf2f02089,689b851063c6223382be1ffd,,,,,,,,,,,,,,,18,1,,./stim/wavs/mexican_match_interrogative-total-yn_Marta-abre-el-regalo.wav,,,,,,,,,,,,,,,,,,,,,,302.2692,304.6598,1,1,1.8627,,0,16,16,17,1,0,mexican,,,,,,,,,,,,,,,,,,,,,,,,,,,,,,,,,,,,,,,,,,,,,,,,,,,,,,,,
,,,,,,,,,671165ce01cd9c2699b90dc1,mexican,13 or older,"no, only English or Spanish",no,2025-08-12_14h18.06.064,empathy_intonation_perc,2024.2.4,Win32,59.88023952,671165ce01cd9c2699b90dc1,687ed1b7e638a4cbf2f02089,689b851063c6223382be1ffd,,,,,,,,,,,,,,,71,0,,./stim/wavs/castilian_mismatch_declarative-broad-focus_La-nina-lava-el-plato.wav,,,,,,,,,,,,,,,,,,,,,,304.6633,307.389,0,1,2.1992,,0,17,17,70,1,0,castilian,,,,,,,,,,,,,,,,,,,,,,,,,,,,,,,,,,,,,,,,,,,,,,,,,,,,,,,,
,,,,,,,,,671165ce01cd9c2699b90dc1,mexican,13 or older,"no, only English or Spanish",no,2025-08-12_14h18.06.064,empathy_intonation_perc,2024.2.4,Win32,59.88023952,671165ce01cd9c2699b90dc1,687ed1b7e638a4cbf2f02089,689b851063c6223382be1ffd,,,,,,,,,,,,,,,46,0,,./stim/wavs/castilian_match_declarative-broad-focus_Emilio-ama-la-marcha.wav,,,,,,,,,,,,,,,,,,,,,,307.4084,310.1679,0,1,2.2314,,0,18,18,45,1,0,castilian,,,,,,,,,,,,,,,,,,,,,,,,,,,,,,,,,,,,,,,,,,,,,,,,,,,,,,,,
,,,,,,,,,671165ce01cd9c2699b90dc1,mexican,13 or older,"no, only English or Spanish",no,2025-08-12_14h18.06.064,empathy_intonation_perc,2024.2.4,Win32,59.88023952,671165ce01cd9c2699b90dc1,687ed1b7e638a4cbf2f02089,689b851063c6223382be1ffd,,,,,,,,,,,,,,,79,0,,./stim/wavs/mexican_mismatch_declarative-broad-focus_El-bebe-comia-muy-bien.wav,,,,,,,,,,,,,,,,,,,,,,310.1688,312.863,0,1,2.1756,,0,19,19,78,1,0,mexican,,,,,,,,,,,,,,,,,,,,,,,,,,,,,,,,,,,,,,,,,,,,,,,,,,,,,,,,
,,,,,,,,,671165ce01cd9c2699b90dc1,mexican,13 or older,"no, only English or Spanish",no,2025-08-12_14h18.06.064,empathy_intonation_perc,2024.2.4,Win32,59.88023952,671165ce01cd9c2699b90dc1,687ed1b7e638a4cbf2f02089,689b851063c6223382be1ffd,,,,,,,,,,,,,,,62,0,,./stim/wavs/mexican_match_declarative-broad-focus_Marta-abre-el-regalo.wav,,,,,,,,,,,,,,,,,,,,,,312.8667,314.8487,1,0,1.4497,,0,20,20,61,1,0,mexican,,,,,,,,,,,,,,,,,,,,,,,,,,,,,,,,,,,,,,,,,,,,,,,,,,,,,,,,
,,,,,,,,,671165ce01cd9c2699b90dc1,mexican,13 or older,"no, only English or Spanish",no,2025-08-12_14h18.06.064,empathy_intonation_perc,2024.2.4,Win32,59.88023952,671165ce01cd9c2699b90dc1,687ed1b7e638a4cbf2f02089,689b851063c6223382be1ffd,,,,,,,,,,,,,,,8,1,,./stim/wavs/cuban_match_interrogative-total-yn_Daniel-iba-a-Bolivia.wav,,,,,,,,,,,,,,,,,,,,,,314.8496,316.9191,1,1,1.5442,,0,21,21,7,1,1,cuban,,,,,,,,,,,,,,,,,,,,,,,,,,,,,,,,,,,,,,,,,,,,,,,,,,,,,,,,
,,,,,,,,,671165ce01cd9c2699b90dc1,mexican,13 or older,"no, only English or Spanish",no,2025-08-12_14h18.06.064,empathy_intonation_perc,2024.2.4,Win32,59.88023952,671165ce01cd9c2699b90dc1,687ed1b7e638a4cbf2f02089,689b851063c6223382be1ffd,,,,,,,,,,,,,,,5,1,,./stim/wavs/castilian_match_interrogative-total-yn_Mariano-habla-del-tiempo.wav,,,,,,,,,,,,,,,,,,,,,,316.9206,318.9357,1,1,1.4852,,0,22,22,4,1,0,castilian,,,,,,,,,,,,,,,,,,,,,,,,,,,,,,,,,,,,,,,,,,,,,,,,,,,,,,,,
,,,,,,,,,671165ce01cd9c2699b90dc1,mexican,13 or older,"no, only English or Spanish",no,2025-08-12_14h18.06.064,empathy_intonation_perc,2024.2.4,Win32,59.88023952,671165ce01cd9c2699b90dc1,687ed1b7e638a4cbf2f02089,689b851063c6223382be1ffd,,,,,,,,,,,,,,,73,0,,./stim/wavs/castilian_mismatch_declarative-broad-focus_Mi-tia-odia-la-lluvia.wav,,,,,,,,,,,,,,,,,,,,,,318.9386,322.1959,1,0,2.7237,,0,23,23,72,1,0,castilian,,,,,,,,,,,,,,,,,,,,,,,,,,,,,,,,,,,,,,,,,,,,,,,,,,,,,,,,
,,,,,,,,,671165ce01cd9c2699b90dc1,mexican,13 or older,"no, only English or Spanish",no,2025-08-12_14h18.06.064,empathy_intonation_perc,2024.2.4,Win32,59.88023952,671165ce01cd9c2699b90dc1,687ed1b7e638a4cbf2f02089,689b851063c6223382be1ffd,,,,,,,,,,,,,,,59,0,,./stim/wavs/mexican_match_declarative-broad-focus_David-leia-el-libro.wav,,,,,,,,,,,,,,,,,,,,,,322.2193,324.2766,0,1,1.5116,,0,24,24,58,1,0,mexican,,,,,,,,,,,,,,,,,,,,,,,,,,,,,,,,,,,,,,,,,,,,,,,,,,,,,,,,
,,,,,,,,,671165ce01cd9c2699b90dc1,mexican,13 or older,"no, only English or Spanish",no,2025-08-12_14h18.06.064,empathy_intonation_perc,2024.2.4,Win32,59.88023952,671165ce01cd9c2699b90dc1,687ed1b7e638a4cbf2f02089,689b851063c6223382be1ffd,,,,,,,,,,,,,,,88,0,,./stim/wavs/puertorican_mismatch_declarative-broad-focus_La-nina-lava-el-plato.wav,,,,,,,,,,,,,,,,,,,,,,324.2774,326.2759,1,0,1.4843,,0,25,25,87,1,0,puertorican,,,,,,,,,,,,,,,,,,,,,,,,,,,,,,,,,,,,,,,,,,,,,,,,,,,,,,,,
,,,,,,,,,671165ce01cd9c2699b90dc1,mexican,13 or older,"no, only English or Spanish",no,2025-08-12_14h18.06.064,empathy_intonation_perc,2024.2.4,Win32,59.88023952,671165ce01cd9c2699b90dc1,687ed1b7e638a4cbf2f02089,689b851063c6223382be1ffd,,,,,,,,,,,,,,,55,0,,./stim/wavs/cuban_match_declarative-broad-focus_Mariano-habla-del-tiempo.wav,,,,,,,,,,,,,,,,,,,,,,326.2766,328.7577,1,0,1.9474,,0,26,26,54,1,0,cuban,,,,,,,,,,,,,,,,,,,,,,,,,,,,,,,,,,,,,,,,,,,,,,,,,,,,,,,,
,,,,,,,,,671165ce01cd9c2699b90dc1,mexican,13 or older,"no, only English or Spanish",no,2025-08-12_14h18.06.064,empathy_intonation_perc,2024.2.4,Win32,59.88023952,671165ce01cd9c2699b90dc1,687ed1b7e638a4cbf2f02089,689b851063c6223382be1ffd,,,,,,,,,,,,,,,9,1,,./stim/wavs/cuban_match_interrogative-total-yn_Manuela-vende-el-carro.wav,,,,,,,,,,,,,,,,,,,,,,328.7586,331.0068,0,0,1.716,,0,27,27,8,1,1,cuban,,,,,,,,,,,,,,,,,,,,,,,,,,,,,,,,,,,,,,,,,,,,,,,,,,,,,,,,
,,,,,,,,,671165ce01cd9c2699b90dc1,mexican,13 or older,"no, only English or Spanish",no,2025-08-12_14h18.06.064,empathy_intonation_perc,2024.2.4,Win32,59.88023952,671165ce01cd9c2699b90dc1,687ed1b7e638a4cbf2f02089,689b851063c6223382be1ffd,,,,,,,,,,,,,,,3,1,,./stim/wavs/castilian_match_interrogative-total-yn_Manuela-vende-el-carro.wav,,,,,,,,,,,,,,,,,,,,,,331.0076,333.6052,1,1,2.0654,,0,28,28,2,1,0,castilian,,,,,,,,,,,,,,,,,,,,,,,,,,,,,,,,,,,,,,,,,,,,,,,,,,,,,,,,
,,,,,,,,,671165ce01cd9c2699b90dc1,mexican,13 or older,"no, only English or Spanish",no,2025-08-12_14h18.06.064,empathy_intonation_perc,2024.2.4,Win32,59.88023952,671165ce01cd9c2699b90dc1,687ed1b7e638a4cbf2f02089,689b851063c6223382be1ffd,,,,,,,,,,,,,,,82,0,,./stim/wavs/mexican_mismatch_declarative-broad-focus_Mi-novio-viene-del-lago.wav,,,,,,,,,,,,,,,,,,,,,,333.6188,336.5867,1,0,2.4498,,0,29,29,81,1,0,mexican,,,,,,,,,,,,,,,,,,,,,,,,,,,,,,,,,,,,,,,,,,,,,,,,,,,,,,,,
,,,,,,,,,671165ce01cd9c2699b90dc1,mexican,13 or older,"no, only English or Spanish",no,2025-08-12_14h18.06.064,empathy_intonation_perc,2024.2.4,Win32,59.88023952,671165ce01cd9c2699b90dc1,687ed1b7e638a4cbf2f02089,689b851063c6223382be1ffd,,,,,,,,,,,,,,,65,0,,./stim/wavs/puertorican_match_declarative-broad-focus_David-leia-el-libro.wav,,,,,,,,,,,,,,,,,,,,,,336.5874,338.8524,0,1,1.7523,,0,30,30,64,1,0,puertorican,,,,,,,,,,,,,,,,,,,,,,,,,,,,,,,,,,,,,,,,,,,,,,,,,,,,,,,,
,,,,,,,,,671165ce01cd9c2699b90dc1,mexican,13 or older,"no, only English or Spanish",no,2025-08-12_14h18.06.064,empathy_intonation_perc,2024.2.4,Win32,59.88023952,671165ce01cd9c2699b90dc1,687ed1b7e638a4cbf2f02089,689b851063c6223382be1ffd,,,,,,,,,,,,,,,38,1,,./stim/wavs/mexican_mismatch_interrogative-total-yn_Mi-novio-viene-del-lago.wav,,,,,,,,,,,,,,,,,,,,,,338.8536,341.3841,0,0,2.0058,,0,31,31,37,1,0,mexican,,,,,,,,,,,,,,,,,,,,,,,,,,,,,,,,,,,,,,,,,,,,,,,,,,,,,,,,
,,,,,,,,,671165ce01cd9c2699b90dc1,mexican,13 or older,"no, only English or Spanish",no,2025-08-12_14h18.06.064,empathy_intonation_perc,2024.2.4,Win32,59.88023952,671165ce01cd9c2699b90dc1,687ed1b7e638a4cbf2f02089,689b851063c6223382be1ffd,,,,,,,,,,,,,,,58,0,,./stim/wavs/mexican_match_declarative-broad-focus_Daniel-iba-a-Bolivia.wav,,,,,,,,,,,,,,,,,,,,,,341.3971,343.3332,1,0,1.416,,0,32,32,57,1,0,mexican,,,,,,,,,,,,,,,,,,,,,,,,,,,,,,,,,,,,,,,,,,,,,,,,,,,,,,,,
,,,,,,,,,671165ce01cd9c2699b90dc1,mexican,13 or older,"no, only English or Spanish",no,2025-08-12_14h18.06.064,empathy_intonation_perc,2024.2.4,Win32,59.88023952,671165ce01cd9c2699b90dc1,687ed1b7e638a4cbf2f02089,689b851063c6223382be1ffd,,,,,,,,,,,,,,,49,0,,./stim/wavs/castilian_match_declarative-broad-focus_Mariano-habla-del-tiempo.wav,,,,,,,,,,,,,,,,,,,,,,343.3343,346.748,1,0,2.8818,,0,33,33,48,1,0,castilian,,,,,,,,,,,,,,,,,,,,,,,,,,,,,,,,,,,,,,,,,,,,,,,,,,,,,,,,
,,,,,,,,,671165ce01cd9c2699b90dc1,mexican,13 or older,"no, only English or Spanish",no,2025-08-12_14h18.06.064,empathy_intonation_perc,2024.2.4,Win32,59.88023952,671165ce01cd9c2699b90dc1,687ed1b7e638a4cbf2f02089,689b851063c6223382be1ffd,,,,,,,,,,,,,,,4,1,,./stim/wavs/castilian_match_interrogative-total-yn_Maria-bebe-el-vino.wav,,,,,,,,,,,,,,,,,,,,,,346.7496,349.0803,0,0,1.7997,,0,34,34,3,1,0,castilian,,,,,,,,,,,,,,,,,,,,,,,,,,,,,,,,,,,,,,,,,,,,,,,,,,,,,,,,
,,,,,,,,,671165ce01cd9c2699b90dc1,mexican,13 or older,"no, only English or Spanish",no,2025-08-12_14h18.06.064,empathy_intonation_perc,2024.2.4,Win32,59.88023952,671165ce01cd9c2699b90dc1,687ed1b7e638a4cbf2f02089,689b851063c6223382be1ffd,,,,,,,,,,,,,,,24,1,,./stim/wavs/puertorican_match_interrogative-total-yn_Maria-bebe-el-vino.wav,,,,,,,,,,,,,,,,,,,,,,349.0813,355.0266,0,0,5.4173,,0,35,35,23,1,1,puertorican,,,,,,,,,,,,,,,,,,,,,,,,,,,,,,,,,,,,,,,,,,,,,,,,,,,,,,,,
,,,,,,,,,671165ce01cd9c2699b90dc1,mexican,13 or older,"no, only English or Spanish",no,2025-08-12_14h18.06.064,empathy_intonation_perc,2024.2.4,Win32,59.88023952,671165ce01cd9c2699b90dc1,687ed1b7e638a4cbf2f02089,689b851063c6223382be1ffd,,,,,,,,,,,,,,,50,0,,./stim/wavs/castilian_match_declarative-broad-focus_Marta-abre-el-regalo.wav,,,,,,,,,,,,,,,,,,,,,,355.0402,357.2921,1,0,1.7383,,0,36,36,49,1,0,castilian,,,,,,,,,,,,,,,,,,,,,,,,,,,,,,,,,,,,,,,,,,,,,,,,,,,,,,,,
,,,,,,,,,671165ce01cd9c2699b90dc1,mexican,13 or older,"no, only English or Spanish",no,2025-08-12_14h18.06.064,empathy_intonation_perc,2024.2.4,Win32,59.88023952,671165ce01cd9c2699b90dc1,687ed1b7e638a4cbf2f02089,689b851063c6223382be1ffd,,,,,,,,,,,,,,,78,0,,./stim/wavs/cuban_mismatch_declarative-broad-focus_Mi-tia-odia-la-lluvia.wav,,,,,,,,,,,,,,,,,,,,,,357.3059,358.7078,1,0,0.8886,,0,37,37,77,1,0,cuban,,,,,,,,,,,,,,,,,,,,,,,,,,,,,,,,,,,,,,,,,,,,,,,,,,,,,,,,
,,,,,,,,,671165ce01cd9c2699b90dc1,mexican,13 or older,"no, only English or Spanish",no,2025-08-12_14h18.06.064,empathy_intonation_perc,2024.2.4,Win32,59.88023952,671165ce01cd9c2699b90dc1,687ed1b7e638a4cbf2f02089,689b851063c6223382be1ffd,,,,,,,,,,,,,,,17,1,,./stim/wavs/mexican_match_interrogative-total-yn_Mariano-habla-del-tiempo.wav,,,,,,,,,,,,,,,,,,,,,,358.7085,360.6406,1,1,1.4012,,0,38,38,16,1,0,mexican,,,,,,,,,,,,,,,,,,,,,,,,,,,,,,,,,,,,,,,,,,,,,,,,,,,,,,,,
,,,,,,,,,671165ce01cd9c2699b90dc1,mexican,13 or older,"no, only English or Spanish",no,2025-08-12_14h18.06.064,empathy_intonation_perc,2024.2.4,Win32,59.88023952,671165ce01cd9c2699b90dc1,687ed1b7e638a4cbf2f02089,689b851063c6223382be1ffd,,,,,,,,,,,,,,,26,1,,./stim/wavs/castilian_mismatch_interrogative-total-yn_La-nina-lava-el-plato.wav,,,,,,,,,,,,,,,,,,,,,,360.6415,362.5226,1,1,1.3514,,0,39,39,25,1,0,castilian,,,,,,,,,,,,,,,,,,,,,,,,,,,,,,,,,,,,,,,,,,,,,,,,,,,,,,,,
,,,,,,,,,671165ce01cd9c2699b90dc1,mexican,13 or older,"no, only English or Spanish",no,2025-08-12_14h18.06.064,empathy_intonation_perc,2024.2.4,Win32,59.88023952,671165ce01cd9c2699b90dc1,687ed1b7e638a4cbf2f02089,689b851063c6223382be1ffd,,,,,,,,,,,,,,,61,0,,./stim/wavs/mexican_match_declarative-broad-focus_Mariano-habla-del-tiempo.wav,,,,,,,,,,,,,,,,,,,,,,362.5235,364.2217,0,1,1.1591,,0,40,40,60,1,0,mexican,,,,,,,,,,,,,,,,,,,,,,,,,,,,,,,,,,,,,,,,,,,,,,,,,,,,,,,,
,,,,,,,,,671165ce01cd9c2699b90dc1,mexican,13 or older,"no, only English or Spanish",no,2025-08-12_14h18.06.064,empathy_intonation_perc,2024.2.4,Win32,59.88023952,671165ce01cd9c2699b90dc1,687ed1b7e638a4cbf2f02089,689b851063c6223382be1ffd,,,,,,,,,,,,,,,60,0,,./stim/wavs/mexican_match_declarative-broad-focus_Emilio-ama-la-marcha.wav,,,,,,,,,,,,,,,,,,,,,,364.2225,366.0204,0,1,1.2704,,0,41,41,59,1,0,mexican,,,,,,,,,,,,,,,,,,,,,,,,,,,,,,,,,,,,,,,,,,,,,,,,,,,,,,,,
,,,,,,,,,671165ce01cd9c2699b90dc1,mexican,13 or older,"no, only English or Spanish",no,2025-08-12_14h18.06.064,empathy_intonation_perc,2024.2.4,Win32,59.88023952,671165ce01cd9c2699b90dc1,687ed1b7e638a4cbf2f02089,689b851063c6223382be1ffd,,,,,,,,,,,,,,,28,1,,./stim/wavs/castilian_mismatch_interrogative-total-yn_Mi-novio-viene-del-lago.wav,,,,,,,,,,,,,,,,,,,,,,366.0211,368.2364,0,0,1.6836,,0,42,42,27,1,0,castilian,,,,,,,,,,,,,,,,,,,,,,,,,,,,,,,,,,,,,,,,,,,,,,,,,,,,,,,,
,,,,,,,,,671165ce01cd9c2699b90dc1,mexican,13 or older,"no, only English or Spanish",no,2025-08-12_14h18.06.064,empathy_intonation_perc,2024.2.4,Win32,59.88023952,671165ce01cd9c2699b90dc1,687ed1b7e638a4cbf2f02089,689b851063c6223382be1ffd,,,,,,,,,,,,,,,54,0,,./stim/wavs/cuban_match_declarative-broad-focus_Maria-bebe-el-vino.wav,,,,,,,,,,,,,,,,,,,,,,368.237,370.2514,1,0,1.4876,,0,43,43,53,1,0,cuban,,,,,,,,,,,,,,,,,,,,,,,,,,,,,,,,,,,,,,,,,,,,,,,,,,,,,,,,
,,,,,,,,,671165ce01cd9c2699b90dc1,mexican,13 or older,"no, only English or Spanish",no,2025-08-12_14h18.06.064,empathy_intonation_perc,2024.2.4,Win32,59.88023952,671165ce01cd9c2699b90dc1,687ed1b7e638a4cbf2f02089,689b851063c6223382be1ffd,,,,,,,,,,,,,,,11,1,,./stim/wavs/cuban_match_interrogative-total-yn_Mariano-habla-del-tiempo.wav,,,,,,,,,,,,,,,,,,,,,,370.2522,372.439,1,1,1.6584,,0,44,44,10,1,1,cuban,,,,,,,,,,,,,,,,,,,,,,,,,,,,,,,,,,,,,,,,,,,,,,,,,,,,,,,,
,,,,,,,,,671165ce01cd9c2699b90dc1,mexican,13 or older,"no, only English or Spanish",no,2025-08-12_14h18.06.064,empathy_intonation_perc,2024.2.4,Win32,59.88023952,671165ce01cd9c2699b90dc1,687ed1b7e638a4cbf2f02089,689b851063c6223382be1ffd,,,,,,,,,,,,,,,6,1,,./stim/wavs/castilian_match_interrogative-total-yn_Marta-abre-el-regalo.wav,,,,,,,,,,,,,,,,,,,,,,372.4426,374.3058,0,0,1.3349,,0,45,45,5,1,0,castilian,,,,,,,,,,,,,,,,,,,,,,,,,,,,,,,,,,,,,,,,,,,,,,,,,,,,,,,,
,,,,,,,,,671165ce01cd9c2699b90dc1,mexican,13 or older,"no, only English or Spanish",no,2025-08-12_14h18.06.064,empathy_intonation_perc,2024.2.4,Win32,59.88023952,671165ce01cd9c2699b90dc1,687ed1b7e638a4cbf2f02089,689b851063c6223382be1ffd,,,,,,,,,,,,,,,32,1,,./stim/wavs/cuban_mismatch_interrogative-total-yn_Mi-madre-come-la-fruta.wav,,,,,,,,,,,,,,,,,,,,,,374.3087,376.0668,0,0,1.2117,,0,46,46,31,1,1,cuban,,,,,,,,,,,,,,,,,,,,,,,,,,,,,,,,,,,,,,,,,,,,,,,,,,,,,,,,
,,,,,,,,,671165ce01cd9c2699b90dc1,mexican,13 or older,"no, only English or Spanish",no,2025-08-12_14h18.06.064,empathy_intonation_perc,2024.2.4,Win32,59.88023952,671165ce01cd9c2699b90dc1,687ed1b7e638a4cbf2f02089,689b851063c6223382be1ffd,,,,,,,,,,,,,,,30,1,,./stim/wavs/cuban_mismatch_interrogative-total-yn_El-hombre-mira-la-luna.wav,,,,,,,,,,,,,,,,,,,,,,376.0678,377.5307,0,0,0.9352,,0,47,47,29,1,1,cuban,,,,,,,,,,,,,,,,,,,,,,,,,,,,,,,,,,,,,,,,,,,,,,,,,,,,,,,,
,,,,,,,,,671165ce01cd9c2699b90dc1,mexican,13 or older,"no, only English or Spanish",no,2025-08-12_14h18.06.064,empathy_intonation_perc,2024.2.4,Win32,59.88023952,671165ce01cd9c2699b90dc1,687ed1b7e638a4cbf2f02089,689b851063c6223382be1ffd,,,,,,,,,,,,,,,21,1,,./stim/wavs/puertorican_match_interrogative-total-yn_David-leia-el-libro.wav,,,,,,,,,,,,,,,,,,,,,,377.5316,379.0827,0,0,1.0284,,0,48,48,20,1,1,puertorican,,,,,,,,,,,,,,,,,,,,,,,,,,,,,,,,,,,,,,,,,,,,,,,,,,,,,,,,
,,,,,,,,,671165ce01cd9c2699b90dc1,mexican,13 or older,"no, only English or Spanish",no,2025-08-12_14h18.06.064,empathy_intonation_perc,2024.2.4,Win32,59.88023952,671165ce01cd9c2699b90dc1,687ed1b7e638a4cbf2f02089,689b851063c6223382be1ffd,,,,,,,,,,,,,,,29,1,,./stim/wavs/castilian_mismatch_interrogative-total-yn_Mi-tia-odia-la-lluvia.wav,,,,,,,,,,,,,,,,,,,,,,379.0856,380.9957,1,1,1.3828,,0,49,49,28,1,0,castilian,,,,,,,,,,,,,,,,,,,,,,,,,,,,,,,,,,,,,,,,,,,,,,,,,,,,,,,,
,,,,,,,,,671165ce01cd9c2699b90dc1,mexican,13 or older,"no, only English or Spanish",no,2025-08-12_14h18.06.064,empathy_intonation_perc,2024.2.4,Win32,59.88023952,671165ce01cd9c2699b90dc1,687ed1b7e638a4cbf2f02089,689b851063c6223382be1ffd,,,,,,,,,,,,,,,83,0,,./stim/wavs/mexican_mismatch_declarative-broad-focus_Mi-tia-odia-la-lluvia.wav,,,,,,,,,,,,,,,,,,,,,,380.9965,382.7118,1,0,1.187,,0,50,50,82,1,0,mexican,,,,,,,,,,,,,,,,,,,,,,,,,,,,,,,,,,,,,,,,,,,,,,,,,,,,,,,,
,,,,,,,,,671165ce01cd9c2699b90dc1,mexican,13 or older,"no, only English or Spanish",no,2025-08-12_14h18.06.064,empathy_intonation_perc,2024.2.4,Win32,59.88023952,671165ce01cd9c2699b90dc1,687ed1b7e638a4cbf2f02089,689b851063c6223382be1ffd,,,,,,,,,,,,,,,39,1,,./stim/wavs/mexican_mismatch_interrogative-total-yn_Mi-tia-odia-la-lluvia.wav,,,,,,,,,,,,,,,,,,,,,,382.7126,384.5768,1,1,1.3377,,0,51,51,38,1,0,mexican,,,,,,,,,,,,,,,,,,,,,,,,,,,,,,,,,,,,,,,,,,,,,,,,,,,,,,,,
,,,,,,,,,671165ce01cd9c2699b90dc1,mexican,13 or older,"no, only English or Spanish",no,2025-08-12_14h18.06.064,empathy_intonation_perc,2024.2.4,Win32,59.88023952,671165ce01cd9c2699b90dc1,687ed1b7e638a4cbf2f02089,689b851063c6223382be1ffd,,,,,,,,,,,,,,,47,0,,./stim/wavs/castilian_match_declarative-broad-focus_Manuela-vende-el-carro.wav,,,,,,,,,,,,,,,,,,,,,,384.5777,386.1675,0,1,1.0637,,0,52,52,46,1,0,castilian,,,,,,,,,,,,,,,,,,,,,,,,,,,,,,,,,,,,,,,,,,,,,,,,,,,,,,,,
,,,,,,,,,671165ce01cd9c2699b90dc1,mexican,13 or older,"no, only English or Spanish",no,2025-08-12_14h18.06.064,empathy_intonation_perc,2024.2.4,Win32,59.88023952,671165ce01cd9c2699b90dc1,687ed1b7e638a4cbf2f02089,689b851063c6223382be1ffd,,,,,,,,,,,,,,,53,0,,./stim/wavs/cuban_match_declarative-broad-focus_Manuela-vende-el-carro.wav,,,,,,,,,,,,,,,,,,,,,,386.1683,388.325,0,1,1.6347,,0,53,53,52,1,0,cuban,,,,,,,,,,,,,,,,,,,,,,,,,,,,,,,,,,,,,,,,,,,,,,,,,,,,,,,,
,,,,,,,,,671165ce01cd9c2699b90dc1,mexican,13 or older,"no, only English or Spanish",no,2025-08-12_14h18.06.064,empathy_intonation_perc,2024.2.4,Win32,59.88023952,671165ce01cd9c2699b90dc1,687ed1b7e638a4cbf2f02089,689b851063c6223382be1ffd,,,,,,,,,,,,,,,13,1,,./stim/wavs/mexican_match_interrogative-total-yn_Ana-lleva-el-abrigo.wav,,,,,,,,,,,,,,,,,,,,,,388.3258,390.0104,1,1,1.1726,,0,54,54,12,1,0,mexican,,,,,,,,,,,,,,,,,,,,,,,,,,,,,,,,,,,,,,,,,,,,,,,,,,,,,,,,
,,,,,,,,,671165ce01cd9c2699b90dc1,mexican,13 or older,"no, only English or Spanish",no,2025-08-12_14h18.06.064,empathy_intonation_perc,2024.2.4,Win32,59.88023952,671165ce01cd9c2699b90dc1,687ed1b7e638a4cbf2f02089,689b851063c6223382be1ffd,,,,,,,,,,,,,,,72,0,,./stim/wavs/castilian_mismatch_declarative-broad-focus_Mi-novio-viene-del-lago.wav,,,,,,,,,,,,,,,,,,,,,,390.0142,391.3235,1,0,0.7785,,0,55,55,71,1,0,castilian,,,,,,,,,,,,,,,,,,,,,,,,,,,,,,,,,,,,,,,,,,,,,,,,,,,,,,,,
,,,,,,,,,671165ce01cd9c2699b90dc1,mexican,13 or older,"no, only English or Spanish",no,2025-08-12_14h18.06.064,empathy_intonation_perc,2024.2.4,Win32,59.88023952,671165ce01cd9c2699b90dc1,687ed1b7e638a4cbf2f02089,689b851063c6223382be1ffd,,,,,,,,,,,,,,,74,0,,./stim/wavs/cuban_mismatch_declarative-broad-focus_El-bebe-comia-muy-bien.wav,,,,,,,,,,,,,,,,,,,,,,391.3246,392.6244,0,1,0.7695,,0,56,56,73,1,0,cuban,,,,,,,,,,,,,,,,,,,,,,,,,,,,,,,,,,,,,,,,,,,,,,,,,,,,,,,,
,,,,,,,,,671165ce01cd9c2699b90dc1,mexican,13 or older,"no, only English or Spanish",no,2025-08-12_14h18.06.064,empathy_intonation_perc,2024.2.4,Win32,59.88023952,671165ce01cd9c2699b90dc1,687ed1b7e638a4cbf2f02089,689b851063c6223382be1ffd,,,,,,,,,,,,,,,16,1,,./stim/wavs/mexican_match_interrogative-total-yn_Emilio-ama-la-marcha.wav,,,,,,,,,,,,,,,,,,,,,,392.6253,394.4216,1,1,1.2681,,0,57,57,15,1,0,mexican,,,,,,,,,,,,,,,,,,,,,,,,,,,,,,,,,,,,,,,,,,,,,,,,,,,,,,,,
,,,,,,,,,671165ce01cd9c2699b90dc1,mexican,13 or older,"no, only English or Spanish",no,2025-08-12_14h18.06.064,empathy_intonation_perc,2024.2.4,Win32,59.88023952,671165ce01cd9c2699b90dc1,687ed1b7e638a4cbf2f02089,689b851063c6223382be1ffd,,,,,,,,,,,,,,,81,0,,./stim/wavs/mexican_mismatch_declarative-broad-focus_La-maestra-vive-en-Paris.wav,,,,,,,,,,,,,,,,,,,,,,394.4225,396.6547,1,0,1.7183,,0,58,58,80,1,0,mexican,,,,,,,,,,,,,,,,,,,,,,,,,,,,,,,,,,,,,,,,,,,,,,,,,,,,,,,,
,,,,,,,,,671165ce01cd9c2699b90dc1,mexican,13 or older,"no, only English or Spanish",no,2025-08-12_14h18.06.064,empathy_intonation_perc,2024.2.4,Win32,59.88023952,671165ce01cd9c2699b90dc1,687ed1b7e638a4cbf2f02089,689b851063c6223382be1ffd,,,,,,,,,,,,,,,34,1,,./stim/wavs/cuban_mismatch_interrogative-total-yn_Mi-tia-odia-la-lluvia.wav,,,,,,,,,,,,,,,,,,,,,,396.6554,398.1202,0,0,0.9356,,0,59,59,33,1,1,cuban,,,,,,,,,,,,,,,,,,,,,,,,,,,,,,,,,,,,,,,,,,,,,,,,,,,,,,,,
,,,,,,,,,671165ce01cd9c2699b90dc1,mexican,13 or older,"no, only English or Spanish",no,2025-08-12_14h18.06.064,empathy_intonation_perc,2024.2.4,Win32,59.88023952,671165ce01cd9c2699b90dc1,687ed1b7e638a4cbf2f02089,689b851063c6223382be1ffd,,,,,,,,,,,,,,,77,0,,./stim/wavs/cuban_mismatch_declarative-broad-focus_Mi-novio-viene-del-lago.wav,,,,,,,,,,,,,,,,,,,,,,398.1209,400.252,1,0,1.6,,0,60,60,76,1,0,cuban,,,,,,,,,,,,,,,,,,,,,,,,,,,,,,,,,,,,,,,,,,,,,,,,,,,,,,,,
,,,,,,,,,671165ce01cd9c2699b90dc1,mexican,13 or older,"no, only English or Spanish",no,2025-08-12_14h18.06.064,empathy_intonation_perc,2024.2.4,Win32,59.88023952,671165ce01cd9c2699b90dc1,687ed1b7e638a4cbf2f02089,689b851063c6223382be1ffd,,,,,,,,,,,,,,,67,0,,./stim/wavs/puertorican_match_declarative-broad-focus_Manuela-vende-el-carro.wav,,,,,,,,,,,,,,,,,,,,,,400.253,402.2849,0,1,1.5056,,0,61,61,66,1,0,puertorican,,,,,,,,,,,,,,,,,,,,,,,,,,,,,,,,,,,,,,,,,,,,,,,,,,,,,,,,
,,,,,,,,,671165ce01cd9c2699b90dc1,mexican,13 or older,"no, only English or Spanish",no,2025-08-12_14h18.06.064,empathy_intonation_perc,2024.2.4,Win32,59.88023952,671165ce01cd9c2699b90dc1,687ed1b7e638a4cbf2f02089,689b851063c6223382be1ffd,,,,,,,,,,,,,,,76,0,,./stim/wavs/cuban_mismatch_declarative-broad-focus_La-nina-lava-el-plato.wav,,,,,,,,,,,,,,,,,,,,,,402.2855,404.3127,1,0,1.5013,,0,62,62,75,1,0,cuban,,,,,,,,,,,,,,,,,,,,,,,,,,,,,,,,,,,,,,,,,,,,,,,,,,,,,,,,
,,,,,,,,,671165ce01cd9c2699b90dc1,mexican,13 or older,"no, only English or Spanish",no,2025-08-12_14h18.06.064,empathy_intonation_perc,2024.2.4,Win32,59.88023952,671165ce01cd9c2699b90dc1,687ed1b7e638a4cbf2f02089,689b851063c6223382be1ffd,,,,,,,,,,,,,,,64,0,,./stim/wavs/puertorican_match_declarative-broad-focus_Daniel-iba-a-Bolivia.wav,,,,,,,,,,,,,,,,,,,,,,404.3133,405.8164,1,0,0.9869,,0,63,63,63,1,0,puertorican,,,,,,,,,,,,,,,,,,,,,,,,,,,,,,,,,,,,,,,,,,,,,,,,,,,,,,,,
,,,,,,,,,671165ce01cd9c2699b90dc1,mexican,13 or older,"no, only English or Spanish",no,2025-08-12_14h18.06.064,empathy_intonation_perc,2024.2.4,Win32,59.88023952,671165ce01cd9c2699b90dc1,687ed1b7e638a4cbf2f02089,689b851063c6223382be1ffd,,,,,,,,,,,,,,,56,0,,./stim/wavs/cuban_match_declarative-broad-focus_Marta-abre-el-regalo.wav,,,,,,,,,,,,,,,,,,,,,,405.8172,407.9807,0,1,1.6378,,0,64,64,55,1,0,cuban,,,,,,,,,,,,,,,,,,,,,,,,,,,,,,,,,,,,,,,,,,,,,,,,,,,,,,,,
,,,,,,,,,671165ce01cd9c2699b90dc1,mexican,13 or older,"no, only English or Spanish",no,2025-08-12_14h18.06.064,empathy_intonation_perc,2024.2.4,Win32,59.88023952,671165ce01cd9c2699b90dc1,687ed1b7e638a4cbf2f02089,689b851063c6223382be1ffd,,,,,,,,,,,,,,,35,1,,./stim/wavs/mexican_mismatch_interrogative-total-yn_El-hombre-mira-la-luna.wav,,,,,,,,,,,,,,,,,,,,,,407.9815,409.9631,1,1,1.4475,,0,65,65,34,1,0,mexican,,,,,,,,,,,,,,,,,,,,,,,,,,,,,,,,,,,,,,,,,,,,,,,,,,,,,,,,
,,,,,,,,,671165ce01cd9c2699b90dc1,mexican,13 or older,"no, only English or Spanish",no,2025-08-12_14h18.06.064,empathy_intonation_perc,2024.2.4,Win32,59.88023952,671165ce01cd9c2699b90dc1,687ed1b7e638a4cbf2f02089,689b851063c6223382be1ffd,,,,,,,,,,,,,,,43,1,,./stim/wavs/puertorican_mismatch_interrogative-total-yn_La-nina-lava-el-plato.wav,,,,,,,,,,,,,,,,,,,,,,409.9638,411.7287,1,1,1.2349,,0,66,66,42,1,1,puertorican,,,,,,,,,,,,,,,,,,,,,,,,,,,,,,,,,,,,,,,,,,,,,,,,,,,,,,,,
,,,,,,,,,671165ce01cd9c2699b90dc1,mexican,13 or older,"no, only English or Spanish",no,2025-08-12_14h18.06.064,empathy_intonation_perc,2024.2.4,Win32,59.88023952,671165ce01cd9c2699b90dc1,687ed1b7e638a4cbf2f02089,689b851063c6223382be1ffd,,,,,,,,,,,,,,,15,1,,./stim/wavs/mexican_match_interrogative-total-yn_David-leia-el-libro.wav,,,,,,,,,,,,,,,,,,,,,,411.7294,413.8109,1,1,1.5492,,0,67,67,14,1,0,mexican,,,,,,,,,,,,,,,,,,,,,,,,,,,,,,,,,,,,,,,,,,,,,,,,,,,,,,,,
,,,,,,,,,671165ce01cd9c2699b90dc1,mexican,13 or older,"no, only English or Spanish",no,2025-08-12_14h18.06.064,empathy_intonation_perc,2024.2.4,Win32,59.88023952,671165ce01cd9c2699b90dc1,687ed1b7e638a4cbf2f02089,689b851063c6223382be1ffd,,,,,,,,,,,,,,,87,0,,./stim/wavs/puertorican_mismatch_declarative-broad-focus_La-maestra-vive-en-Paris.wav,,,,,,,,,,,,,,,,,,,,,,413.8119,416.093,0,1,1.7452,,0,68,68,86,1,0,puertorican,,,,,,,,,,,,,,,,,,,,,,,,,,,,,,,,,,,,,,,,,,,,,,,,,,,,,,,,
,,,,,,,,,671165ce01cd9c2699b90dc1,mexican,13 or older,"no, only English or Spanish",no,2025-08-12_14h18.06.064,empathy_intonation_perc,2024.2.4,Win32,59.88023952,671165ce01cd9c2699b90dc1,687ed1b7e638a4cbf2f02089,689b851063c6223382be1ffd,,,,,,,,,,,,,,,85,0,,./stim/wavs/puertorican_mismatch_declarative-broad-focus_El-hombre-mira-la-luna.wav,,,,,,,,,,,,,,,,,,,,,,416.0941,418.3749,0,1,1.7491,,0,69,69,84,1,0,puertorican,,,,,,,,,,,,,,,,,,,,,,,,,,,,,,,,,,,,,,,,,,,,,,,,,,,,,,,,
,,,,,,,,,671165ce01cd9c2699b90dc1,mexican,13 or older,"no, only English or Spanish",no,2025-08-12_14h18.06.064,empathy_intonation_perc,2024.2.4,Win32,59.88023952,671165ce01cd9c2699b90dc1,687ed1b7e638a4cbf2f02089,689b851063c6223382be1ffd,,,,,,,,,,,,,,,70,0,,./stim/wavs/castilian_mismatch_declarative-broad-focus_La-maestra-vive-en-Paris.wav,,,,,,,,,,,,,,,,,,,,,,418.3756,420.9571,1,0,2.0482,,0,70,70,69,1,0,castilian,,,,,,,,,,,,,,,,,,,,,,,,,,,,,,,,,,,,,,,,,,,,,,,,,,,,,,,,
,,,,,,,,,671165ce01cd9c2699b90dc1,mexican,13 or older,"no, only English or Spanish",no,2025-08-12_14h18.06.064,empathy_intonation_perc,2024.2.4,Win32,59.88023952,671165ce01cd9c2699b90dc1,687ed1b7e638a4cbf2f02089,689b851063c6223382be1ffd,,,,,,,,,,,,,,,45,0,,./stim/wavs/castilian_match_declarative-broad-focus_David-leia-el-libro.wav,,,,,,,,,,,,,,,,,,,,,,420.9587,423.9367,0,1,2.453,,0,71,71,44,1,0,castilian,,,,,,,,,,,,,,,,,,,,,,,,,,,,,,,,,,,,,,,,,,,,,,,,,,,,,,,,
,,,,,,,,,671165ce01cd9c2699b90dc1,mexican,13 or older,"no, only English or Spanish",no,2025-08-12_14h18.06.064,empathy_intonation_perc,2024.2.4,Win32,59.88023952,671165ce01cd9c2699b90dc1,687ed1b7e638a4cbf2f02089,689b851063c6223382be1ffd,,,,,,,,,,,,,,,23,1,,./stim/wavs/puertorican_match_interrogative-total-yn_Manuela-vende-el-carro.wav,,,,,,,,,,,,,,,,,,,,,,423.9609,431.6684,0,0,7.1789,,0,72,72,22,1,1,puertorican,,,,,,,,,,,,,,,,,,,,,,,,,,,,,,,,,,,,,,,,,,,,,,,,,,,,,,,,
,,,,,,,,,671165ce01cd9c2699b90dc1,mexican,13 or older,"no, only English or Spanish",no,2025-08-12_14h18.06.064,empathy_intonation_perc,2024.2.4,Win32,59.88023952,671165ce01cd9c2699b90dc1,687ed1b7e638a4cbf2f02089,689b851063c6223382be1ffd,,,,,,,,,,,,,,,2,1,,./stim/wavs/castilian_match_interrogative-total-yn_Emilio-ama-la-marcha.wav,,,,,,,,,,,,,,,,,,,,,,431.6825,433.7832,1,1,1.558,,0,73,73,1,1,0,castilian,,,,,,,,,,,,,,,,,,,,,,,,,,,,,,,,,,,,,,,,,,,,,,,,,,,,,,,,
,,,,,,,,,671165ce01cd9c2699b90dc1,mexican,13 or older,"no, only English or Spanish",no,2025-08-12_14h18.06.064,empathy_intonation_perc,2024.2.4,Win32,59.88023952,671165ce01cd9c2699b90dc1,687ed1b7e638a4cbf2f02089,689b851063c6223382be1ffd,,,,,,,,,,,,,,,20,1,,./stim/wavs/puertorican_match_interrogative-total-yn_Daniel-iba-a-Bolivia.wav,,,,,,,,,,,,,,,,,,,,,,433.7843,435.6955,0,0,1.3856,,0,74,74,19,1,1,puertorican,,,,,,,,,,,,,,,,,,,,,,,,,,,,,,,,,,,,,,,,,,,,,,,,,,,,,,,,
,,,,,,,,,671165ce01cd9c2699b90dc1,mexican,13 or older,"no, only English or Spanish",no,2025-08-12_14h18.06.064,empathy_intonation_perc,2024.2.4,Win32,59.88023952,671165ce01cd9c2699b90dc1,687ed1b7e638a4cbf2f02089,689b851063c6223382be1ffd,,,,,,,,,,,,,,,36,1,,./stim/wavs/mexican_mismatch_interrogative-total-yn_El-nino-oye-el-rio.wav,,,,,,,,,,,,,,,,,,,,,,435.6971,437.9143,1,1,1.696,,0,75,75,35,1,0,mexican,,,,,,,,,,,,,,,,,,,,,,,,,,,,,,,,,,,,,,,,,,,,,,,,,,,,,,,,
,,,,,,,,,671165ce01cd9c2699b90dc1,mexican,13 or older,"no, only English or Spanish",no,2025-08-12_14h18.06.064,empathy_intonation_perc,2024.2.4,Win32,59.88023952,671165ce01cd9c2699b90dc1,687ed1b7e638a4cbf2f02089,689b851063c6223382be1ffd,,,,,,,,,,,,,,,69,0,,./stim/wavs/castilian_mismatch_declarative-broad-focus_El-nino-oye-el-rio.wav,,,,,,,,,,,,,,,,,,,,,,437.929,440.9459,1,0,2.5035,,0,76,76,68,1,0,castilian,,,,,,,,,,,,,,,,,,,,,,,,,,,,,,,,,,,,,,,,,,,,,,,,,,,,,,,,
,,,,,,,,,671165ce01cd9c2699b90dc1,mexican,13 or older,"no, only English or Spanish",no,2025-08-12_14h18.06.064,empathy_intonation_perc,2024.2.4,Win32,59.88023952,671165ce01cd9c2699b90dc1,687ed1b7e638a4cbf2f02089,689b851063c6223382be1ffd,,,,,,,,,,,,,,,57,0,,./stim/wavs/mexican_match_declarative-broad-focus_Ana-lleva-el-abrigo.wav,,,,,,,,,,,,,,,,,,,,,,440.9469,444.0446,1,0,2.5661,,0,77,77,56,1,0,mexican,,,,,,,,,,,,,,,,,,,,,,,,,,,,,,,,,,,,,,,,,,,,,,,,,,,,,,,,
,,,,,,,,,671165ce01cd9c2699b90dc1,mexican,13 or older,"no, only English or Spanish",no,2025-08-12_14h18.06.064,empathy_intonation_perc,2024.2.4,Win32,59.88023952,671165ce01cd9c2699b90dc1,687ed1b7e638a4cbf2f02089,689b851063c6223382be1ffd,,,,,,,,,,,,,,,86,0,,./stim/wavs/puertorican_mismatch_declarative-broad-focus_El-nino-oye-el-rio.wav,,,,,,,,,,,,,,,,,,,,,,444.0576,446.2934,0,1,1.7137,,0,78,78,85,1,0,puertorican,,,,,,,,,,,,,,,,,,,,,,,,,,,,,,,,,,,,,,,,,,,,,,,,,,,,,,,,
,,,,,,,,,671165ce01cd9c2699b90dc1,mexican,13 or older,"no, only English or Spanish",no,2025-08-12_14h18.06.064,empathy_intonation_perc,2024.2.4,Win32,59.88023952,671165ce01cd9c2699b90dc1,687ed1b7e638a4cbf2f02089,689b851063c6223382be1ffd,,,,,,,,,,,,,,,31,1,,./stim/wavs/cuban_mismatch_interrogative-total-yn_El-nino-oye-el-rio.wav,,,,,,,,,,,,,,,,,,,,,,446.2943,448.1266,1,1,1.3,,0,79,79,30,1,1,cuban,,,,,,,,,,,,,,,,,,,,,,,,,,,,,,,,,,,,,,,,,,,,,,,,,,,,,,,,
,,,,,,,,,671165ce01cd9c2699b90dc1,mexican,13 or older,"no, only English or Spanish",no,2025-08-12_14h18.06.064,empathy_intonation_perc,2024.2.4,Win32,59.88023952,671165ce01cd9c2699b90dc1,687ed1b7e638a4cbf2f02089,689b851063c6223382be1ffd,,,,,,,,,,,,,,,27,1,,./stim/wavs/castilian_mismatch_interrogative-total-yn_Mi-madre-come-la-fruta.wav,,,,,,,,,,,,,,,,,,,,,,448.1273,449.4415,1,1,0.7842,,0,80,80,26,1,0,castilian,,,,,,,,,,,,,,,,,,,,,,,,,,,,,,,,,,,,,,,,,,,,,,,,,,,,,,,,
,,,,,,,,,671165ce01cd9c2699b90dc1,mexican,13 or older,"no, only English or Spanish",no,2025-08-12_14h18.06.064,empathy_intonation_perc,2024.2.4,Win32,59.88023952,671165ce01cd9c2699b90dc1,687ed1b7e638a4cbf2f02089,689b851063c6223382be1ffd,,,,,,,,,,,,,,,10,1,,./stim/wavs/cuban_match_interrogative-total-yn_Maria-bebe-el-vino.wav,,,,,,,,,,,,,,,,,,,,,,449.4422,451.3239,1,1,1.3512,,0,81,81,9,1,1,cuban,,,,,,,,,,,,,,,,,,,,,,,,,,,,,,,,,,,,,,,,,,,,,,,,,,,,,,,,
,,,,,,,,,671165ce01cd9c2699b90dc1,mexican,13 or older,"no, only English or Spanish",no,2025-08-12_14h18.06.064,empathy_intonation_perc,2024.2.4,Win32,59.88023952,671165ce01cd9c2699b90dc1,687ed1b7e638a4cbf2f02089,689b851063c6223382be1ffd,,,,,,,,,,,,,,,84,0,,./stim/wavs/puertorican_mismatch_declarative-broad-focus_El-bebe-comia-muy-bien.wav,,,,,,,,,,,,,,,,,,,,,,451.3248,453.5224,1,0,1.6648,,0,82,82,83,1,0,puertorican,,,,,,,,,,,,,,,,,,,,,,,,,,,,,,,,,,,,,,,,,,,,,,,,,,,,,,,,
,,,,,,,,,671165ce01cd9c2699b90dc1,mexican,13 or older,"no, only English or Spanish",no,2025-08-12_14h18.06.064,empathy_intonation_perc,2024.2.4,Win32,59.88023952,671165ce01cd9c2699b90dc1,687ed1b7e638a4cbf2f02089,689b851063c6223382be1ffd,,,,,,,,,,,,,,,63,0,,./stim/wavs/puertorican_match_declarative-broad-focus_Ana-lleva-el-abrigo.wav,,,,,,,,,,,,,,,,,,,,,,453.5232,455.3717,0,1,1.3167,,0,83,83,62,1,0,puertorican,,,,,,,,,,,,,,,,,,,,,,,,,,,,,,,,,,,,,,,,,,,,,,,,,,,,,,,,
,,,,,,,,,671165ce01cd9c2699b90dc1,mexican,13 or older,"no, only English or Spanish",no,2025-08-12_14h18.06.064,empathy_intonation_perc,2024.2.4,Win32,59.88023952,671165ce01cd9c2699b90dc1,687ed1b7e638a4cbf2f02089,689b851063c6223382be1ffd,,,,,,,,,,,,,,,7,1,,./stim/wavs/cuban_match_interrogative-total-yn_Ana-lleva-el-abrigo.wav,,,,,,,,,,,,,,,,,,,,,,455.3728,457.8872,0,0,1.9826,,0,84,84,6,1,1,cuban,,,,,,,,,,,,,,,,,,,,,,,,,,,,,,,,,,,,,,,,,,,,,,,,,,,,,,,,
,,,,,,,,,671165ce01cd9c2699b90dc1,mexican,13 or older,"no, only English or Spanish",no,2025-08-12_14h18.06.064,empathy_intonation_perc,2024.2.4,Win32,59.88023952,671165ce01cd9c2699b90dc1,687ed1b7e638a4cbf2f02089,689b851063c6223382be1ffd,,,,,,,,,,,,,,,42,1,,./stim/wavs/puertorican_mismatch_interrogative-total-yn_La-maestra-vive-en-Paris.wav,,,,,,,,,,,,,,,,,,,,,,457.9017,460.5851,0,0,2.163,,0,85,85,41,1,1,puertorican,,,,,,,,,,,,,,,,,,,,,,,,,,,,,,,,,,,,,,,,,,,,,,,,,,,,,,,,
,,,,,,,,,671165ce01cd9c2699b90dc1,mexican,13 or older,"no, only English or Spanish",no,2025-08-12_14h18.06.064,empathy_intonation_perc,2024.2.4,Win32,59.88023952,671165ce01cd9c2699b90dc1,687ed1b7e638a4cbf2f02089,689b851063c6223382be1ffd,,,,,,,,,,,,,,,44,1,,./stim/wavs/puertorican_mismatch_interrogative-total-yn_Mi-madre-come-la-fruta.wav,,,,,,,,,,,,,,,,,,,,,,460.5858,462.4007,1,1,1.2852,,0,86,86,43,1,1,puertorican,,,,,,,,,,,,,,,,,,,,,,,,,,,,,,,,,,,,,,,,,,,,,,,,,,,,,,,,
,,,,,,,,,671165ce01cd9c2699b90dc1,mexican,13 or older,"no, only English or Spanish",no,2025-08-12_14h18.06.064,empathy_intonation_perc,2024.2.4,Win32,59.88023952,671165ce01cd9c2699b90dc1,687ed1b7e638a4cbf2f02089,689b851063c6223382be1ffd,,,,,,,,,,,,,,,80,0,,./stim/wavs/mexican_mismatch_declarative-broad-focus_El-hombre-mira-la-luna.wav,,,,,,,,,,,,,,,,,,,,,,462.4017,464.1165,1,0,1.1916,,0,87,87,79,1,0,mexican,,,,,,,,,,,,,,,,,,,,,,,,,,,,,,,,,,,,,,,,,,,,,,,,,,,,,,,,
,,,,,,,"Great! Now we will move on. The next task consists of about 60 trials, in each of which you will see a string of letters. 
  
  Your task is to decide whether this is a real Spanish word or not.", (press the spacebar to continue),671165ce01cd9c2699b90dc1,mexican,13 or older,"no, only English or Spanish",no,2025-08-12_14h18.06.064,empathy_intonation_perc,2024.2.4,Win32,59.88023952,671165ce01cd9c2699b90dc1,687ed1b7e638a4cbf2f02089,689b851063c6223382be1ffd,,,,,,,,,,,,,,,,,,,,,,,,,,,,,,,,,,,,,,,,,,,,,,,,,,,,,464.1291,474.8799,0,0,0,0,1,,,,,,,,,,,,,,,,,,,,,,,,,,,,,,,,,,,,,,,,,,,,,,,,,
,,,,,,,"If you think it is an existing Spanish word, you type '1' (for 'REAL'), and if you think it is not an existing Spanish word, you type '0' (for 'FAKE').", (press the spacebar to continue),671165ce01cd9c2699b90dc1,mexican,13 or older,"no, only English or Spanish",no,2025-08-12_14h18.06.064,empathy_intonation_perc,2024.2.4,Win32,59.88023952,671165ce01cd9c2699b90dc1,687ed1b7e638a4cbf2f02089,689b851063c6223382be1ffd,,,,,,,,,,,,,,,,,,,,,,,,,,,,,,,,,,,,,,,,,,,,,,,,,,,,,474.9001,486.0765,0,1,1,1,1,,,,,,,,,,,,,,,,,,,,,,,,,,,,,,,,,,,,,,,,,,,,,,,,,
,,,,,,,"If you are sure that the word exists, even though you don’t know its exact meaning, you may still respond '1' (REAL). 
  
  But if you are not sure if it is an existing word, you should respond '0' (FAKE).
  
  Let's do a practice round...", (press the spacebar to continue),671165ce01cd9c2699b90dc1,mexican,13 or older,"no, only English or Spanish",no,2025-08-12_14h18.06.064,empathy_intonation_perc,2024.2.4,Win32,59.88023952,671165ce01cd9c2699b90dc1,687ed1b7e638a4cbf2f02089,689b851063c6223382be1ffd,,,,,,,,,,,,,,,,,,,,,,,,,,,,,,,,,,,,,,,,,,,,,,,,,,,,,486.0989,506.0276,0,2,2,2,1,,,,,,,,,,,,,,,,,,,,,,,,,,,,,,,,,,,,,,,,,,,,,,,,,
,,,,,,,,,671165ce01cd9c2699b90dc1,mexican,13 or older,"no, only English or Spanish",no,2025-08-12_14h18.06.064,empathy_intonation_perc,2024.2.4,Win32,59.88023952,671165ce01cd9c2699b90dc1,687ed1b7e638a4cbf2f02089,689b851063c6223382be1ffd,,,,,,,,,,,,,,,,0,,,,,,,,,,,,,,,,,,,,,,,,,,,,,,,,,,,,,,,,,,,,506.0506,512.4259,1,0,5.848,,512.4393,513.4231,0,0,0,0,1,0,depiste,REAL,FAKE,,,,,,,,,,,,,,,,,,,,,,,,,,,,,,,,
,,,,,,,,,671165ce01cd9c2699b90dc1,mexican,13 or older,"no, only English or Spanish",no,2025-08-12_14h18.06.064,empathy_intonation_perc,2024.2.4,Win32,59.88023952,671165ce01cd9c2699b90dc1,687ed1b7e638a4cbf2f02089,689b851063c6223382be1ffd,,,,,,,,,,,,,,,,1,,,,,,,,,,,,,,,,,,,,,,,,,,,,,,,,,,,,,,,,,,,,513.4292,521.0685,1,1,7.1112,,521.0694,522.0684,0,1,1,1,1,0,sí,REAL,FAKE,,,,,,,,,,,,,,,,,,,,,,,,,,,,,,,,
,,,,,,,,,671165ce01cd9c2699b90dc1,mexican,13 or older,"no, only English or Spanish",no,2025-08-12_14h18.06.064,empathy_intonation_perc,2024.2.4,Win32,59.88023952,671165ce01cd9c2699b90dc1,687ed1b7e638a4cbf2f02089,689b851063c6223382be1ffd,,,,,,,,,,,,,,,,0,,,,,,,,,,,,,,,,,,,,,,,,,,,,,,,,,,,,,,,,,,,,522.0834,524.3009,1,0,1.6916,,524.3018,525.2996,0,2,2,2,1,0,coné,REAL,FAKE,,,,,,,,,,,,,,,,,,,,,,,,,,,,,,,,
,,,,,,,,,671165ce01cd9c2699b90dc1,mexican,13 or older,"no, only English or Spanish",no,2025-08-12_14h18.06.064,empathy_intonation_perc,2024.2.4,Win32,59.88023952,671165ce01cd9c2699b90dc1,687ed1b7e638a4cbf2f02089,689b851063c6223382be1ffd,,,,,,,,,,,,,,,,0,,,,,,,,,,,,,,,,,,,,,,,,,,,,,,,,,,,,,,,,,,,,525.3032,527.1324,1,0,1.296,,527.1325,528.1313,0,3,3,3,1,0,calpar,REAL,FAKE,,,,,,,,,,,,,,,,,,,,,,,,,,,,,,,,
,,,,,,,,,671165ce01cd9c2699b90dc1,mexican,13 or older,"no, only English or Spanish",no,2025-08-12_14h18.06.064,empathy_intonation_perc,2024.2.4,Win32,59.88023952,671165ce01cd9c2699b90dc1,687ed1b7e638a4cbf2f02089,689b851063c6223382be1ffd,,,,,,,,,,,,,,,,0,,,,,,,,,,,,,,,,,,,,,,,,,,,,,,,,,,,,,,,,,,,,528.1466,529.8304,1,0,1.1626,,529.8305,530.8297,0,4,4,4,1,0,joten,REAL,FAKE,,,,,,,,,,,,,,,,,,,,,,,,,,,,,,,,
,,,,,,,,,671165ce01cd9c2699b90dc1,mexican,13 or older,"no, only English or Spanish",no,2025-08-12_14h18.06.064,empathy_intonation_perc,2024.2.4,Win32,59.88023952,671165ce01cd9c2699b90dc1,687ed1b7e638a4cbf2f02089,689b851063c6223382be1ffd,,,,,,,,,,,,,,,,1,,,,,,,,,,,,,,,,,,,,,,,,,,,,,,,,,,,,,,,,,,,,530.832,532.1973,1,1,0.8281,,532.1982,533.1952,0,5,5,5,1,0,sacapuntas,REAL,FAKE,,,,,,,,,,,,,,,,,,,,,,,,,,,,,,,,
,,,,,,,,,671165ce01cd9c2699b90dc1,mexican,13 or older,"no, only English or Spanish",no,2025-08-12_14h18.06.064,empathy_intonation_perc,2024.2.4,Win32,59.88023952,671165ce01cd9c2699b90dc1,687ed1b7e638a4cbf2f02089,689b851063c6223382be1ffd,,,,,,,,,,,,,,,,0,,,,,,,,,,,,,,,,,,,,,,,,,,,,,,,,,,,,,,,,,,,,533.1992,534.3946,1,0,0.6594,,534.3955,535.394,0,6,6,6,1,0,priba,REAL,FAKE,,,,,,,,,,,,,,,,,,,,,,,,,,,,,,,,
,,,,,,,,,671165ce01cd9c2699b90dc1,mexican,13 or older,"no, only English or Spanish",no,2025-08-12_14h18.06.064,empathy_intonation_perc,2024.2.4,Win32,59.88023952,671165ce01cd9c2699b90dc1,687ed1b7e638a4cbf2f02089,689b851063c6223382be1ffd,,,,,,,,,,,,,,,,0,,,,,,,,,,,,,,,,,,,,,,,,,,,,,,,,,,,,,,,,,,,,535.3962,536.4766,0,1,0.549,,536.4784,537.4763,0,7,7,7,1,0,pelasula,REAL,FAKE,,,,,,,,,,,,,,,,,,,,,,,,,,,,,,,,
,,,,,,,,,671165ce01cd9c2699b90dc1,mexican,13 or older,"no, only English or Spanish",no,2025-08-12_14h18.06.064,empathy_intonation_perc,2024.2.4,Win32,59.88023952,671165ce01cd9c2699b90dc1,687ed1b7e638a4cbf2f02089,689b851063c6223382be1ffd,,,,,,,,,,,,,,,,1,,,,,,,,,,,,,,,,,,,,,,,,,,,,,,,,,,,,,,,,,,,,537.4777,539.1757,0,0,1.1783,,539.1776,540.1747,0,8,8,8,1,0,bien,REAL,FAKE,,,,,,,,,,,,,,,,,,,,,,,,,,,,,,,,
,,,,,,,,,671165ce01cd9c2699b90dc1,mexican,13 or older,"no, only English or Spanish",no,2025-08-12_14h18.06.064,empathy_intonation_perc,2024.2.4,Win32,59.88023952,671165ce01cd9c2699b90dc1,687ed1b7e638a4cbf2f02089,689b851063c6223382be1ffd,,,,,,,,,,,,,,,,1,,,,,,,,,,,,,,,,,,,,,,,,,,,,,,,,,,,,,,,,,,,,540.1904,541.9741,1,1,1.2604,,541.9751,542.9736,0,9,9,9,1,0,casa,REAL,FAKE,,,,,,,,,,,,,,,,,,,,,,,,,,,,,,,,
,,,,,,,,,671165ce01cd9c2699b90dc1,mexican,13 or older,"no, only English or Spanish",no,2025-08-12_14h18.06.064,empathy_intonation_perc,2024.2.4,Win32,59.88023952,671165ce01cd9c2699b90dc1,687ed1b7e638a4cbf2f02089,689b851063c6223382be1ffd,,,,,,,,,,,,,,,,0,,,,,,,,,,,,,,,,,,,,,,,,,,,,,,,,,,,,,,,,,,,,542.9776,544.2403,0,1,0.7272,,544.2404,545.2395,0,10,10,10,1,0,lejo,REAL,FAKE,,,,,,,,,,,,,,,,,,,,,,,,,,,,,,,,
,,,,,,,,,671165ce01cd9c2699b90dc1,mexican,13 or older,"no, only English or Spanish",no,2025-08-12_14h18.06.064,empathy_intonation_perc,2024.2.4,Win32,59.88023952,671165ce01cd9c2699b90dc1,687ed1b7e638a4cbf2f02089,689b851063c6223382be1ffd,,,,,,,,,,,,,,,,0,,,,,,,,,,,,,,,,,,,,,,,,,,,,,,,,,,,,,,,,,,,,545.2438,547.154,0,1,1.3787,,547.154,548.1523,0,11,11,11,1,0,pretantas,REAL,FAKE,,,,,,,,,,,,,,,,,,,,,,,,,,,,,,,,
,,,,,,,,,671165ce01cd9c2699b90dc1,mexican,13 or older,"no, only English or Spanish",no,2025-08-12_14h18.06.064,empathy_intonation_perc,2024.2.4,Win32,59.88023952,671165ce01cd9c2699b90dc1,687ed1b7e638a4cbf2f02089,689b851063c6223382be1ffd,,,,,,,,,,,,,,,,,,,,,,,,,,,,,,,,,,,,,,,,,,,,,,,,,,,,,,,,,,,,,,,,,,,,,,,,,,,,,548.1556,553.1976,,,,,,,,,,,,,,,,,,,,,,,,,,,,,,
,,,,,,,,,671165ce01cd9c2699b90dc1,mexican,13 or older,"no, only English or Spanish",no,2025-08-12_14h18.06.064,empathy_intonation_perc,2024.2.4,Win32,59.88023952,671165ce01cd9c2699b90dc1,687ed1b7e638a4cbf2f02089,689b851063c6223382be1ffd,,,,,,,,,,,,,,,,1,,,,,,,,,,,,,,,,,,,,,,,,,,,,,,,,,,,,,,,,,,,,,,,,,,,,,,,,,81,pozo,,,,,553.2285,554.6008,0,0,0.8485,,0,0,0,80,1,REAL,FAKE,,,,,,,,,,,,,,,,,
,,,,,,,,,671165ce01cd9c2699b90dc1,mexican,13 or older,"no, only English or Spanish",no,2025-08-12_14h18.06.064,empathy_intonation_perc,2024.2.4,Win32,59.88023952,671165ce01cd9c2699b90dc1,687ed1b7e638a4cbf2f02089,689b851063c6223382be1ffd,,,,,,,,,,,,,,,,1,,,,,,,,,,,,,,,,,,,,,,,,,,,,,,,,,,,,,,,,,,,,,,,,,,,,,,,,,78,frondoso,,,,,554.6031,556.4159,1,1,1.2799,,0,1,1,77,1,REAL,FAKE,,,,,,,,,,,,,,,,,
,,,,,,,,,671165ce01cd9c2699b90dc1,mexican,13 or older,"no, only English or Spanish",no,2025-08-12_14h18.06.064,empathy_intonation_perc,2024.2.4,Win32,59.88023952,671165ce01cd9c2699b90dc1,687ed1b7e638a4cbf2f02089,689b851063c6223382be1ffd,,,,,,,,,,,,,,,,1,,,,,,,,,,,,,,,,,,,,,,,,,,,,,,,,,,,,,,,,,,,,,,,,,,,,,,,,,83,guante,,,,,556.4185,557.7651,1,1,0.8052,,0,2,2,82,1,REAL,FAKE,,,,,,,,,,,,,,,,,
,,,,,,,,,671165ce01cd9c2699b90dc1,mexican,13 or older,"no, only English or Spanish",no,2025-08-12_14h18.06.064,empathy_intonation_perc,2024.2.4,Win32,59.88023952,671165ce01cd9c2699b90dc1,687ed1b7e638a4cbf2f02089,689b851063c6223382be1ffd,,,,,,,,,,,,,,,,1,,,,,,,,,,,,,,,,,,,,,,,,,,,,,,,,,,,,,,,,,,,,,,,,,,,,,,,,,22,lacayo,,,,,557.7682,558.6494,0,0,0.3463,,0,3,3,21,1,REAL,FAKE,,,,,,,,,,,,,,,,,
,,,,,,,,,671165ce01cd9c2699b90dc1,mexican,13 or older,"no, only English or Spanish",no,2025-08-12_14h18.06.064,empathy_intonation_perc,2024.2.4,Win32,59.88023952,671165ce01cd9c2699b90dc1,687ed1b7e638a4cbf2f02089,689b851063c6223382be1ffd,,,,,,,,,,,,,,,,1,,,,,,,,,,,,,,,,,,,,,,,,,,,,,,,,,,,,,,,,,,,,,,,,,,,,,,,,,44,cuchara,,,,,558.6506,560.2307,0,0,1.0498,,0,4,4,43,1,REAL,FAKE,,,,,,,,,,,,,,,,,
,,,,,,,,,671165ce01cd9c2699b90dc1,mexican,13 or older,"no, only English or Spanish",no,2025-08-12_14h18.06.064,empathy_intonation_perc,2024.2.4,Win32,59.88023952,671165ce01cd9c2699b90dc1,687ed1b7e638a4cbf2f02089,689b851063c6223382be1ffd,,,,,,,,,,,,,,,,1,,,,,,,,,,,,,,,,,,,,,,,,,,,,,,,,,,,,,,,,,,,,,,,,,,,,,,,,,88,acantilado,,,,,560.2337,561.0971,1,1,0.3321,,0,5,5,87,1,REAL,FAKE,,,,,,,,,,,,,,,,,
,,,,,,,,,671165ce01cd9c2699b90dc1,mexican,13 or older,"no, only English or Spanish",no,2025-08-12_14h18.06.064,empathy_intonation_perc,2024.2.4,Win32,59.88023952,671165ce01cd9c2699b90dc1,687ed1b7e638a4cbf2f02089,689b851063c6223382be1ffd,,,,,,,,,,,,,,,,1,,,,,,,,,,,,,,,,,,,,,,,,,,,,,,,,,,,,,,,,,,,,,,,,,,,,,,,,,69,engatusar,,,,,561.1016,562.6625,1,1,1.0283,,0,6,6,68,1,REAL,FAKE,,,,,,,,,,,,,,,,,
,,,,,,,,,671165ce01cd9c2699b90dc1,mexican,13 or older,"no, only English or Spanish",no,2025-08-12_14h18.06.064,empathy_intonation_perc,2024.2.4,Win32,59.88023952,671165ce01cd9c2699b90dc1,687ed1b7e638a4cbf2f02089,689b851063c6223382be1ffd,,,,,,,,,,,,,,,,0,,,,,,,,,,,,,,,,,,,,,,,,,,,,,,,,,,,,,,,,,,,,,,,,,,,,,,,,,58,plaudir,,,,,562.666,563.9282,0,1,0.7262,,0,7,7,57,1,REAL,FAKE,,,,,,,,,,,,,,,,,
,,,,,,,,,671165ce01cd9c2699b90dc1,mexican,13 or older,"no, only English or Spanish",no,2025-08-12_14h18.06.064,empathy_intonation_perc,2024.2.4,Win32,59.88023952,671165ce01cd9c2699b90dc1,687ed1b7e638a4cbf2f02089,689b851063c6223382be1ffd,,,,,,,,,,,,,,,,0,,,,,,,,,,,,,,,,,,,,,,,,,,,,,,,,,,,,,,,,,,,,,,,,,,,,,,,,,8,cadeña,,,,,563.9329,565.5442,1,0,1.0809,,0,8,8,7,1,REAL,FAKE,,,,,,,,,,,,,,,,,
,,,,,,,,,671165ce01cd9c2699b90dc1,mexican,13 or older,"no, only English or Spanish",no,2025-08-12_14h18.06.064,empathy_intonation_perc,2024.2.4,Win32,59.88023952,671165ce01cd9c2699b90dc1,687ed1b7e638a4cbf2f02089,689b851063c6223382be1ffd,,,,,,,,,,,,,,,,0,,,,,,,,,,,,,,,,,,,,,,,,,,,,,,,,,,,,,,,,,,,,,,,,,,,,,,,,,63,esposante,,,,,565.547,566.6778,0,1,0.6017,,0,9,9,62,1,REAL,FAKE,,,,,,,,,,,,,,,,,
,,,,,,,,,671165ce01cd9c2699b90dc1,mexican,13 or older,"no, only English or Spanish",no,2025-08-12_14h18.06.064,empathy_intonation_perc,2024.2.4,Win32,59.88023952,671165ce01cd9c2699b90dc1,687ed1b7e638a4cbf2f02089,689b851063c6223382be1ffd,,,,,,,,,,,,,,,,0,,,,,,,,,,,,,,,,,,,,,,,,,,,,,,,,,,,,,,,,,,,,,,,,,,,,,,,,,33,pauca,,,,,566.6797,567.8594,1,0,0.6373,,0,10,10,32,1,REAL,FAKE,,,,,,,,,,,,,,,,,
,,,,,,,,,671165ce01cd9c2699b90dc1,mexican,13 or older,"no, only English or Spanish",no,2025-08-12_14h18.06.064,empathy_intonation_perc,2024.2.4,Win32,59.88023952,671165ce01cd9c2699b90dc1,687ed1b7e638a4cbf2f02089,689b851063c6223382be1ffd,,,,,,,,,,,,,,,,1,,,,,,,,,,,,,,,,,,,,,,,,,,,,,,,,,,,,,,,,,,,,,,,,,,,,,,,,,48,ladrón,,,,,567.8632,569.442,1,1,1.0451,,0,11,11,47,1,REAL,FAKE,,,,,,,,,,,,,,,,,
,,,,,,,,,671165ce01cd9c2699b90dc1,mexican,13 or older,"no, only English or Spanish",no,2025-08-12_14h18.06.064,empathy_intonation_perc,2024.2.4,Win32,59.88023952,671165ce01cd9c2699b90dc1,687ed1b7e638a4cbf2f02089,689b851063c6223382be1ffd,,,,,,,,,,,,,,,,1,,,,,,,,,,,,,,,,,,,,,,,,,,,,,,,,,,,,,,,,,,,,,,,,,,,,,,,,,15,regar,,,,,569.4444,570.5413,0,0,0.5597,,0,12,12,14,1,REAL,FAKE,,,,,,,,,,,,,,,,,
,,,,,,,,,671165ce01cd9c2699b90dc1,mexican,13 or older,"no, only English or Spanish",no,2025-08-12_14h18.06.064,empathy_intonation_perc,2024.2.4,Win32,59.88023952,671165ce01cd9c2699b90dc1,687ed1b7e638a4cbf2f02089,689b851063c6223382be1ffd,,,,,,,,,,,,,,,,1,,,,,,,,,,,,,,,,,,,,,,,,,,,,,,,,,,,,,,,,,,,,,,,,,,,,,,,,,40,alfombra,,,,,570.544,571.7074,0,0,0.6254,,0,13,13,39,1,REAL,FAKE,,,,,,,,,,,,,,,,,
,,,,,,,,,671165ce01cd9c2699b90dc1,mexican,13 or older,"no, only English or Spanish",no,2025-08-12_14h18.06.064,empathy_intonation_perc,2024.2.4,Win32,59.88023952,671165ce01cd9c2699b90dc1,687ed1b7e638a4cbf2f02089,689b851063c6223382be1ffd,,,,,,,,,,,,,,,,0,,,,,,,,,,,,,,,,,,,,,,,,,,,,,,,,,,,,,,,,,,,,,,,,,,,,,,,,,87,grodo,,,,,571.7108,573.8739,1,0,1.6242,,0,14,14,86,1,REAL,FAKE,,,,,,,,,,,,,,,,,
,,,,,,,,,671165ce01cd9c2699b90dc1,mexican,13 or older,"no, only English or Spanish",no,2025-08-12_14h18.06.064,empathy_intonation_perc,2024.2.4,Win32,59.88023952,671165ce01cd9c2699b90dc1,687ed1b7e638a4cbf2f02089,689b851063c6223382be1ffd,,,,,,,,,,,,,,,,1,,,,,,,,,,,,,,,,,,,,,,,,,,,,,,,,,,,,,,,,,,,,,,,,,,,,,,,,,25,bisagra,,,,,573.8751,575.2722,1,1,0.8588,,0,15,15,24,1,REAL,FAKE,,,,,,,,,,,,,,,,,
,,,,,,,,,671165ce01cd9c2699b90dc1,mexican,13 or older,"no, only English or Spanish",no,2025-08-12_14h18.06.064,empathy_intonation_perc,2024.2.4,Win32,59.88023952,671165ce01cd9c2699b90dc1,687ed1b7e638a4cbf2f02089,689b851063c6223382be1ffd,,,,,,,,,,,,,,,,1,,,,,,,,,,,,,,,,,,,,,,,,,,,,,,,,,,,,,,,,,,,,,,,,,,,,,,,,,3,pulmones,,,,,575.2734,576.1714,0,0,0.3598,,0,16,16,2,1,REAL,FAKE,,,,,,,,,,,,,,,,,
,,,,,,,,,671165ce01cd9c2699b90dc1,mexican,13 or older,"no, only English or Spanish",no,2025-08-12_14h18.06.064,empathy_intonation_perc,2024.2.4,Win32,59.88023952,671165ce01cd9c2699b90dc1,687ed1b7e638a4cbf2f02089,689b851063c6223382be1ffd,,,,,,,,,,,,,,,,1,,,,,,,,,,,,,,,,,,,,,,,,,,,,,,,,,,,,,,,,,,,,,,,,,,,,,,,,,55,nevar,,,,,576.1751,576.889,1,1,0.1791,,0,17,17,54,1,REAL,FAKE,,,,,,,,,,,,,,,,,
,,,,,,,,,671165ce01cd9c2699b90dc1,mexican,13 or older,"no, only English or Spanish",no,2025-08-12_14h18.06.064,empathy_intonation_perc,2024.2.4,Win32,59.88023952,671165ce01cd9c2699b90dc1,687ed1b7e638a4cbf2f02089,689b851063c6223382be1ffd,,,,,,,,,,,,,,,,0,,,,,,,,,,,,,,,,,,,,,,,,,,,,,,,,,,,,,,,,,,,,,,,,,,,,,,,,,16,abracer,,,,,576.8902,577.7871,1,0,0.3668,,0,18,18,15,1,REAL,FAKE,,,,,,,,,,,,,,,,,
,,,,,,,,,671165ce01cd9c2699b90dc1,mexican,13 or older,"no, only English or Spanish",no,2025-08-12_14h18.06.064,empathy_intonation_perc,2024.2.4,Win32,59.88023952,671165ce01cd9c2699b90dc1,687ed1b7e638a4cbf2f02089,689b851063c6223382be1ffd,,,,,,,,,,,,,,,,1,,,,,,,,,,,,,,,,,,,,,,,,,,,,,,,,,,,,,,,,,,,,,,,,,,,,,,,,,77,tiburón,,,,,577.7903,579.137,1,1,0.8117,,0,19,19,76,1,REAL,FAKE,,,,,,,,,,,,,,,,,
,,,,,,,,,671165ce01cd9c2699b90dc1,mexican,13 or older,"no, only English or Spanish",no,2025-08-12_14h18.06.064,empathy_intonation_perc,2024.2.4,Win32,59.88023952,671165ce01cd9c2699b90dc1,687ed1b7e638a4cbf2f02089,689b851063c6223382be1ffd,,,,,,,,,,,,,,,,1,,,,,,,,,,,,,,,,,,,,,,,,,,,,,,,,,,,,,,,,,,,,,,,,,,,,,,,,,45,jilguero,,,,,579.1394,580.053,0,0,0.3762,,0,20,20,44,1,REAL,FAKE,,,,,,,,,,,,,,,,,
,,,,,,,,,671165ce01cd9c2699b90dc1,mexican,13 or older,"no, only English or Spanish",no,2025-08-12_14h18.06.064,empathy_intonation_perc,2024.2.4,Win32,59.88023952,671165ce01cd9c2699b90dc1,687ed1b7e638a4cbf2f02089,689b851063c6223382be1ffd,,,,,,,,,,,,,,,,1,,,,,,,,,,,,,,,,,,,,,,,,,,,,,,,,,,,,,,,,,,,,,,,,,,,,,,,,,68,alegre,,,,,580.0562,581.5523,1,1,0.9669,,0,21,21,67,1,REAL,FAKE,,,,,,,,,,,,,,,,,
,,,,,,,,,671165ce01cd9c2699b90dc1,mexican,13 or older,"no, only English or Spanish",no,2025-08-12_14h18.06.064,empathy_intonation_perc,2024.2.4,Win32,59.88023952,671165ce01cd9c2699b90dc1,687ed1b7e638a4cbf2f02089,689b851063c6223382be1ffd,,,,,,,,,,,,,,,,1,,,,,,,,,,,,,,,,,,,,,,,,,,,,,,,,,,,,,,,,,,,,,,,,,,,,,,,,,31,pandilla,,,,,581.5545,583.5842,1,1,1.4937,,0,22,22,30,1,REAL,FAKE,,,,,,,,,,,,,,,,,
,,,,,,,,,671165ce01cd9c2699b90dc1,mexican,13 or older,"no, only English or Spanish",no,2025-08-12_14h18.06.064,empathy_intonation_perc,2024.2.4,Win32,59.88023952,671165ce01cd9c2699b90dc1,687ed1b7e638a4cbf2f02089,689b851063c6223382be1ffd,,,,,,,,,,,,,,,,1,,,,,,,,,,,,,,,,,,,,,,,,,,,,,,,,,,,,,,,,,,,,,,,,,,,,,,,,,91,click the 1 key.,,,,,583.5888,585.6675,1,1,1.5397,,0,23,23,90,1,REAL,FAKE,,,,,,,,,,,,,,,,,
,,,,,,,,,671165ce01cd9c2699b90dc1,mexican,13 or older,"no, only English or Spanish",no,2025-08-12_14h18.06.064,empathy_intonation_perc,2024.2.4,Win32,59.88023952,671165ce01cd9c2699b90dc1,687ed1b7e638a4cbf2f02089,689b851063c6223382be1ffd,,,,,,,,,,,,,,,,1,,,,,,,,,,,,,,,,,,,,,,,,,,,,,,,,,,,,,,,,,,,,,,,,,,,,,,,,,2,pellizcar,,,,,585.6686,587.6152,1,1,1.4094,,0,24,24,1,1,REAL,FAKE,,,,,,,,,,,,,,,,,
,,,,,,,,,671165ce01cd9c2699b90dc1,mexican,13 or older,"no, only English or Spanish",no,2025-08-12_14h18.06.064,empathy_intonation_perc,2024.2.4,Win32,59.88023952,671165ce01cd9c2699b90dc1,687ed1b7e638a4cbf2f02089,689b851063c6223382be1ffd,,,,,,,,,,,,,,,,1,,,,,,,,,,,,,,,,,,,,,,,,,,,,,,,,,,,,,,,,,,,,,,,,,,,,,,,,,76,atar,,,,,587.6177,588.4813,0,0,0.3304,,0,25,25,75,1,REAL,FAKE,,,,,,,,,,,,,,,,,
,,,,,,,,,671165ce01cd9c2699b90dc1,mexican,13 or older,"no, only English or Spanish",no,2025-08-12_14h18.06.064,empathy_intonation_perc,2024.2.4,Win32,59.88023952,671165ce01cd9c2699b90dc1,687ed1b7e638a4cbf2f02089,689b851063c6223382be1ffd,,,,,,,,,,,,,,,,1,,,,,,,,,,,,,,,,,,,,,,,,,,,,,,,,,,,,,,,,,,,,,,,,,,,,,,,,,80,hormiga,,,,,588.4842,589.5973,1,1,0.5771,,0,26,26,79,1,REAL,FAKE,,,,,,,,,,,,,,,,,
,,,,,,,,,671165ce01cd9c2699b90dc1,mexican,13 or older,"no, only English or Spanish",no,2025-08-12_14h18.06.064,empathy_intonation_perc,2024.2.4,Win32,59.88023952,671165ce01cd9c2699b90dc1,687ed1b7e638a4cbf2f02089,689b851063c6223382be1ffd,,,,,,,,,,,,,,,,0,,,,,,,,,,,,,,,,,,,,,,,,,,,,,,,,,,,,,,,,,,,,,,,,,,,,,,,,,82,empirador,,,,,589.5997,590.897,0,1,0.7621,,0,27,27,81,1,REAL,FAKE,,,,,,,,,,,,,,,,,
,,,,,,,,,671165ce01cd9c2699b90dc1,mexican,13 or older,"no, only English or Spanish",no,2025-08-12_14h18.06.064,empathy_intonation_perc,2024.2.4,Win32,59.88023952,671165ce01cd9c2699b90dc1,687ed1b7e638a4cbf2f02089,689b851063c6223382be1ffd,,,,,,,,,,,,,,,,1,,,,,,,,,,,,,,,,,,,,,,,,,,,,,,,,,,,,,,,,,,,,,,,,,,,,,,,,,64,orgulloso,,,,,590.898,593.0292,1,1,1.5951,,0,28,28,63,1,REAL,FAKE,,,,,,,,,,,,,,,,,
,,,,,,,,,671165ce01cd9c2699b90dc1,mexican,13 or older,"no, only English or Spanish",no,2025-08-12_14h18.06.064,empathy_intonation_perc,2024.2.4,Win32,59.88023952,671165ce01cd9c2699b90dc1,687ed1b7e638a4cbf2f02089,689b851063c6223382be1ffd,,,,,,,,,,,,,,,,1,,,,,,,,,,,,,,,,,,,,,,,,,,,,,,,,,,,,,,,,,,,,,,,,,,,,,,,,,28,merodear,,,,,593.0303,594.4119,1,1,0.8404,,0,29,29,27,1,REAL,FAKE,,,,,,,,,,,,,,,,,
,,,,,,,,,671165ce01cd9c2699b90dc1,mexican,13 or older,"no, only English or Spanish",no,2025-08-12_14h18.06.064,empathy_intonation_perc,2024.2.4,Win32,59.88023952,671165ce01cd9c2699b90dc1,687ed1b7e638a4cbf2f02089,689b851063c6223382be1ffd,,,,,,,,,,,,,,,,1,,,,,,,,,,,,,,,,,,,,,,,,,,,,,,,,,,,,,,,,,,,,,,,,,,,,,,,,,12,asesinato,,,,,594.4146,597.0106,0,0,2.0653,,0,30,30,11,1,REAL,FAKE,,,,,,,,,,,,,,,,,
,,,,,,,,,671165ce01cd9c2699b90dc1,mexican,13 or older,"no, only English or Spanish",no,2025-08-12_14h18.06.064,empathy_intonation_perc,2024.2.4,Win32,59.88023952,671165ce01cd9c2699b90dc1,687ed1b7e638a4cbf2f02089,689b851063c6223382be1ffd,,,,,,,,,,,,,,,,1,,,,,,,,,,,,,,,,,,,,,,,,,,,,,,,,,,,,,,,,,,,,,,,,,,,,,,,,,41,rebuscar,,,,,597.0118,598.6759,1,1,1.1238,,0,31,31,40,1,REAL,FAKE,,,,,,,,,,,,,,,,,
,,,,,,,,,671165ce01cd9c2699b90dc1,mexican,13 or older,"no, only English or Spanish",no,2025-08-12_14h18.06.064,empathy_intonation_perc,2024.2.4,Win32,59.88023952,671165ce01cd9c2699b90dc1,687ed1b7e638a4cbf2f02089,689b851063c6223382be1ffd,,,,,,,,,,,,,,,,0,,,,,,,,,,,,,,,,,,,,,,,,,,,,,,,,,,,,,,,,,,,,,,,,,,,,,,,,,66,hacido,,,,,598.6795,600.3914,0,1,1.1828,,0,32,32,65,1,REAL,FAKE,,,,,,,,,,,,,,,,,
,,,,,,,,,671165ce01cd9c2699b90dc1,mexican,13 or older,"no, only English or Spanish",no,2025-08-12_14h18.06.064,empathy_intonation_perc,2024.2.4,Win32,59.88023952,671165ce01cd9c2699b90dc1,687ed1b7e638a4cbf2f02089,689b851063c6223382be1ffd,,,,,,,,,,,,,,,,1,,,,,,,,,,,,,,,,,,,,,,,,,,,,,,,,,,,,,,,,,,,,,,,,,,,,,,,,,75,yacer,,,,,600.3938,601.8907,1,1,0.9592,,0,33,33,74,1,REAL,FAKE,,,,,,,,,,,,,,,,,
,,,,,,,,,671165ce01cd9c2699b90dc1,mexican,13 or older,"no, only English or Spanish",no,2025-08-12_14h18.06.064,empathy_intonation_perc,2024.2.4,Win32,59.88023952,671165ce01cd9c2699b90dc1,687ed1b7e638a4cbf2f02089,689b851063c6223382be1ffd,,,,,,,,,,,,,,,,0,,,,,,,,,,,,,,,,,,,,,,,,,,,,,,,,,,,,,,,,,,,,,,,,,,,,,,,,,53,vegada,,,,,601.8935,603.1402,1,0,0.7091,,0,34,34,52,1,REAL,FAKE,,,,,,,,,,,,,,,,,
,,,,,,,,,671165ce01cd9c2699b90dc1,mexican,13 or older,"no, only English or Spanish",no,2025-08-12_14h18.06.064,empathy_intonation_perc,2024.2.4,Win32,59.88023952,671165ce01cd9c2699b90dc1,687ed1b7e638a4cbf2f02089,689b851063c6223382be1ffd,,,,,,,,,,,,,,,,0,,,,,,,,,,,,,,,,,,,,,,,,,,,,,,,,,,,,,,,,,,,,,,,,,,,,,,,,,1,terzo,,,,,603.1429,604.7889,1,0,1.1145,,0,35,35,0,1,REAL,FAKE,,,,,,,,,,,,,,,,,
,,,,,,,,,671165ce01cd9c2699b90dc1,mexican,13 or older,"no, only English or Spanish",no,2025-08-12_14h18.06.064,empathy_intonation_perc,2024.2.4,Win32,59.88023952,671165ce01cd9c2699b90dc1,687ed1b7e638a4cbf2f02089,689b851063c6223382be1ffd,,,,,,,,,,,,,,,,0,,,,,,,,,,,,,,,,,,,,,,,,,,,,,,,,,,,,,,,,,,,,,,,,,,,,,,,,,27,acutación,,,,,604.7908,606.6719,0,1,1.3614,,0,36,36,26,1,REAL,FAKE,,,,,,,,,,,,,,,,,
,,,,,,,,,671165ce01cd9c2699b90dc1,mexican,13 or older,"no, only English or Spanish",no,2025-08-12_14h18.06.064,empathy_intonation_perc,2024.2.4,Win32,59.88023952,671165ce01cd9c2699b90dc1,687ed1b7e638a4cbf2f02089,689b851063c6223382be1ffd,,,,,,,,,,,,,,,,0,,,,,,,,,,,,,,,,,,,,,,,,,,,,,,,,,,,,,,,,,,,,,,,,,,,,,,,,,10,antar,,,,,606.6735,607.7553,0,1,0.5443,,0,37,37,9,1,REAL,FAKE,,,,,,,,,,,,,,,,,
,,,,,,,,,671165ce01cd9c2699b90dc1,mexican,13 or older,"no, only English or Spanish",no,2025-08-12_14h18.06.064,empathy_intonation_perc,2024.2.4,Win32,59.88023952,671165ce01cd9c2699b90dc1,687ed1b7e638a4cbf2f02089,689b851063c6223382be1ffd,,,,,,,,,,,,,,,,0,,,,,,,,,,,,,,,,,,,,,,,,,,,,,,,,,,,,,,,,,,,,,,,,,,,,,,,,,29,decar,,,,,607.7566,609.387,1,0,1.0903,,0,38,38,28,1,REAL,FAKE,,,,,,,,,,,,,,,,,
,,,,,,,,,671165ce01cd9c2699b90dc1,mexican,13 or older,"no, only English or Spanish",no,2025-08-12_14h18.06.064,empathy_intonation_perc,2024.2.4,Win32,59.88023952,671165ce01cd9c2699b90dc1,687ed1b7e638a4cbf2f02089,689b851063c6223382be1ffd,,,,,,,,,,,,,,,,0,,,,,,,,,,,,,,,,,,,,,,,,,,,,,,,,,,,,,,,,,,,,,,,,,,,,,,,,,50,flamida,,,,,609.3899,610.4027,0,1,0.4772,,0,39,39,49,1,REAL,FAKE,,,,,,,,,,,,,,,,,
,,,,,,,,,671165ce01cd9c2699b90dc1,mexican,13 or older,"no, only English or Spanish",no,2025-08-12_14h18.06.064,empathy_intonation_perc,2024.2.4,Win32,59.88023952,671165ce01cd9c2699b90dc1,687ed1b7e638a4cbf2f02089,689b851063c6223382be1ffd,,,,,,,,,,,,,,,,1,,,,,,,,,,,,,,,,,,,,,,,,,,,,,,,,,,,,,,,,,,,,,,,,,,,,,,,,,34,aviso,,,,,610.4066,611.6855,1,1,0.7417,,0,40,40,33,1,REAL,FAKE,,,,,,,,,,,,,,,,,
,,,,,,,,,671165ce01cd9c2699b90dc1,mexican,13 or older,"no, only English or Spanish",no,2025-08-12_14h18.06.064,empathy_intonation_perc,2024.2.4,Win32,59.88023952,671165ce01cd9c2699b90dc1,687ed1b7e638a4cbf2f02089,689b851063c6223382be1ffd,,,,,,,,,,,,,,,,0,,,,,,,,,,,,,,,,,,,,,,,,,,,,,,,,,,,,,,,,,,,,,,,,,,,,,,,,,23,lampera,,,,,611.6885,612.5959,1,0,0.3701,,0,41,41,22,1,REAL,FAKE,,,,,,,,,,,,,,,,,
,,,,,,,,,671165ce01cd9c2699b90dc1,mexican,13 or older,"no, only English or Spanish",no,2025-08-12_14h18.06.064,empathy_intonation_perc,2024.2.4,Win32,59.88023952,671165ce01cd9c2699b90dc1,687ed1b7e638a4cbf2f02089,689b851063c6223382be1ffd,,,,,,,,,,,,,,,,1,,,,,,,,,,,,,,,,,,,,,,,,,,,,,,,,,,,,,,,,,,,,,,,,,,,,,,,,,59,besar,,,,,612.601,613.4635,1,1,0.334,,0,42,42,58,1,REAL,FAKE,,,,,,,,,,,,,,,,,
,,,,,,,,,671165ce01cd9c2699b90dc1,mexican,13 or older,"no, only English or Spanish",no,2025-08-12_14h18.06.064,empathy_intonation_perc,2024.2.4,Win32,59.88023952,671165ce01cd9c2699b90dc1,687ed1b7e638a4cbf2f02089,689b851063c6223382be1ffd,,,,,,,,,,,,,,,,1,,,,,,,,,,,,,,,,,,,,,,,,,,,,,,,,,,,,,,,,,,,,,,,,,,,,,,,,,54,fomentar,,,,,613.4659,614.1468,0,0,0.151,,0,43,43,53,1,REAL,FAKE,,,,,,,,,,,,,,,,,
,,,,,,,,,671165ce01cd9c2699b90dc1,mexican,13 or older,"no, only English or Spanish",no,2025-08-12_14h18.06.064,empathy_intonation_perc,2024.2.4,Win32,59.88023952,671165ce01cd9c2699b90dc1,687ed1b7e638a4cbf2f02089,689b851063c6223382be1ffd,,,,,,,,,,,,,,,,1,,,,,,,,,,,,,,,,,,,,,,,,,,,,,,,,,,,,,,,,,,,,,,,,,,,,,,,,,57,tacaño,,,,,614.1497,615.1793,1,1,0.5023,,0,44,44,56,1,REAL,FAKE,,,,,,,,,,,,,,,,,
,,,,,,,,,671165ce01cd9c2699b90dc1,mexican,13 or older,"no, only English or Spanish",no,2025-08-12_14h18.06.064,empathy_intonation_perc,2024.2.4,Win32,59.88023952,671165ce01cd9c2699b90dc1,687ed1b7e638a4cbf2f02089,689b851063c6223382be1ffd,,,,,,,,,,,,,,,,0,,,,,,,,,,,,,,,,,,,,,,,,,,,,,,,,,,,,,,,,,,,,,,,,,,,,,,,,,70,temblo,,,,,615.1833,616.543,1,0,0.8343,,0,45,45,69,1,REAL,FAKE,,,,,,,,,,,,,,,,,
,,,,,,,,,671165ce01cd9c2699b90dc1,mexican,13 or older,"no, only English or Spanish",no,2025-08-12_14h18.06.064,empathy_intonation_perc,2024.2.4,Win32,59.88023952,671165ce01cd9c2699b90dc1,687ed1b7e638a4cbf2f02089,689b851063c6223382be1ffd,,,,,,,,,,,,,,,,1,,,,,,,,,,,,,,,,,,,,,,,,,,,,,,,,,,,,,,,,,,,,,,,,,,,,,,,,,38,estornudar,,,,,616.5465,617.6679,1,1,0.5905,,0,46,46,37,1,REAL,FAKE,,,,,,,,,,,,,,,,,
,,,,,,,,,671165ce01cd9c2699b90dc1,mexican,13 or older,"no, only English or Spanish",no,2025-08-12_14h18.06.064,empathy_intonation_perc,2024.2.4,Win32,59.88023952,671165ce01cd9c2699b90dc1,687ed1b7e638a4cbf2f02089,689b851063c6223382be1ffd,,,,,,,,,,,,,,,,1,,,,,,,,,,,,,,,,,,,,,,,,,,,,,,,,,,,,,,,,,,,,,,,,,,,,,,,,,36,loro,,,,,617.6713,619.0315,0,0,0.8241,,0,47,47,35,1,REAL,FAKE,,,,,,,,,,,,,,,,,
,,,,,,,,,671165ce01cd9c2699b90dc1,mexican,13 or older,"no, only English or Spanish",no,2025-08-12_14h18.06.064,empathy_intonation_perc,2024.2.4,Win32,59.88023952,671165ce01cd9c2699b90dc1,687ed1b7e638a4cbf2f02089,689b851063c6223382be1ffd,,,,,,,,,,,,,,,,1,,,,,,,,,,,,,,,,,,,,,,,,,,,,,,,,,,,,,,,,,,,,,,,,,,,,,,,,,14,yunque,,,,,619.0348,620.0384,0,0,0.4687,,0,48,48,13,1,REAL,FAKE,,,,,,,,,,,,,,,,,
,,,,,,,,,671165ce01cd9c2699b90dc1,mexican,13 or older,"no, only English or Spanish",no,2025-08-12_14h18.06.064,empathy_intonation_perc,2024.2.4,Win32,59.88023952,671165ce01cd9c2699b90dc1,687ed1b7e638a4cbf2f02089,689b851063c6223382be1ffd,,,,,,,,,,,,,,,,0,,,,,,,,,,,,,,,,,,,,,,,,,,,,,,,,,,,,,,,,,,,,,,,,,,,,,,,,,18,arsa,,,,,620.0428,621.2562,1,0,0.6809,,0,49,49,17,1,REAL,FAKE,,,,,,,,,,,,,,,,,
,,,,,,,,,671165ce01cd9c2699b90dc1,mexican,13 or older,"no, only English or Spanish",no,2025-08-12_14h18.06.064,empathy_intonation_perc,2024.2.4,Win32,59.88023952,671165ce01cd9c2699b90dc1,687ed1b7e638a4cbf2f02089,689b851063c6223382be1ffd,,,,,,,,,,,,,,,,1,,,,,,,,,,,,,,,,,,,,,,,,,,,,,,,,,,,,,,,,,,,,,,,,,,,,,,,,,7,pésimo,,,,,621.2599,622.5358,0,0,0.7552,,0,50,50,6,1,REAL,FAKE,,,,,,,,,,,,,,,,,
,,,,,,,,,671165ce01cd9c2699b90dc1,mexican,13 or older,"no, only English or Spanish",no,2025-08-12_14h18.06.064,empathy_intonation_perc,2024.2.4,Win32,59.88023952,671165ce01cd9c2699b90dc1,687ed1b7e638a4cbf2f02089,689b851063c6223382be1ffd,,,,,,,,,,,,,,,,1,,,,,,,,,,,,,,,,,,,,,,,,,,,,,,,,,,,,,,,,,,,,,,,,,,,,,,,,,61,seda,,,,,622.5409,623.6682,1,1,0.5955,,0,51,51,60,1,REAL,FAKE,,,,,,,,,,,,,,,,,
,,,,,,,,,671165ce01cd9c2699b90dc1,mexican,13 or older,"no, only English or Spanish",no,2025-08-12_14h18.06.064,empathy_intonation_perc,2024.2.4,Win32,59.88023952,671165ce01cd9c2699b90dc1,687ed1b7e638a4cbf2f02089,689b851063c6223382be1ffd,,,,,,,,,,,,,,,,0,,,,,,,,,,,,,,,,,,,,,,,,,,,,,,,,,,,,,,,,,,,,,,,,,,,,,,,,,19,brecedad,,,,,623.6747,624.4926,1,0,0.2704,,0,52,52,18,1,REAL,FAKE,,,,,,,,,,,,,,,,,
,,,,,,,,,671165ce01cd9c2699b90dc1,mexican,13 or older,"no, only English or Spanish",no,2025-08-12_14h18.06.064,empathy_intonation_perc,2024.2.4,Win32,59.88023952,671165ce01cd9c2699b90dc1,687ed1b7e638a4cbf2f02089,689b851063c6223382be1ffd,,,,,,,,,,,,,,,,0,,,,,,,,,,,,,,,,,,,,,,,,,,,,,,,,,,,,,,,,,,,,,,,,,,,,,,,,,47,cartinar,,,,,624.4969,626.5605,0,1,1.5223,,0,53,53,46,1,REAL,FAKE,,,,,,,,,,,,,,,,,
,,,,,,,,,671165ce01cd9c2699b90dc1,mexican,13 or older,"no, only English or Spanish",no,2025-08-12_14h18.06.064,empathy_intonation_perc,2024.2.4,Win32,59.88023952,671165ce01cd9c2699b90dc1,687ed1b7e638a4cbf2f02089,689b851063c6223382be1ffd,,,,,,,,,,,,,,,,0,,,,,,,,,,,,,,,,,,,,,,,,,,,,,,,,,,,,,,,,,,,,,,,,,,,,,,,,,84,escuto,,,,,626.5636,627.8105,1,0,0.716,,0,54,54,83,1,REAL,FAKE,,,,,,,,,,,,,,,,,
,,,,,,,,,671165ce01cd9c2699b90dc1,mexican,13 or older,"no, only English or Spanish",no,2025-08-12_14h18.06.064,empathy_intonation_perc,2024.2.4,Win32,59.88023952,671165ce01cd9c2699b90dc1,687ed1b7e638a4cbf2f02089,689b851063c6223382be1ffd,,,,,,,,,,,,,,,,1,,,,,,,,,,,,,,,,,,,,,,,,,,,,,,,,,,,,,,,,,,,,,,,,,,,,,,,,,11,cenefa,,,,,627.8138,629.0428,1,1,0.6936,,0,55,55,10,1,REAL,FAKE,,,,,,,,,,,,,,,,,
,,,,,,,,,671165ce01cd9c2699b90dc1,mexican,13 or older,"no, only English or Spanish",no,2025-08-12_14h18.06.064,empathy_intonation_perc,2024.2.4,Win32,59.88023952,671165ce01cd9c2699b90dc1,687ed1b7e638a4cbf2f02089,689b851063c6223382be1ffd,,,,,,,,,,,,,,,,0,,,,,,,,,,,,,,,,,,,,,,,,,,,,,,,,,,,,,,,,,,,,,,,,,,,,,,,,,30,alardio,,,,,629.0464,630.4764,1,0,0.8936,,0,56,56,29,1,REAL,FAKE,,,,,,,,,,,,,,,,,
,,,,,,,,,671165ce01cd9c2699b90dc1,mexican,13 or older,"no, only English or Spanish",no,2025-08-12_14h18.06.064,empathy_intonation_perc,2024.2.4,Win32,59.88023952,671165ce01cd9c2699b90dc1,687ed1b7e638a4cbf2f02089,689b851063c6223382be1ffd,,,,,,,,,,,,,,,,0,,,,,,,,,,,,,,,,,,,,,,,,,,,,,,,,,,,,,,,,,,,,,,,,,,,,,,,,,32,fatacidad,,,,,630.4778,631.6079,0,1,0.5933,,0,57,57,31,1,REAL,FAKE,,,,,,,,,,,,,,,,,
,,,,,,,,,671165ce01cd9c2699b90dc1,mexican,13 or older,"no, only English or Spanish",no,2025-08-12_14h18.06.064,empathy_intonation_perc,2024.2.4,Win32,59.88023952,671165ce01cd9c2699b90dc1,687ed1b7e638a4cbf2f02089,689b851063c6223382be1ffd,,,,,,,,,,,,,,,,1,,,,,,,,,,,,,,,,,,,,,,,,,,,,,,,,,,,,,,,,,,,,,,,,,,,,,,,,,56,musgo,,,,,631.6092,636.0053,0,0,3.8546,,0,58,58,55,1,REAL,FAKE,,,,,,,,,,,,,,,,,
,,,,,,,,,671165ce01cd9c2699b90dc1,mexican,13 or older,"no, only English or Spanish",no,2025-08-12_14h18.06.064,empathy_intonation_perc,2024.2.4,Win32,59.88023952,671165ce01cd9c2699b90dc1,687ed1b7e638a4cbf2f02089,689b851063c6223382be1ffd,,,,,,,,,,,,,,,,0,,,,,,,,,,,,,,,,,,,,,,,,,,,,,,,,,,,,,,,,,,,,,,,,,,,,,,,,,42,cadallo,,,,,636.0197,637.3046,1,0,0.7524,,0,59,59,41,1,REAL,FAKE,,,,,,,,,,,,,,,,,
,,,,,,,,,671165ce01cd9c2699b90dc1,mexican,13 or older,"no, only English or Spanish",no,2025-08-12_14h18.06.064,empathy_intonation_perc,2024.2.4,Win32,59.88023952,671165ce01cd9c2699b90dc1,687ed1b7e638a4cbf2f02089,689b851063c6223382be1ffd,,,,,,,,,,,,,,,,1,,,,,,,,,,,,,,,,,,,,,,,,,,,,,,,,,,,,,,,,,,,,,,,,,,,,,,,,,43,canela,,,,,637.3073,638.354,1,1,0.5111,,0,60,60,42,1,REAL,FAKE,,,,,,,,,,,,,,,,,
,,,,,,,,,671165ce01cd9c2699b90dc1,mexican,13 or older,"no, only English or Spanish",no,2025-08-12_14h18.06.064,empathy_intonation_perc,2024.2.4,Win32,59.88023952,671165ce01cd9c2699b90dc1,687ed1b7e638a4cbf2f02089,689b851063c6223382be1ffd,,,,,,,,,,,,,,,,1,,,,,,,,,,,,,,,,,,,,,,,,,,,,,,,,,,,,,,,,,,,,,,,,,,,,,,,,,65,bizcocho,,,,,638.3563,640.0707,1,1,1.1806,,0,61,61,64,1,REAL,FAKE,,,,,,,,,,,,,,,,,
,,,,,,,,,671165ce01cd9c2699b90dc1,mexican,13 or older,"no, only English or Spanish",no,2025-08-12_14h18.06.064,empathy_intonation_perc,2024.2.4,Win32,59.88023952,671165ce01cd9c2699b90dc1,687ed1b7e638a4cbf2f02089,689b851063c6223382be1ffd,,,,,,,,,,,,,,,,1,,,,,,,,,,,,,,,,,,,,,,,,,,,,,,,,,,,,,,,,,,,,,,,,,,,,,,,,,51,candado,,,,,640.0719,640.9532,0,0,0.3499,,0,62,62,50,1,REAL,FAKE,,,,,,,,,,,,,,,,,
,,,,,,,,,671165ce01cd9c2699b90dc1,mexican,13 or older,"no, only English or Spanish",no,2025-08-12_14h18.06.064,empathy_intonation_perc,2024.2.4,Win32,59.88023952,671165ce01cd9c2699b90dc1,687ed1b7e638a4cbf2f02089,689b851063c6223382be1ffd,,,,,,,,,,,,,,,,0,,,,,,,,,,,,,,,,,,,,,,,,,,,,,,,,,,,,,,,,,,,,,,,,,,,,,,,,,92,click the 0 key.,,,,,640.9568,643.1363,0,1,1.6445,,0,63,63,91,1,REAL,FAKE,,,,,,,,,,,,,,,,,
,,,,,,,,,671165ce01cd9c2699b90dc1,mexican,13 or older,"no, only English or Spanish",no,2025-08-12_14h18.06.064,empathy_intonation_perc,2024.2.4,Win32,59.88023952,671165ce01cd9c2699b90dc1,687ed1b7e638a4cbf2f02089,689b851063c6223382be1ffd,,,,,,,,,,,,,,,,1,,,,,,,,,,,,,,,,,,,,,,,,,,,,,,,,,,,,,,,,,,,,,,,,,,,,,,,,,49,ganar,,,,,643.1376,644.0843,1,1,0.4082,,0,64,64,48,1,REAL,FAKE,,,,,,,,,,,,,,,,,
,,,,,,,,,671165ce01cd9c2699b90dc1,mexican,13 or older,"no, only English or Spanish",no,2025-08-12_14h18.06.064,empathy_intonation_perc,2024.2.4,Win32,59.88023952,671165ce01cd9c2699b90dc1,687ed1b7e638a4cbf2f02089,689b851063c6223382be1ffd,,,,,,,,,,,,,,,,0,,,,,,,,,,,,,,,,,,,,,,,,,,,,,,,,,,,,,,,,,,,,,,,,,,,,,,,,,4,batillón,,,,,644.0873,645.3002,1,0,0.6765,,0,65,65,3,1,REAL,FAKE,,,,,,,,,,,,,,,,,
,,,,,,,,,671165ce01cd9c2699b90dc1,mexican,13 or older,"no, only English or Spanish",no,2025-08-12_14h18.06.064,empathy_intonation_perc,2024.2.4,Win32,59.88023952,671165ce01cd9c2699b90dc1,687ed1b7e638a4cbf2f02089,689b851063c6223382be1ffd,,,,,,,,,,,,,,,,1,,,,,,,,,,,,,,,,,,,,,,,,,,,,,,,,,,,,,,,,,,,,,,,,,,,,,,,,,13,helar,,,,,645.3025,646.3497,0,0,0.504,,0,66,66,12,1,REAL,FAKE,,,,,,,,,,,,,,,,,
,,,,,,,,,671165ce01cd9c2699b90dc1,mexican,13 or older,"no, only English or Spanish",no,2025-08-12_14h18.06.064,empathy_intonation_perc,2024.2.4,Win32,59.88023952,671165ce01cd9c2699b90dc1,687ed1b7e638a4cbf2f02089,689b851063c6223382be1ffd,,,,,,,,,,,,,,,,1,,,,,,,,,,,,,,,,,,,,,,,,,,,,,,,,,,,,,,,,,,,,,,,,,,,,,,,,,37,granuja,,,,,646.3536,647.6663,1,1,0.7784,,0,67,67,36,1,REAL,FAKE,,,,,,,,,,,,,,,,,
,,,,,,,,,671165ce01cd9c2699b90dc1,mexican,13 or older,"no, only English or Spanish",no,2025-08-12_14h18.06.064,empathy_intonation_perc,2024.2.4,Win32,59.88023952,671165ce01cd9c2699b90dc1,687ed1b7e638a4cbf2f02089,689b851063c6223382be1ffd,,,,,,,,,,,,,,,,1,,,,,,,,,,,,,,,,,,,,,,,,,,,,,,,,,,,,,,,,,,,,,,,,,,,,,,,,,85,laúd,,,,,647.6683,648.5315,0,0,0.3328,,0,68,68,84,1,REAL,FAKE,,,,,,,,,,,,,,,,,
,,,,,,,,,671165ce01cd9c2699b90dc1,mexican,13 or older,"no, only English or Spanish",no,2025-08-12_14h18.06.064,empathy_intonation_perc,2024.2.4,Win32,59.88023952,671165ce01cd9c2699b90dc1,687ed1b7e638a4cbf2f02089,689b851063c6223382be1ffd,,,,,,,,,,,,,,,,0,,,,,,,,,,,,,,,,,,,,,,,,,,,,,,,,,,,,,,,,,,,,,,,,,,,,,,,,,74,cintro,,,,,648.5338,649.4482,0,1,0.3763,,0,69,69,73,1,REAL,FAKE,,,,,,,,,,,,,,,,,
,,,,,,,,,671165ce01cd9c2699b90dc1,mexican,13 or older,"no, only English or Spanish",no,2025-08-12_14h18.06.064,empathy_intonation_perc,2024.2.4,Win32,59.88023952,671165ce01cd9c2699b90dc1,687ed1b7e638a4cbf2f02089,689b851063c6223382be1ffd,,,,,,,,,,,,,,,,1,,,,,,,,,,,,,,,,,,,,,,,,,,,,,,,,,,,,,,,,,,,,,,,,,,,,,,,,,90,clavel,,,,,649.4494,650.3141,1,1,0.3338,,0,70,70,89,1,REAL,FAKE,,,,,,,,,,,,,,,,,
,,,,,,,,,671165ce01cd9c2699b90dc1,mexican,13 or older,"no, only English or Spanish",no,2025-08-12_14h18.06.064,empathy_intonation_perc,2024.2.4,Win32,59.88023952,671165ce01cd9c2699b90dc1,687ed1b7e638a4cbf2f02089,689b851063c6223382be1ffd,,,,,,,,,,,,,,,,1,,,,,,,,,,,,,,,,,,,,,,,,,,,,,,,,,,,,,,,,,,,,,,,,,,,,,,,,,26,secuestro,,,,,650.317,651.8327,0,0,0.9836,,0,71,71,25,1,REAL,FAKE,,,,,,,,,,,,,,,,,
,,,,,,,,,671165ce01cd9c2699b90dc1,mexican,13 or older,"no, only English or Spanish",no,2025-08-12_14h18.06.064,empathy_intonation_perc,2024.2.4,Win32,59.88023952,671165ce01cd9c2699b90dc1,687ed1b7e638a4cbf2f02089,689b851063c6223382be1ffd,,,,,,,,,,,,,,,,1,,,,,,,,,,,,,,,,,,,,,,,,,,,,,,,,,,,,,,,,,,,,,,,,,,,,,,,,,5,zapato,,,,,651.838,652.8471,0,0,0.4811,,0,72,72,4,1,REAL,FAKE,,,,,,,,,,,,,,,,,
,,,,,,,,,671165ce01cd9c2699b90dc1,mexican,13 or older,"no, only English or Spanish",no,2025-08-12_14h18.06.064,empathy_intonation_perc,2024.2.4,Win32,59.88023952,671165ce01cd9c2699b90dc1,687ed1b7e638a4cbf2f02089,689b851063c6223382be1ffd,,,,,,,,,,,,,,,,0,,,,,,,,,,,,,,,,,,,,,,,,,,,,,,,,,,,,,,,,,,,,,,,,,,,,,,,,,72,pemición,,,,,652.8485,654.1786,1,0,0.7947,,0,73,73,71,1,REAL,FAKE,,,,,,,,,,,,,,,,,
,,,,,,,,,671165ce01cd9c2699b90dc1,mexican,13 or older,"no, only English or Spanish",no,2025-08-12_14h18.06.064,empathy_intonation_perc,2024.2.4,Win32,59.88023952,671165ce01cd9c2699b90dc1,687ed1b7e638a4cbf2f02089,689b851063c6223382be1ffd,,,,,,,,,,,,,,,,1,,,,,,,,,,,,,,,,,,,,,,,,,,,,,,,,,,,,,,,,,,,,,,,,,,,,,,,,,24,látigo,,,,,654.182,655.5112,0,0,0.7946,,0,74,74,23,1,REAL,FAKE,,,,,,,,,,,,,,,,,
,,,,,,,,,671165ce01cd9c2699b90dc1,mexican,13 or older,"no, only English or Spanish",no,2025-08-12_14h18.06.064,empathy_intonation_perc,2024.2.4,Win32,59.88023952,671165ce01cd9c2699b90dc1,687ed1b7e638a4cbf2f02089,689b851063c6223382be1ffd,,,,,,,,,,,,,,,,0,,,,,,,,,,,,,,,,,,,,,,,,,,,,,,,,,,,,,,,,,,,,,,,,,,,,,,,,,35,rompido,,,,,655.5138,656.9606,1,0,0.9167,,0,75,75,34,1,REAL,FAKE,,,,,,,,,,,,,,,,,
,,,,,,,,,671165ce01cd9c2699b90dc1,mexican,13 or older,"no, only English or Spanish",no,2025-08-12_14h18.06.064,empathy_intonation_perc,2024.2.4,Win32,59.88023952,671165ce01cd9c2699b90dc1,687ed1b7e638a4cbf2f02089,689b851063c6223382be1ffd,,,,,,,,,,,,,,,,0,,,,,,,,,,,,,,,,,,,,,,,,,,,,,,,,,,,,,,,,,,,,,,,,,,,,,,,,,17,floroso,,,,,656.9636,657.81,1,0,0.3109,,0,76,76,16,1,REAL,FAKE,,,,,,,,,,,,,,,,,
,,,,,,,,,671165ce01cd9c2699b90dc1,mexican,13 or older,"no, only English or Spanish",no,2025-08-12_14h18.06.064,empathy_intonation_perc,2024.2.4,Win32,59.88023952,671165ce01cd9c2699b90dc1,687ed1b7e638a4cbf2f02089,689b851063c6223382be1ffd,,,,,,,,,,,,,,,,1,,,,,,,,,,,,,,,,,,,,,,,,,,,,,,,,,,,,,,,,,,,,,,,,,,,,,,,,,73,hervidor,,,,,657.8131,658.5931,1,1,0.2453,,0,77,77,72,1,REAL,FAKE,,,,,,,,,,,,,,,,,
,,,,,,,,,671165ce01cd9c2699b90dc1,mexican,13 or older,"no, only English or Spanish",no,2025-08-12_14h18.06.064,empathy_intonation_perc,2024.2.4,Win32,59.88023952,671165ce01cd9c2699b90dc1,687ed1b7e638a4cbf2f02089,689b851063c6223382be1ffd,,,,,,,,,,,,,,,,1,,,,,,,,,,,,,,,,,,,,,,,,,,,,,,,,,,,,,,,,,,,,,,,,,,,,,,,,,71,polvoriento,,,,,658.5955,659.4593,0,0,0.3265,,0,78,78,70,1,REAL,FAKE,,,,,,,,,,,,,,,,,
,,,,,,,,,671165ce01cd9c2699b90dc1,mexican,13 or older,"no, only English or Spanish",no,2025-08-12_14h18.06.064,empathy_intonation_perc,2024.2.4,Win32,59.88023952,671165ce01cd9c2699b90dc1,687ed1b7e638a4cbf2f02089,689b851063c6223382be1ffd,,,,,,,,,,,,,,,,1,,,,,,,,,,,,,,,,,,,,,,,,,,,,,,,,,,,,,,,,,,,,,,,,,,,,,,,,,67,cabello,,,,,659.4625,660.5916,0,0,0.5938,,0,79,79,66,1,REAL,FAKE,,,,,,,,,,,,,,,,,
,,,,,,,,,671165ce01cd9c2699b90dc1,mexican,13 or older,"no, only English or Spanish",no,2025-08-12_14h18.06.064,empathy_intonation_perc,2024.2.4,Win32,59.88023952,671165ce01cd9c2699b90dc1,687ed1b7e638a4cbf2f02089,689b851063c6223382be1ffd,,,,,,,,,,,,,,,,1,,,,,,,,,,,,,,,,,,,,,,,,,,,,,,,,,,,,,,,,,,,,,,,,,,,,,,,,,60,matar,,,,,660.5944,661.6745,1,1,0.561,,0,80,80,59,1,REAL,FAKE,,,,,,,,,,,,,,,,,
,,,,,,,,,671165ce01cd9c2699b90dc1,mexican,13 or older,"no, only English or Spanish",no,2025-08-12_14h18.06.064,empathy_intonation_perc,2024.2.4,Win32,59.88023952,671165ce01cd9c2699b90dc1,687ed1b7e638a4cbf2f02089,689b851063c6223382be1ffd,,,,,,,,,,,,,,,,0,,,,,,,,,,,,,,,,,,,,,,,,,,,,,,,,,,,,,,,,,,,,,,,,,,,,,,,,,21,capillo,,,,,661.6768,662.7073,0,1,0.4932,,0,81,81,20,1,REAL,FAKE,,,,,,,,,,,,,,,,,
,,,,,,,,,671165ce01cd9c2699b90dc1,mexican,13 or older,"no, only English or Spanish",no,2025-08-12_14h18.06.064,empathy_intonation_perc,2024.2.4,Win32,59.88023952,671165ce01cd9c2699b90dc1,687ed1b7e638a4cbf2f02089,689b851063c6223382be1ffd,,,,,,,,,,,,,,,,1,,,,,,,,,,,,,,,,,,,,,,,,,,,,,,,,,,,,,,,,,,,,,,,,,,,,,,,,,52,camisa,,,,,662.7095,663.9066,1,1,0.6578,,0,82,82,51,1,REAL,FAKE,,,,,,,,,,,,,,,,,
,,,,,,,,,671165ce01cd9c2699b90dc1,mexican,13 or older,"no, only English or Spanish",no,2025-08-12_14h18.06.064,empathy_intonation_perc,2024.2.4,Win32,59.88023952,671165ce01cd9c2699b90dc1,687ed1b7e638a4cbf2f02089,689b851063c6223382be1ffd,,,,,,,,,,,,,,,,1,,,,,,,,,,,,,,,,,,,,,,,,,,,,,,,,,,,,,,,,,,,,,,,,,,,,,,,,,6,tergiversar,,,,,663.9094,664.7228,1,1,0.275,,0,83,83,5,1,REAL,FAKE,,,,,,,,,,,,,,,,,
,,,,,,,,,671165ce01cd9c2699b90dc1,mexican,13 or older,"no, only English or Spanish",no,2025-08-12_14h18.06.064,empathy_intonation_perc,2024.2.4,Win32,59.88023952,671165ce01cd9c2699b90dc1,687ed1b7e638a4cbf2f02089,689b851063c6223382be1ffd,,,,,,,,,,,,,,,,1,,,,,,,,,,,,,,,,,,,,,,,,,,,,,,,,,,,,,,,,,,,,,,,,,,,,,,,,,20,ávido,,,,,664.7258,666.1219,1,1,0.8658,,0,84,84,19,1,REAL,FAKE,,,,,,,,,,,,,,,,,
,,,,,,,,,671165ce01cd9c2699b90dc1,mexican,13 or older,"no, only English or Spanish",no,2025-08-12_14h18.06.064,empathy_intonation_perc,2024.2.4,Win32,59.88023952,671165ce01cd9c2699b90dc1,687ed1b7e638a4cbf2f02089,689b851063c6223382be1ffd,,,,,,,,,,,,,,,,1,,,,,,,,,,,,,,,,,,,,,,,,,,,,,,,,,,,,,,,,,,,,,,,,,,,,,,,,,39,torpe,,,,,666.1238,666.9713,0,0,0.3121,,0,85,85,38,1,REAL,FAKE,,,,,,,,,,,,,,,,,
,,,,,,,,,671165ce01cd9c2699b90dc1,mexican,13 or older,"no, only English or Spanish",no,2025-08-12_14h18.06.064,empathy_intonation_perc,2024.2.4,Win32,59.88023952,671165ce01cd9c2699b90dc1,687ed1b7e638a4cbf2f02089,689b851063c6223382be1ffd,,,,,,,,,,,,,,,,1,,,,,,,,,,,,,,,,,,,,,,,,,,,,,,,,,,,,,,,,,,,,,,,,,,,,,,,,,9,hacha,,,,,666.973,667.7887,1,1,0.2784,,0,86,86,8,1,REAL,FAKE,,,,,,,,,,,,,,,,,
,,,,,,,,,671165ce01cd9c2699b90dc1,mexican,13 or older,"no, only English or Spanish",no,2025-08-12_14h18.06.064,empathy_intonation_perc,2024.2.4,Win32,59.88023952,671165ce01cd9c2699b90dc1,687ed1b7e638a4cbf2f02089,689b851063c6223382be1ffd,,,,,,,,,,,,,,,,0,,,,,,,,,,,,,,,,,,,,,,,,,,,,,,,,,,,,,,,,,,,,,,,,,,,,,,,,,79,tropaje,,,,,667.7899,668.8041,0,1,0.4786,,0,87,87,78,1,REAL,FAKE,,,,,,,,,,,,,,,,,
,,,,,,,,,671165ce01cd9c2699b90dc1,mexican,13 or older,"no, only English or Spanish",no,2025-08-12_14h18.06.064,empathy_intonation_perc,2024.2.4,Win32,59.88023952,671165ce01cd9c2699b90dc1,687ed1b7e638a4cbf2f02089,689b851063c6223382be1ffd,,,,,,,,,,,,,,,,1,,,,,,,,,,,,,,,,,,,,,,,,,,,,,,,,,,,,,,,,,,,,,,,,,,,,,,,,,62,flaco,,,,,668.8074,669.6367,0,0,0.2934,,0,88,88,61,1,REAL,FAKE,,,,,,,,,,,,,,,,,
,,,,,,,,,671165ce01cd9c2699b90dc1,mexican,13 or older,"no, only English or Spanish",no,2025-08-12_14h18.06.064,empathy_intonation_perc,2024.2.4,Win32,59.88023952,671165ce01cd9c2699b90dc1,687ed1b7e638a4cbf2f02089,689b851063c6223382be1ffd,,,,,,,,,,,,,,,,1,,,,,,,,,,,,,,,,,,,,,,,,,,,,,,,,,,,,,,,,,,,,,,,,,,,,,,,,,46,martillo,,,,,669.64,672.7451,0,0,2.5731,,0,89,89,45,1,REAL,FAKE,,,,,,,,,,,,,,,,,
,,,,,,,,,671165ce01cd9c2699b90dc1,mexican,13 or older,"no, only English or Spanish",no,2025-08-12_14h18.06.064,empathy_intonation_perc,2024.2.4,Win32,59.88023952,671165ce01cd9c2699b90dc1,687ed1b7e638a4cbf2f02089,689b851063c6223382be1ffd,,,,,,,,,,,,,,,,1,,,,,,,,,,,,,,,,,,,,,,,,,,,,,,,,,,,,,,,,,,,,,,,,,,,,,,,,,89,prisa,,,,,672.7665,674.189,0,0,0.8862,,0,90,90,88,1,REAL,FAKE,,,,,,,,,,,,,,,,,
,,,,,,,,,671165ce01cd9c2699b90dc1,mexican,13 or older,"no, only English or Spanish",no,2025-08-12_14h18.06.064,empathy_intonation_perc,2024.2.4,Win32,59.88023952,671165ce01cd9c2699b90dc1,687ed1b7e638a4cbf2f02089,689b851063c6223382be1ffd,,,,,,,,,,,,,,,,1,,,,,,,,,,,,,,,,,,,,,,,,,,,,,,,,,,,,,,,,,,,,,,,,,,,,,,,,,86,barato,,,,,674.1913,675.3594,1,1,0.6374,,0,91,91,85,1,REAL,FAKE,,,,,,,,,,,,,,,,,
,,,,,,,,,671165ce01cd9c2699b90dc1,mexican,13 or older,"no, only English or Spanish",no,2025-08-12_14h18.06.064,empathy_intonation_perc,2024.2.4,Win32,59.88023952,671165ce01cd9c2699b90dc1,687ed1b7e638a4cbf2f02089,689b851063c6223382be1ffd,,,,,,,,,,,,,,,,,,,,,,,,,,,,,,,,,,,,,,,,,,,,,,,,,,,,,,,,,,,,,,,,,,,,,,,,,,,,,,,,,,,,,,,,,,,,675.3618,681.4076,,,,,,,,,,,,,,,
,,,,,,,,,671165ce01cd9c2699b90dc1,mexican,13 or older,"no, only English or Spanish",no,2025-08-12_14h18.06.064,empathy_intonation_perc,2024.2.4,Win32,59.88023952,671165ce01cd9c2699b90dc1,687ed1b7e638a4cbf2f02089,689b851063c6223382be1ffd,,,,,,,,,,,,,,,1,,,,,,,,,,,,,,,,,,,,,,,,,,,,,,,,,,,,,,,,,,,,,,,,,,,,,,,,,,,,,,,,,,,,,,,,,,,,,,,681.4497,685.9712,slightly agree,0,0,0,0,1,I can easily tell if someone else wants to enter a conversation.,1,0,1,0,,
,,,,,,,,,671165ce01cd9c2699b90dc1,mexican,13 or older,"no, only English or Spanish",no,2025-08-12_14h18.06.064,empathy_intonation_perc,2024.2.4,Win32,59.88023952,671165ce01cd9c2699b90dc1,687ed1b7e638a4cbf2f02089,689b851063c6223382be1ffd,,,,,,,,,,,,,,,2,,,,,,,,,,,,,,,,,,,,,,,,,,,,,,,,,,,,,,,,,,,,,,,,,,,,,,,,,,,,,,,,,,,,,,,,,,,,,,,685.9798,689.6685,strongly disagree,0,1,1,1,1,I prefer animals to humans.,0,1,0,0,,
,,,,,,,,,671165ce01cd9c2699b90dc1,mexican,13 or older,"no, only English or Spanish",no,2025-08-12_14h18.06.064,empathy_intonation_perc,2024.2.4,Win32,59.88023952,671165ce01cd9c2699b90dc1,687ed1b7e638a4cbf2f02089,689b851063c6223382be1ffd,,,,,,,,,,,,,,,3,,,,,,,,,,,,,,,,,,,,,,,,,,,,,,,,,,,,,,,,,,,,,,,,,,,,,,,,,,,,,,,,,,,,,,,,,,,,,,,689.6752,693.1405,slightly agree,0,2,2,2,1,I try to keep up with the current trends and fashions.,0,1,0,0,,
,,,,,,,,,671165ce01cd9c2699b90dc1,mexican,13 or older,"no, only English or Spanish",no,2025-08-12_14h18.06.064,empathy_intonation_perc,2024.2.4,Win32,59.88023952,671165ce01cd9c2699b90dc1,687ed1b7e638a4cbf2f02089,689b851063c6223382be1ffd,,,,,,,,,,,,,,,4,,,,,,,,,,,,,,,,,,,,,,,,,,,,,,,,,,,,,,,,,,,,,,,,,,,,,,,,,,,,,,,,,,,,,,,,,,,,,,,693.1485,698.2048,strongly disagree,0,3,3,3,1,"I find it difficult to explain to others things that I understand easily,   when they don't understand it first time.",1,0,0,1,,
,,,,,,,,,671165ce01cd9c2699b90dc1,mexican,13 or older,"no, only English or Spanish",no,2025-08-12_14h18.06.064,empathy_intonation_perc,2024.2.4,Win32,59.88023952,671165ce01cd9c2699b90dc1,687ed1b7e638a4cbf2f02089,689b851063c6223382be1ffd,,,,,,,,,,,,,,,5,,,,,,,,,,,,,,,,,,,,,,,,,,,,,,,,,,,,,,,,,,,,,,,,,,,,,,,,,,,,,,,,,,,,,,,,,,,,,,,698.2102,703.1518,strongly agree,0,4,4,4,1,I dream most nights.,0,1,0,0,,
,,,,,,,,,671165ce01cd9c2699b90dc1,mexican,13 or older,"no, only English or Spanish",no,2025-08-12_14h18.06.064,empathy_intonation_perc,2024.2.4,Win32,59.88023952,671165ce01cd9c2699b90dc1,687ed1b7e638a4cbf2f02089,689b851063c6223382be1ffd,,,,,,,,,,,,,,,6,,,,,,,,,,,,,,,,,,,,,,,,,,,,,,,,,,,,,,,,,,,,,,,,,,,,,,,,,,,,,,,,,,,,,,,,,,,,,,,703.1573,705.5841,strongly agree,0,5,5,5,1,I really enjoy caring for other people.,1,0,1,0,,
,,,,,,,,,671165ce01cd9c2699b90dc1,mexican,13 or older,"no, only English or Spanish",no,2025-08-12_14h18.06.064,empathy_intonation_perc,2024.2.4,Win32,59.88023952,671165ce01cd9c2699b90dc1,687ed1b7e638a4cbf2f02089,689b851063c6223382be1ffd,,,,,,,,,,,,,,,7,,,,,,,,,,,,,,,,,,,,,,,,,,,,,,,,,,,,,,,,,,,,,,,,,,,,,,,,,,,,,,,,,,,,,,,,,,,,,,,705.5893,710.749,slightly agree,0,6,6,6,1,I try to solve my own problems rather than discussing them with others.,0,1,0,0,,
,,,,,,,,,671165ce01cd9c2699b90dc1,mexican,13 or older,"no, only English or Spanish",no,2025-08-12_14h18.06.064,empathy_intonation_perc,2024.2.4,Win32,59.88023952,671165ce01cd9c2699b90dc1,687ed1b7e638a4cbf2f02089,689b851063c6223382be1ffd,,,,,,,,,,,,,,,8,,,,,,,,,,,,,,,,,,,,,,,,,,,,,,,,,,,,,,,,,,,,,,,,,,,,,,,,,,,,,,,,,,,,,,,,,,,,,,,710.7526,715.4792,slightly disagree,0,7,7,7,1,I find it hard to know what to do in a social situation.,1,0,0,1,,
