instructions_exposure.started,instructions_exposure.stopped,instructions_exposure_loop.thisRepN,instructions_exposure_loop.thisTrialN,instructions_exposure_loop.thisN,instructions_exposure_loop.thisIndex,instructions_exposure_loop.ran,instructions_text,continue_text,participant_id,"What variety of Spanish are you most familiar with? (e.g., Peruvian, Spanish, Mexican)",At what age did you begin learning Spanish?,Are you proficient in any languages other than English/Spanish?,"Are you familiar with Caribbean (e.g., Caribbean, Puerto Rican) or Galician Spanish?",date,expName,psychopyVersion,OS,frameRate,id,study_id,session,trial_exposure.started,trial_exposure.stopped,key_resp_exposure.keys,key_resp_exposure.corr,key_resp_exposure.rt,key_resp_exposure.duration,key_resp.keys,exposure_loop.thisRepN,exposure_loop.thisTrialN,exposure_loop.thisN,exposure_loop.thisIndex,exposure_loop.ran,item_num,correct_response,question,path,duration,instructions_2afc.started,instructions_2afc.stopped,instructions_2afc_loop.thisRepN,instructions_2afc_loop.thisTrialN,instructions_2afc_loop.thisN,instructions_2afc_loop.thisIndex,instructions_2afc_loop.ran,practice_2afc.started,practice_2afc.stopped,key_resp_2afc_practice.keys,key_resp_2afc_practice.corr,key_resp_2afc_practice.rt,key_resp_2afc_practice.duration,trials_2afc_practice_loop.thisRepN,trials_2afc_practice_loop.thisTrialN,trials_2afc_practice_loop.thisN,trials_2afc_practice_loop.thisIndex,trials_2afc_practice_loop.ran,check_2afc.started,check_2afc.stopped,trial_2afc.started,trial_2afc.stopped,key_resp_2afc_trial.keys,key_resp_2afc_trial.corr,key_resp_2afc_trial.rt,key_resp_2afc_trial.duration,trials_2afc_loop.thisRepN,trials_2afc_loop.thisTrialN,trials_2afc_loop.thisN,trials_2afc_loop.thisIndex,trials_2afc_loop.ran,target,variety,instructions_lextale.started,instructions_lextale.stopped,instructions_lextale_loop.thisRepN,instructions_lextale_loop.thisTrialN,instructions_lextale_loop.thisN,instructions_lextale_loop.thisIndex,instructions_lextale_loop.ran,practice_lextale.started,practice_lextale.stopped,key_resp_lextale_practice.keys,key_resp_lextale_practice.corr,key_resp_lextale_practice.rt,key_resp_lextale_practice.duration,practice_feedback_lextale.started,practice_feedback_lextale.stopped,trials_lextale_practice_loop.thisRepN,trials_lextale_practice_loop.thisTrialN,trials_lextale_practice_loop.thisN,trials_lextale_practice_loop.thisIndex,trials_lextale_practice_loop.ran,stim,word,prac_button_real,prac_button_false,check_lextale.started,check_lextale.stopped,trial_lextale.started,trial_lextale.stopped,key_resp_lextale_trial.keys,key_resp_lextale_trial.corr,key_resp_lextale_trial.rt,key_resp_lextale_trial.duration,trials_lextale_loop.thisRepN,trials_lextale_loop.thisTrialN,trials_lextale_loop.thisN,trials_lextale_loop.thisIndex,trials_lextale_loop.ran,button_real,button_false,instructions_eq.started,instructions_eq.stopped,trial_eq.started,trial_eq.stopped,slider_eq_trial.response,trials_eq_loop.thisRepN,trials_eq_loop.thisTrialN,trials_eq_loop.thisN,trials_eq_loop.thisIndex,trials_eq_loop.ran,item,is_test_item,is_distractor,is_agree_score,is_disagree_score,end_exp.started,end_exp.stopped
0.008,1.914,0,0,0,0,1,"In the following task, you are going to hear a series of conversations.", (press the space bar to continue),671efcc199e22fc57bff41aa,Spanish,13 or older,"no, only English or Spanish",no,2025-08-12_15h18.26.593,empathy_intonation_perc,2024.2.4,Win32,60.0240096,671efcc199e22fc57bff41aa,687ed1b7e638a4cbf2f02089,689b936c0fd5984874e9f9eb,,,,,,,,,,,,,,,,,,,,,,,,,,,,,,,,,,,,,,,,,,,,,,,,,,,,,,,,,,,,,,,,,,,,,,,,,,,,,,,,,,,,,,,,,,,,,,,,,,,,,,,,,,
1.914,2.897,0,1,1,1,1,It is okay if you don't not 100% understand them!, (press the space bar to continue),671efcc199e22fc57bff41aa,Spanish,13 or older,"no, only English or Spanish",no,2025-08-12_15h18.26.593,empathy_intonation_perc,2024.2.4,Win32,60.0240096,671efcc199e22fc57bff41aa,687ed1b7e638a4cbf2f02089,689b936c0fd5984874e9f9eb,,,,,,,,,,,,,,,,,,,,,,,,,,,,,,,,,,,,,,,,,,,,,,,,,,,,,,,,,,,,,,,,,,,,,,,,,,,,,,,,,,,,,,,,,,,,,,,,,,,,,,,,,,
2.897,4.581,0,2,2,2,1,"After, you will read a sentence about the conversation and decide if it's true or false.", (press the space bar to continue),671efcc199e22fc57bff41aa,Spanish,13 or older,"no, only English or Spanish",no,2025-08-12_15h18.26.593,empathy_intonation_perc,2024.2.4,Win32,60.0240096,671efcc199e22fc57bff41aa,687ed1b7e638a4cbf2f02089,689b936c0fd5984874e9f9eb,,,,,,,,,,,,,,,,,,,,,,,,,,,,,,,,,,,,,,,,,,,,,,,,,,,,,,,,,,,,,,,,,,,,,,,,,,,,,,,,,,,,,,,,,,,,,,,,,,,,,,,,,,
4.581,7.273,0,3,3,3,1,"If it's true, press '1' (True) and if it's false press '0' (False).", (press the space bar to continue),671efcc199e22fc57bff41aa,Spanish,13 or older,"no, only English or Spanish",no,2025-08-12_15h18.26.593,empathy_intonation_perc,2024.2.4,Win32,60.0240096,671efcc199e22fc57bff41aa,687ed1b7e638a4cbf2f02089,689b936c0fd5984874e9f9eb,,,,,,,,,,,,,,,,,,,,,,,,,,,,,,,,,,,,,,,,,,,,,,,,,,,,,,,,,,,,,,,,,,,,,,,,,,,,,,,,,,,,,,,,,,,,,,,,,,,,,,,,,,
,,,,,,,,,671efcc199e22fc57bff41aa,Spanish,13 or older,"no, only English or Spanish",no,2025-08-12_15h18.26.593,empathy_intonation_perc,2024.2.4,Win32,60.0240096,671efcc199e22fc57bff41aa,687ed1b7e638a4cbf2f02089,689b936c0fd5984874e9f9eb,7.279,71.381,1,1,4.068,,,0,0,0,1,1,2,1,The mom asked the daughter if she already went to the supermarket.,./stim/exposure_wavs/dr_stimuli_convo.wav,60,,,,,,,,,,,,,,,,,,,,,,,,,,,,,,,,,,,,,,,,,,,,,,,,,,,,,,,,,,,,,,,,,,,,,,,,,,,,,,,,,,,,,,,,,
,,,,,,,,,671efcc199e22fc57bff41aa,Spanish,13 or older,"no, only English or Spanish",no,2025-08-12_15h18.26.593,empathy_intonation_perc,2024.2.4,Win32,60.0240096,671efcc199e22fc57bff41aa,687ed1b7e638a4cbf2f02089,689b936c0fd5984874e9f9eb,71.382,109.874,0,1,2.467,,,0,1,1,2,1,3,0,The mom already has rice.,./stim/exposure_wavs/pr_stimuli_convo.wav,36,,,,,,,,,,,,,,,,,,,,,,,,,,,,,,,,,,,,,,,,,,,,,,,,,,,,,,,,,,,,,,,,,,,,,,,,,,,,,,,,,,,,,,,,,
,,,,,,,,,671efcc199e22fc57bff41aa,Spanish,13 or older,"no, only English or Spanish",no,2025-08-12_15h18.26.593,empathy_intonation_perc,2024.2.4,Win32,60.0240096,671efcc199e22fc57bff41aa,687ed1b7e638a4cbf2f02089,689b936c0fd5984874e9f9eb,109.879,164.078,1,1,6.813,,,0,2,2,0,1,1,1,The son asked the mom if Aunt Marina is okay.,./stim/exposure_wavs/ga_stimuli_convo.wav,47,,,,,,,,,,,,,,,,,,,,,,,,,,,,,,,,,,,,,,,,,,,,,,,,,,,,,,,,,,,,,,,,,,,,,,,,,,,,,,,,,,,,,,,,,
,,,,,,,"In the following task you are going to hear a series of utterances. 

  You will decide if the utterances sound like questions or not using your keyboard.", (press the spacebar to continue),671efcc199e22fc57bff41aa,Spanish,13 or older,"no, only English or Spanish",no,2025-08-12_15h18.26.593,empathy_intonation_perc,2024.2.4,Win32,60.0240096,671efcc199e22fc57bff41aa,687ed1b7e638a4cbf2f02089,689b936c0fd5984874e9f9eb,,,,,,,,,,,,,,,,,,164.084,167.907,0,0,0,0,1,,,,,,,,,,,,,,,,,,,,,,,,,,,,,,,,,,,,,,,,,,,,,,,,,,,,,,,,,,,,,,,,,,,,,,,,,,,,,,,,,,
,,,,,,,"If you believe the utterance is a question, type '1' (for 'yes') and if you do not 
  believe it is a question type '0' (for 'no').

  Let's practice a bit...", (press the spacebar to continue),671efcc199e22fc57bff41aa,Spanish,13 or older,"no, only English or Spanish",no,2025-08-12_15h18.26.593,empathy_intonation_perc,2024.2.4,Win32,60.0240096,671efcc199e22fc57bff41aa,687ed1b7e638a4cbf2f02089,689b936c0fd5984874e9f9eb,,,,,,,,,,,,,,,,,,167.912,171.84,0,1,1,1,1,,,,,,,,,,,,,,,,,,,,,,,,,,,,,,,,,,,,,,,,,,,,,,,,,,,,,,,,,,,,,,,,,,,,,,,,,,,,,,,,,,
,,,,,,,,,671efcc199e22fc57bff41aa,Spanish,13 or older,"no, only English or Spanish",no,2025-08-12_15h18.26.593,empathy_intonation_perc,2024.2.4,Win32,60.0240096,671efcc199e22fc57bff41aa,687ed1b7e638a4cbf2f02089,689b936c0fd5984874e9f9eb,,,,,,,,,,,,,,1,,./stim/wavs/castilian_question_filler_Mi-esposo-conoce-al-chico.wav,,,,,,,,,171.847,175.174,1,1,2.795,,0,0,0,0,1,,,,,,,,,,,,,,,,,,,,,,,,,,,,,,,,,,,,,,,,,,,,,,,,,,,,,,,,,,,,,,,,,,,,,,,
,,,,,,,,,671efcc199e22fc57bff41aa,Spanish,13 or older,"no, only English or Spanish",no,2025-08-12_15h18.26.593,empathy_intonation_perc,2024.2.4,Win32,60.0240096,671efcc199e22fc57bff41aa,687ed1b7e638a4cbf2f02089,689b936c0fd5984874e9f9eb,,,,,,,,,,,,,,1,,./stim/wavs/chilean_question_filler_Mi-padre-cantaba-bien.wav,,,,,,,,,175.176,178.541,0,0,2.835,,0,1,1,2,1,,,,,,,,,,,,,,,,,,,,,,,,,,,,,,,,,,,,,,,,,,,,,,,,,,,,,,,,,,,,,,,,,,,,,,,
,,,,,,,,,671efcc199e22fc57bff41aa,Spanish,13 or older,"no, only English or Spanish",no,2025-08-12_15h18.26.593,empathy_intonation_perc,2024.2.4,Win32,60.0240096,671efcc199e22fc57bff41aa,687ed1b7e638a4cbf2f02089,689b936c0fd5984874e9f9eb,,,,,,,,,,,,,,0,,./stim/wavs/peruvian_statement_filler_El-nino-habla-con-su-madre.wav,,,,,,,,,178.542,181.795,0,1,2.728,,0,2,2,6,1,,,,,,,,,,,,,,,,,,,,,,,,,,,,,,,,,,,,,,,,,,,,,,,,,,,,,,,,,,,,,,,,,,,,,,,
,,,,,,,,,671efcc199e22fc57bff41aa,Spanish,13 or older,"no, only English or Spanish",no,2025-08-12_15h18.26.593,empathy_intonation_perc,2024.2.4,Win32,60.0240096,671efcc199e22fc57bff41aa,687ed1b7e638a4cbf2f02089,689b936c0fd5984874e9f9eb,,,,,,,,,,,,,,1,,./stim/wavs/argentine_question_filler_Mi-vecino-habla-mucho.wav,,,,,,,,,181.796,184.091,1,1,1.772,,0,3,3,1,1,,,,,,,,,,,,,,,,,,,,,,,,,,,,,,,,,,,,,,,,,,,,,,,,,,,,,,,,,,,,,,,,,,,,,,,
,,,,,,,,,671efcc199e22fc57bff41aa,Spanish,13 or older,"no, only English or Spanish",no,2025-08-12_15h18.26.593,empathy_intonation_perc,2024.2.4,Win32,60.0240096,671efcc199e22fc57bff41aa,687ed1b7e638a4cbf2f02089,689b936c0fd5984874e9f9eb,,,,,,,,,,,,,,1,,./stim/wavs/mexican_question_filler_Felipe-no-tiene-contrasena.wav,,,,,,,,,184.091,186.69,1,1,2.086,,0,4,4,3,1,,,,,,,,,,,,,,,,,,,,,,,,,,,,,,,,,,,,,,,,,,,,,,,,,,,,,,,,,,,,,,,,,,,,,,,
,,,,,,,,,671efcc199e22fc57bff41aa,Spanish,13 or older,"no, only English or Spanish",no,2025-08-12_15h18.26.593,empathy_intonation_perc,2024.2.4,Win32,60.0240096,671efcc199e22fc57bff41aa,687ed1b7e638a4cbf2f02089,689b936c0fd5984874e9f9eb,,,,,,,,,,,,,,0,,./stim/wavs/cuban_statement_filler_Cocinabas-por-la-noche.wav,,,,,,,,,186.692,189.213,0,1,1.987,,0,5,5,4,1,,,,,,,,,,,,,,,,,,,,,,,,,,,,,,,,,,,,,,,,,,,,,,,,,,,,,,,,,,,,,,,,,,,,,,,
,,,,,,,,,671efcc199e22fc57bff41aa,Spanish,13 or older,"no, only English or Spanish",no,2025-08-12_15h18.26.593,empathy_intonation_perc,2024.2.4,Win32,60.0240096,671efcc199e22fc57bff41aa,687ed1b7e638a4cbf2f02089,689b936c0fd5984874e9f9eb,,,,,,,,,,,,,,0,,./stim/wavs/puertorican_statement_filler_La-nina-pinta-con-su-amiga.wav,,,,,,,,,189.214,192.058,0,1,2.331,,0,6,6,7,1,,,,,,,,,,,,,,,,,,,,,,,,,,,,,,,,,,,,,,,,,,,,,,,,,,,,,,,,,,,,,,,,,,,,,,,
,,,,,,,,,671efcc199e22fc57bff41aa,Spanish,13 or older,"no, only English or Spanish",no,2025-08-12_15h18.26.593,empathy_intonation_perc,2024.2.4,Win32,60.0240096,671efcc199e22fc57bff41aa,687ed1b7e638a4cbf2f02089,689b936c0fd5984874e9f9eb,,,,,,,,,,,,,,0,,./stim/wavs/andalusian_statement_filler_Alberto-nunca-se-afeita.wav,,,,,,,,,192.058,194.698,0,1,2.114,,0,7,7,5,1,,,,,,,,,,,,,,,,,,,,,,,,,,,,,,,,,,,,,,,,,,,,,,,,,,,,,,,,,,,,,,,,,,,,,,,
,,,,,,,,,671efcc199e22fc57bff41aa,Spanish,13 or older,"no, only English or Spanish",no,2025-08-12_15h18.26.593,empathy_intonation_perc,2024.2.4,Win32,60.0240096,671efcc199e22fc57bff41aa,687ed1b7e638a4cbf2f02089,689b936c0fd5984874e9f9eb,,,,,,,,,,,,,,,,,,,,,,,,,,,,,,,,,,,,194.698,197.397,,,,,,,,,,,,,,,,,,,,,,,,,,,,,,,,,,,,,,,,,,,,,,,,,,,,,,,,,,,,,,,,,,,,,
,,,,,,,,,671efcc199e22fc57bff41aa,Spanish,13 or older,"no, only English or Spanish",no,2025-08-12_15h18.26.593,empathy_intonation_perc,2024.2.4,Win32,60.0240096,671efcc199e22fc57bff41aa,687ed1b7e638a4cbf2f02089,689b936c0fd5984874e9f9eb,,,,,,,,,,,,,7,1,,./stim/wavs/cuban_match_interrogative-total-yn_Ana-lleva-el-abrigo.wav,,,,,,,,,,,,,,,,,,,,,,197.411,199.74,0,0,1.799,,0,0,0,6,1,1,cuban,,,,,,,,,,,,,,,,,,,,,,,,,,,,,,,,,,,,,,,,,,,,,,,,,,,,,,,,
,,,,,,,,,671efcc199e22fc57bff41aa,Spanish,13 or older,"no, only English or Spanish",no,2025-08-12_15h18.26.593,empathy_intonation_perc,2024.2.4,Win32,60.0240096,671efcc199e22fc57bff41aa,687ed1b7e638a4cbf2f02089,689b936c0fd5984874e9f9eb,,,,,,,,,,,,,41,1,,./stim/wavs/puertorican_mismatch_interrogative-total-yn_El-nino-oye-el-rio.wav,,,,,,,,,,,,,,,,,,,,,,199.743,202.074,0,0,1.816,,0,1,1,40,1,1,puertorican,,,,,,,,,,,,,,,,,,,,,,,,,,,,,,,,,,,,,,,,,,,,,,,,,,,,,,,,
,,,,,,,,,671efcc199e22fc57bff41aa,Spanish,13 or older,"no, only English or Spanish",no,2025-08-12_15h18.26.593,empathy_intonation_perc,2024.2.4,Win32,60.0240096,671efcc199e22fc57bff41aa,687ed1b7e638a4cbf2f02089,689b936c0fd5984874e9f9eb,,,,,,,,,,,,,8,1,,./stim/wavs/cuban_match_interrogative-total-yn_Daniel-iba-a-Bolivia.wav,,,,,,,,,,,,,,,,,,,,,,202.076,204.824,0,0,2.222,,0,2,2,7,1,1,cuban,,,,,,,,,,,,,,,,,,,,,,,,,,,,,,,,,,,,,,,,,,,,,,,,,,,,,,,,
,,,,,,,,,671efcc199e22fc57bff41aa,Spanish,13 or older,"no, only English or Spanish",no,2025-08-12_15h18.26.593,empathy_intonation_perc,2024.2.4,Win32,60.0240096,671efcc199e22fc57bff41aa,687ed1b7e638a4cbf2f02089,689b936c0fd5984874e9f9eb,,,,,,,,,,,,,44,1,,./stim/wavs/puertorican_mismatch_interrogative-total-yn_Mi-madre-come-la-fruta.wav,,,,,,,,,,,,,,,,,,,,,,204.824,207.224,0,0,1.885,,0,3,3,43,1,1,puertorican,,,,,,,,,,,,,,,,,,,,,,,,,,,,,,,,,,,,,,,,,,,,,,,,,,,,,,,,
,,,,,,,,,671efcc199e22fc57bff41aa,Spanish,13 or older,"no, only English or Spanish",no,2025-08-12_15h18.26.593,empathy_intonation_perc,2024.2.4,Win32,60.0240096,671efcc199e22fc57bff41aa,687ed1b7e638a4cbf2f02089,689b936c0fd5984874e9f9eb,,,,,,,,,,,,,10,1,,./stim/wavs/cuban_match_interrogative-total-yn_Maria-bebe-el-vino.wav,,,,,,,,,,,,,,,,,,,,,,207.225,209.89,0,0,2.155,,0,4,4,9,1,1,cuban,,,,,,,,,,,,,,,,,,,,,,,,,,,,,,,,,,,,,,,,,,,,,,,,,,,,,,,,
,,,,,,,,,671efcc199e22fc57bff41aa,Spanish,13 or older,"no, only English or Spanish",no,2025-08-12_15h18.26.593,empathy_intonation_perc,2024.2.4,Win32,60.0240096,671efcc199e22fc57bff41aa,687ed1b7e638a4cbf2f02089,689b936c0fd5984874e9f9eb,,,,,,,,,,,,,39,1,,./stim/wavs/mexican_mismatch_interrogative-total-yn_Mi-tia-odia-la-lluvia.wav,,,,,,,,,,,,,,,,,,,,,,209.894,212.224,1,1,1.8,,0,5,5,38,1,0,mexican,,,,,,,,,,,,,,,,,,,,,,,,,,,,,,,,,,,,,,,,,,,,,,,,,,,,,,,,
,,,,,,,,,671efcc199e22fc57bff41aa,Spanish,13 or older,"no, only English or Spanish",no,2025-08-12_15h18.26.593,empathy_intonation_perc,2024.2.4,Win32,60.0240096,671efcc199e22fc57bff41aa,687ed1b7e638a4cbf2f02089,689b936c0fd5984874e9f9eb,,,,,,,,,,,,,22,1,,./stim/wavs/puertorican_match_interrogative-total-yn_Emilio-ama-la-marcha.wav,,,,,,,,,,,,,,,,,,,,,,212.225,214.591,0,0,1.851,,0,6,6,21,1,1,puertorican,,,,,,,,,,,,,,,,,,,,,,,,,,,,,,,,,,,,,,,,,,,,,,,,,,,,,,,,
,,,,,,,,,671efcc199e22fc57bff41aa,Spanish,13 or older,"no, only English or Spanish",no,2025-08-12_15h18.26.593,empathy_intonation_perc,2024.2.4,Win32,60.0240096,671efcc199e22fc57bff41aa,687ed1b7e638a4cbf2f02089,689b936c0fd5984874e9f9eb,,,,,,,,,,,,,52,0,,./stim/wavs/cuban_match_declarative-broad-focus_Daniel-iba-a-Bolivia.wav,,,,,,,,,,,,,,,,,,,,,,214.591,217.124,0,1,2.014,,0,7,7,51,1,0,cuban,,,,,,,,,,,,,,,,,,,,,,,,,,,,,,,,,,,,,,,,,,,,,,,,,,,,,,,,
,,,,,,,,,671efcc199e22fc57bff41aa,Spanish,13 or older,"no, only English or Spanish",no,2025-08-12_15h18.26.593,empathy_intonation_perc,2024.2.4,Win32,60.0240096,671efcc199e22fc57bff41aa,687ed1b7e638a4cbf2f02089,689b936c0fd5984874e9f9eb,,,,,,,,,,,,,42,1,,./stim/wavs/puertorican_mismatch_interrogative-total-yn_La-maestra-vive-en-Paris.wav,,,,,,,,,,,,,,,,,,,,,,217.125,219.641,0,0,2,,0,8,8,41,1,1,puertorican,,,,,,,,,,,,,,,,,,,,,,,,,,,,,,,,,,,,,,,,,,,,,,,,,,,,,,,,
,,,,,,,,,671efcc199e22fc57bff41aa,Spanish,13 or older,"no, only English or Spanish",no,2025-08-12_15h18.26.593,empathy_intonation_perc,2024.2.4,Win32,60.0240096,671efcc199e22fc57bff41aa,687ed1b7e638a4cbf2f02089,689b936c0fd5984874e9f9eb,,,,,,,,,,,,,40,1,,./stim/wavs/puertorican_mismatch_interrogative-total-yn_El-hombre-mira-la-luna.wav,,,,,,,,,,,,,,,,,,,,,,219.642,222.141,1,1,1.969,,0,9,9,39,1,1,puertorican,,,,,,,,,,,,,,,,,,,,,,,,,,,,,,,,,,,,,,,,,,,,,,,,,,,,,,,,
,,,,,,,,,671efcc199e22fc57bff41aa,Spanish,13 or older,"no, only English or Spanish",no,2025-08-12_15h18.26.593,empathy_intonation_perc,2024.2.4,Win32,60.0240096,671efcc199e22fc57bff41aa,687ed1b7e638a4cbf2f02089,689b936c0fd5984874e9f9eb,,,,,,,,,,,,,80,0,,./stim/wavs/mexican_mismatch_declarative-broad-focus_El-hombre-mira-la-luna.wav,,,,,,,,,,,,,,,,,,,,,,222.143,224.641,0,1,1.968,,0,10,10,79,1,0,mexican,,,,,,,,,,,,,,,,,,,,,,,,,,,,,,,,,,,,,,,,,,,,,,,,,,,,,,,,
,,,,,,,,,671efcc199e22fc57bff41aa,Spanish,13 or older,"no, only English or Spanish",no,2025-08-12_15h18.26.593,empathy_intonation_perc,2024.2.4,Win32,60.0240096,671efcc199e22fc57bff41aa,687ed1b7e638a4cbf2f02089,689b936c0fd5984874e9f9eb,,,,,,,,,,,,,51,0,,./stim/wavs/cuban_match_declarative-broad-focus_Ana-lleva-el-abrigo.wav,,,,,,,,,,,,,,,,,,,,,,224.642,226.976,0,1,1.797,,0,11,11,50,1,0,cuban,,,,,,,,,,,,,,,,,,,,,,,,,,,,,,,,,,,,,,,,,,,,,,,,,,,,,,,,
,,,,,,,,,671efcc199e22fc57bff41aa,Spanish,13 or older,"no, only English or Spanish",no,2025-08-12_15h18.26.593,empathy_intonation_perc,2024.2.4,Win32,60.0240096,671efcc199e22fc57bff41aa,687ed1b7e638a4cbf2f02089,689b936c0fd5984874e9f9eb,,,,,,,,,,,,,85,0,,./stim/wavs/puertorican_mismatch_declarative-broad-focus_El-hombre-mira-la-luna.wav,,,,,,,,,,,,,,,,,,,,,,226.979,229.246,0,1,1.741,,0,12,12,84,1,0,puertorican,,,,,,,,,,,,,,,,,,,,,,,,,,,,,,,,,,,,,,,,,,,,,,,,,,,,,,,,
,,,,,,,,,671efcc199e22fc57bff41aa,Spanish,13 or older,"no, only English or Spanish",no,2025-08-12_15h18.26.593,empathy_intonation_perc,2024.2.4,Win32,60.0240096,671efcc199e22fc57bff41aa,687ed1b7e638a4cbf2f02089,689b936c0fd5984874e9f9eb,,,,,,,,,,,,,67,0,,./stim/wavs/puertorican_match_declarative-broad-focus_Manuela-vende-el-carro.wav,,,,,,,,,,,,,,,,,,,,,,229.247,231.641,0,1,1.869,,0,13,13,66,1,0,puertorican,,,,,,,,,,,,,,,,,,,,,,,,,,,,,,,,,,,,,,,,,,,,,,,,,,,,,,,,
,,,,,,,,,671efcc199e22fc57bff41aa,Spanish,13 or older,"no, only English or Spanish",no,2025-08-12_15h18.26.593,empathy_intonation_perc,2024.2.4,Win32,60.0240096,671efcc199e22fc57bff41aa,687ed1b7e638a4cbf2f02089,689b936c0fd5984874e9f9eb,,,,,,,,,,,,,20,1,,./stim/wavs/puertorican_match_interrogative-total-yn_Daniel-iba-a-Bolivia.wav,,,,,,,,,,,,,,,,,,,,,,231.643,234.19,0,0,2.014,,0,14,14,19,1,1,puertorican,,,,,,,,,,,,,,,,,,,,,,,,,,,,,,,,,,,,,,,,,,,,,,,,,,,,,,,,
,,,,,,,,,671efcc199e22fc57bff41aa,Spanish,13 or older,"no, only English or Spanish",no,2025-08-12_15h18.26.593,empathy_intonation_perc,2024.2.4,Win32,60.0240096,671efcc199e22fc57bff41aa,687ed1b7e638a4cbf2f02089,689b936c0fd5984874e9f9eb,,,,,,,,,,,,,27,1,,./stim/wavs/castilian_mismatch_interrogative-total-yn_Mi-madre-come-la-fruta.wav,,,,,,,,,,,,,,,,,,,,,,234.192,236.874,1,1,2.15,,0,15,15,26,1,0,castilian,,,,,,,,,,,,,,,,,,,,,,,,,,,,,,,,,,,,,,,,,,,,,,,,,,,,,,,,
,,,,,,,,,671efcc199e22fc57bff41aa,Spanish,13 or older,"no, only English or Spanish",no,2025-08-12_15h18.26.593,empathy_intonation_perc,2024.2.4,Win32,60.0240096,671efcc199e22fc57bff41aa,687ed1b7e638a4cbf2f02089,689b936c0fd5984874e9f9eb,,,,,,,,,,,,,11,1,,./stim/wavs/cuban_match_interrogative-total-yn_Mariano-habla-del-tiempo.wav,,,,,,,,,,,,,,,,,,,,,,236.876,239.34,0,0,1.932,,0,16,16,10,1,1,cuban,,,,,,,,,,,,,,,,,,,,,,,,,,,,,,,,,,,,,,,,,,,,,,,,,,,,,,,,
,,,,,,,,,671efcc199e22fc57bff41aa,Spanish,13 or older,"no, only English or Spanish",no,2025-08-12_15h18.26.593,empathy_intonation_perc,2024.2.4,Win32,60.0240096,671efcc199e22fc57bff41aa,687ed1b7e638a4cbf2f02089,689b936c0fd5984874e9f9eb,,,,,,,,,,,,,26,1,,./stim/wavs/castilian_mismatch_interrogative-total-yn_La-nina-lava-el-plato.wav,,,,,,,,,,,,,,,,,,,,,,239.342,241.824,1,1,1.949,,0,17,17,25,1,0,castilian,,,,,,,,,,,,,,,,,,,,,,,,,,,,,,,,,,,,,,,,,,,,,,,,,,,,,,,,
,,,,,,,,,671efcc199e22fc57bff41aa,Spanish,13 or older,"no, only English or Spanish",no,2025-08-12_15h18.26.593,empathy_intonation_perc,2024.2.4,Win32,60.0240096,671efcc199e22fc57bff41aa,687ed1b7e638a4cbf2f02089,689b936c0fd5984874e9f9eb,,,,,,,,,,,,,14,1,,./stim/wavs/mexican_match_interrogative-total-yn_Daniel-iba-a-Bolivia.wav,,,,,,,,,,,,,,,,,,,,,,241.825,244.257,1,1,1.919,,0,18,18,13,1,0,mexican,,,,,,,,,,,,,,,,,,,,,,,,,,,,,,,,,,,,,,,,,,,,,,,,,,,,,,,,
,,,,,,,,,671efcc199e22fc57bff41aa,Spanish,13 or older,"no, only English or Spanish",no,2025-08-12_15h18.26.593,empathy_intonation_perc,2024.2.4,Win32,60.0240096,671efcc199e22fc57bff41aa,687ed1b7e638a4cbf2f02089,689b936c0fd5984874e9f9eb,,,,,,,,,,,,,35,1,,./stim/wavs/mexican_mismatch_interrogative-total-yn_El-hombre-mira-la-luna.wav,,,,,,,,,,,,,,,,,,,,,,244.258,246.557,1,1,1.787,,0,19,19,34,1,0,mexican,,,,,,,,,,,,,,,,,,,,,,,,,,,,,,,,,,,,,,,,,,,,,,,,,,,,,,,,
,,,,,,,,,671efcc199e22fc57bff41aa,Spanish,13 or older,"no, only English or Spanish",no,2025-08-12_15h18.26.593,empathy_intonation_perc,2024.2.4,Win32,60.0240096,671efcc199e22fc57bff41aa,687ed1b7e638a4cbf2f02089,689b936c0fd5984874e9f9eb,,,,,,,,,,,,,59,0,,./stim/wavs/mexican_match_declarative-broad-focus_David-leia-el-libro.wav,,,,,,,,,,,,,,,,,,,,,,246.558,249.073,0,1,1.982,,0,20,20,58,1,0,mexican,,,,,,,,,,,,,,,,,,,,,,,,,,,,,,,,,,,,,,,,,,,,,,,,,,,,,,,,
,,,,,,,,,671efcc199e22fc57bff41aa,Spanish,13 or older,"no, only English or Spanish",no,2025-08-12_15h18.26.593,empathy_intonation_perc,2024.2.4,Win32,60.0240096,671efcc199e22fc57bff41aa,687ed1b7e638a4cbf2f02089,689b936c0fd5984874e9f9eb,,,,,,,,,,,,,54,0,,./stim/wavs/cuban_match_declarative-broad-focus_Maria-bebe-el-vino.wav,,,,,,,,,,,,,,,,,,,,,,249.074,251.316,0,1,1.705,,0,21,21,53,1,0,cuban,,,,,,,,,,,,,,,,,,,,,,,,,,,,,,,,,,,,,,,,,,,,,,,,,,,,,,,,
,,,,,,,,,671efcc199e22fc57bff41aa,Spanish,13 or older,"no, only English or Spanish",no,2025-08-12_15h18.26.593,empathy_intonation_perc,2024.2.4,Win32,60.0240096,671efcc199e22fc57bff41aa,687ed1b7e638a4cbf2f02089,689b936c0fd5984874e9f9eb,,,,,,,,,,,,,81,0,,./stim/wavs/mexican_mismatch_declarative-broad-focus_La-maestra-vive-en-Paris.wav,,,,,,,,,,,,,,,,,,,,,,251.316,253.724,0,1,1.891,,0,22,22,80,1,0,mexican,,,,,,,,,,,,,,,,,,,,,,,,,,,,,,,,,,,,,,,,,,,,,,,,,,,,,,,,
,,,,,,,,,671efcc199e22fc57bff41aa,Spanish,13 or older,"no, only English or Spanish",no,2025-08-12_15h18.26.593,empathy_intonation_perc,2024.2.4,Win32,60.0240096,671efcc199e22fc57bff41aa,687ed1b7e638a4cbf2f02089,689b936c0fd5984874e9f9eb,,,,,,,,,,,,,21,1,,./stim/wavs/puertorican_match_interrogative-total-yn_David-leia-el-libro.wav,,,,,,,,,,,,,,,,,,,,,,253.725,255.923,0,0,1.672,,0,23,23,20,1,1,puertorican,,,,,,,,,,,,,,,,,,,,,,,,,,,,,,,,,,,,,,,,,,,,,,,,,,,,,,,,
,,,,,,,,,671efcc199e22fc57bff41aa,Spanish,13 or older,"no, only English or Spanish",no,2025-08-12_15h18.26.593,empathy_intonation_perc,2024.2.4,Win32,60.0240096,671efcc199e22fc57bff41aa,687ed1b7e638a4cbf2f02089,689b936c0fd5984874e9f9eb,,,,,,,,,,,,,61,0,,./stim/wavs/mexican_match_declarative-broad-focus_Mariano-habla-del-tiempo.wav,,,,,,,,,,,,,,,,,,,,,,255.925,258.28,0,1,1.811,,0,24,24,60,1,0,mexican,,,,,,,,,,,,,,,,,,,,,,,,,,,,,,,,,,,,,,,,,,,,,,,,,,,,,,,,
,,,,,,,,,671efcc199e22fc57bff41aa,Spanish,13 or older,"no, only English or Spanish",no,2025-08-12_15h18.26.593,empathy_intonation_perc,2024.2.4,Win32,60.0240096,671efcc199e22fc57bff41aa,687ed1b7e638a4cbf2f02089,689b936c0fd5984874e9f9eb,,,,,,,,,,,,,74,0,,./stim/wavs/cuban_mismatch_declarative-broad-focus_El-bebe-comia-muy-bien.wav,,,,,,,,,,,,,,,,,,,,,,258.28,260.408,0,1,1.601,,0,25,25,73,1,0,cuban,,,,,,,,,,,,,,,,,,,,,,,,,,,,,,,,,,,,,,,,,,,,,,,,,,,,,,,,
,,,,,,,,,671efcc199e22fc57bff41aa,Spanish,13 or older,"no, only English or Spanish",no,2025-08-12_15h18.26.593,empathy_intonation_perc,2024.2.4,Win32,60.0240096,671efcc199e22fc57bff41aa,687ed1b7e638a4cbf2f02089,689b936c0fd5984874e9f9eb,,,,,,,,,,,,,12,1,,./stim/wavs/cuban_match_interrogative-total-yn_Marta-abre-el-regalo.wav,,,,,,,,,,,,,,,,,,,,,,260.412,262.664,0,0,1.719,,0,26,26,11,1,1,cuban,,,,,,,,,,,,,,,,,,,,,,,,,,,,,,,,,,,,,,,,,,,,,,,,,,,,,,,,
,,,,,,,,,671efcc199e22fc57bff41aa,Spanish,13 or older,"no, only English or Spanish",no,2025-08-12_15h18.26.593,empathy_intonation_perc,2024.2.4,Win32,60.0240096,671efcc199e22fc57bff41aa,687ed1b7e638a4cbf2f02089,689b936c0fd5984874e9f9eb,,,,,,,,,,,,,79,0,,./stim/wavs/mexican_mismatch_declarative-broad-focus_El-bebe-comia-muy-bien.wav,,,,,,,,,,,,,,,,,,,,,,262.665,264.991,0,1,1.803,,0,27,27,78,1,0,mexican,,,,,,,,,,,,,,,,,,,,,,,,,,,,,,,,,,,,,,,,,,,,,,,,,,,,,,,,
,,,,,,,,,671efcc199e22fc57bff41aa,Spanish,13 or older,"no, only English or Spanish",no,2025-08-12_15h18.26.593,empathy_intonation_perc,2024.2.4,Win32,60.0240096,671efcc199e22fc57bff41aa,687ed1b7e638a4cbf2f02089,689b936c0fd5984874e9f9eb,,,,,,,,,,,,,30,1,,./stim/wavs/cuban_mismatch_interrogative-total-yn_El-hombre-mira-la-luna.wav,,,,,,,,,,,,,,,,,,,,,,264.994,267.114,0,0,1.609,,0,28,28,29,1,1,cuban,,,,,,,,,,,,,,,,,,,,,,,,,,,,,,,,,,,,,,,,,,,,,,,,,,,,,,,,
,,,,,,,,,671efcc199e22fc57bff41aa,Spanish,13 or older,"no, only English or Spanish",no,2025-08-12_15h18.26.593,empathy_intonation_perc,2024.2.4,Win32,60.0240096,671efcc199e22fc57bff41aa,687ed1b7e638a4cbf2f02089,689b936c0fd5984874e9f9eb,,,,,,,,,,,,,9,1,,./stim/wavs/cuban_match_interrogative-total-yn_Manuela-vende-el-carro.wav,,,,,,,,,,,,,,,,,,,,,,267.114,269.408,0,0,1.765,,0,29,29,8,1,1,cuban,,,,,,,,,,,,,,,,,,,,,,,,,,,,,,,,,,,,,,,,,,,,,,,,,,,,,,,,
,,,,,,,,,671efcc199e22fc57bff41aa,Spanish,13 or older,"no, only English or Spanish",no,2025-08-12_15h18.26.593,empathy_intonation_perc,2024.2.4,Win32,60.0240096,671efcc199e22fc57bff41aa,687ed1b7e638a4cbf2f02089,689b936c0fd5984874e9f9eb,,,,,,,,,,,,,87,0,,./stim/wavs/puertorican_mismatch_declarative-broad-focus_La-maestra-vive-en-Paris.wav,,,,,,,,,,,,,,,,,,,,,,269.41,271.865,0,1,1.936,,0,30,30,86,1,0,puertorican,,,,,,,,,,,,,,,,,,,,,,,,,,,,,,,,,,,,,,,,,,,,,,,,,,,,,,,,
,,,,,,,,,671efcc199e22fc57bff41aa,Spanish,13 or older,"no, only English or Spanish",no,2025-08-12_15h18.26.593,empathy_intonation_perc,2024.2.4,Win32,60.0240096,671efcc199e22fc57bff41aa,687ed1b7e638a4cbf2f02089,689b936c0fd5984874e9f9eb,,,,,,,,,,,,,82,0,,./stim/wavs/mexican_mismatch_declarative-broad-focus_Mi-novio-viene-del-lago.wav,,,,,,,,,,,,,,,,,,,,,,271.866,274.108,0,1,1.729,,0,31,31,81,1,0,mexican,,,,,,,,,,,,,,,,,,,,,,,,,,,,,,,,,,,,,,,,,,,,,,,,,,,,,,,,
,,,,,,,,,671efcc199e22fc57bff41aa,Spanish,13 or older,"no, only English or Spanish",no,2025-08-12_15h18.26.593,empathy_intonation_perc,2024.2.4,Win32,60.0240096,671efcc199e22fc57bff41aa,687ed1b7e638a4cbf2f02089,689b936c0fd5984874e9f9eb,,,,,,,,,,,,,49,0,,./stim/wavs/castilian_match_declarative-broad-focus_Mariano-habla-del-tiempo.wav,,,,,,,,,,,,,,,,,,,,,,274.108,276.814,0,1,2.185,,0,32,32,48,1,0,castilian,,,,,,,,,,,,,,,,,,,,,,,,,,,,,,,,,,,,,,,,,,,,,,,,,,,,,,,,
,,,,,,,,,671efcc199e22fc57bff41aa,Spanish,13 or older,"no, only English or Spanish",no,2025-08-12_15h18.26.593,empathy_intonation_perc,2024.2.4,Win32,60.0240096,671efcc199e22fc57bff41aa,687ed1b7e638a4cbf2f02089,689b936c0fd5984874e9f9eb,,,,,,,,,,,,,75,0,,./stim/wavs/cuban_mismatch_declarative-broad-focus_El-hombre-mira-la-luna.wav,,,,,,,,,,,,,,,,,,,,,,276.815,278.891,0,1,1.555,,0,33,33,74,1,0,cuban,,,,,,,,,,,,,,,,,,,,,,,,,,,,,,,,,,,,,,,,,,,,,,,,,,,,,,,,
,,,,,,,,,671efcc199e22fc57bff41aa,Spanish,13 or older,"no, only English or Spanish",no,2025-08-12_15h18.26.593,empathy_intonation_perc,2024.2.4,Win32,60.0240096,671efcc199e22fc57bff41aa,687ed1b7e638a4cbf2f02089,689b936c0fd5984874e9f9eb,,,,,,,,,,,,,73,0,,./stim/wavs/castilian_mismatch_declarative-broad-focus_Mi-tia-odia-la-lluvia.wav,,,,,,,,,,,,,,,,,,,,,,278.892,281.265,0,1,1.839,,0,34,34,72,1,0,castilian,,,,,,,,,,,,,,,,,,,,,,,,,,,,,,,,,,,,,,,,,,,,,,,,,,,,,,,,
,,,,,,,,,671efcc199e22fc57bff41aa,Spanish,13 or older,"no, only English or Spanish",no,2025-08-12_15h18.26.593,empathy_intonation_perc,2024.2.4,Win32,60.0240096,671efcc199e22fc57bff41aa,687ed1b7e638a4cbf2f02089,689b936c0fd5984874e9f9eb,,,,,,,,,,,,,78,0,,./stim/wavs/cuban_mismatch_declarative-broad-focus_Mi-tia-odia-la-lluvia.wav,,,,,,,,,,,,,,,,,,,,,,281.266,283.674,0,1,1.888,,0,35,35,77,1,0,cuban,,,,,,,,,,,,,,,,,,,,,,,,,,,,,,,,,,,,,,,,,,,,,,,,,,,,,,,,
,,,,,,,,,671efcc199e22fc57bff41aa,Spanish,13 or older,"no, only English or Spanish",no,2025-08-12_15h18.26.593,empathy_intonation_perc,2024.2.4,Win32,60.0240096,671efcc199e22fc57bff41aa,687ed1b7e638a4cbf2f02089,689b936c0fd5984874e9f9eb,,,,,,,,,,,,,17,1,,./stim/wavs/mexican_match_interrogative-total-yn_Mariano-habla-del-tiempo.wav,,,,,,,,,,,,,,,,,,,,,,283.676,286.074,0,0,1.869,,0,36,36,16,1,0,mexican,,,,,,,,,,,,,,,,,,,,,,,,,,,,,,,,,,,,,,,,,,,,,,,,,,,,,,,,
,,,,,,,,,671efcc199e22fc57bff41aa,Spanish,13 or older,"no, only English or Spanish",no,2025-08-12_15h18.26.593,empathy_intonation_perc,2024.2.4,Win32,60.0240096,671efcc199e22fc57bff41aa,687ed1b7e638a4cbf2f02089,689b936c0fd5984874e9f9eb,,,,,,,,,,,,,28,1,,./stim/wavs/castilian_mismatch_interrogative-total-yn_Mi-novio-viene-del-lago.wav,,,,,,,,,,,,,,,,,,,,,,286.075,288.857,1,1,2.251,,0,37,37,27,1,0,castilian,,,,,,,,,,,,,,,,,,,,,,,,,,,,,,,,,,,,,,,,,,,,,,,,,,,,,,,,
,,,,,,,,,671efcc199e22fc57bff41aa,Spanish,13 or older,"no, only English or Spanish",no,2025-08-12_15h18.26.593,empathy_intonation_perc,2024.2.4,Win32,60.0240096,671efcc199e22fc57bff41aa,687ed1b7e638a4cbf2f02089,689b936c0fd5984874e9f9eb,,,,,,,,,,,,,72,0,,./stim/wavs/castilian_mismatch_declarative-broad-focus_Mi-novio-viene-del-lago.wav,,,,,,,,,,,,,,,,,,,,,,288.858,291.674,0,1,2.288,,0,38,38,71,1,0,castilian,,,,,,,,,,,,,,,,,,,,,,,,,,,,,,,,,,,,,,,,,,,,,,,,,,,,,,,,
,,,,,,,,,671efcc199e22fc57bff41aa,Spanish,13 or older,"no, only English or Spanish",no,2025-08-12_15h18.26.593,empathy_intonation_perc,2024.2.4,Win32,60.0240096,671efcc199e22fc57bff41aa,687ed1b7e638a4cbf2f02089,689b936c0fd5984874e9f9eb,,,,,,,,,,,,,2,1,,./stim/wavs/castilian_match_interrogative-total-yn_Emilio-ama-la-marcha.wav,,,,,,,,,,,,,,,,,,,,,,291.675,294.258,1,1,2.052,,0,39,39,1,1,0,castilian,,,,,,,,,,,,,,,,,,,,,,,,,,,,,,,,,,,,,,,,,,,,,,,,,,,,,,,,
,,,,,,,,,671efcc199e22fc57bff41aa,Spanish,13 or older,"no, only English or Spanish",no,2025-08-12_15h18.26.593,empathy_intonation_perc,2024.2.4,Win32,60.0240096,671efcc199e22fc57bff41aa,687ed1b7e638a4cbf2f02089,689b936c0fd5984874e9f9eb,,,,,,,,,,,,,77,0,,./stim/wavs/cuban_mismatch_declarative-broad-focus_Mi-novio-viene-del-lago.wav,,,,,,,,,,,,,,,,,,,,,,294.262,296.807,0,1,2.03,,0,40,40,76,1,0,cuban,,,,,,,,,,,,,,,,,,,,,,,,,,,,,,,,,,,,,,,,,,,,,,,,,,,,,,,,
,,,,,,,,,671efcc199e22fc57bff41aa,Spanish,13 or older,"no, only English or Spanish",no,2025-08-12_15h18.26.593,empathy_intonation_perc,2024.2.4,Win32,60.0240096,671efcc199e22fc57bff41aa,687ed1b7e638a4cbf2f02089,689b936c0fd5984874e9f9eb,,,,,,,,,,,,,69,0,,./stim/wavs/castilian_mismatch_declarative-broad-focus_El-nino-oye-el-rio.wav,,,,,,,,,,,,,,,,,,,,,,296.81,299.325,0,1,1.984,,0,41,41,68,1,0,castilian,,,,,,,,,,,,,,,,,,,,,,,,,,,,,,,,,,,,,,,,,,,,,,,,,,,,,,,,
,,,,,,,,,671efcc199e22fc57bff41aa,Spanish,13 or older,"no, only English or Spanish",no,2025-08-12_15h18.26.593,empathy_intonation_perc,2024.2.4,Win32,60.0240096,671efcc199e22fc57bff41aa,687ed1b7e638a4cbf2f02089,689b936c0fd5984874e9f9eb,,,,,,,,,,,,,84,0,,./stim/wavs/puertorican_mismatch_declarative-broad-focus_El-bebe-comia-muy-bien.wav,,,,,,,,,,,,,,,,,,,,,,299.328,301.824,0,1,1.97,,0,42,42,83,1,0,puertorican,,,,,,,,,,,,,,,,,,,,,,,,,,,,,,,,,,,,,,,,,,,,,,,,,,,,,,,,
,,,,,,,,,671efcc199e22fc57bff41aa,Spanish,13 or older,"no, only English or Spanish",no,2025-08-12_15h18.26.593,empathy_intonation_perc,2024.2.4,Win32,60.0240096,671efcc199e22fc57bff41aa,687ed1b7e638a4cbf2f02089,689b936c0fd5984874e9f9eb,,,,,,,,,,,,,6,1,,./stim/wavs/castilian_match_interrogative-total-yn_Marta-abre-el-regalo.wav,,,,,,,,,,,,,,,,,,,,,,301.826,304.39,1,1,2.035,,0,43,43,5,1,0,castilian,,,,,,,,,,,,,,,,,,,,,,,,,,,,,,,,,,,,,,,,,,,,,,,,,,,,,,,,
,,,,,,,,,671efcc199e22fc57bff41aa,Spanish,13 or older,"no, only English or Spanish",no,2025-08-12_15h18.26.593,empathy_intonation_perc,2024.2.4,Win32,60.0240096,671efcc199e22fc57bff41aa,687ed1b7e638a4cbf2f02089,689b936c0fd5984874e9f9eb,,,,,,,,,,,,,68,0,,./stim/wavs/puertorican_match_declarative-broad-focus_Maria-bebe-el-vino.wav,,,,,,,,,,,,,,,,,,,,,,304.392,306.907,0,1,1.985,,0,44,44,67,1,0,puertorican,,,,,,,,,,,,,,,,,,,,,,,,,,,,,,,,,,,,,,,,,,,,,,,,,,,,,,,,
,,,,,,,,,671efcc199e22fc57bff41aa,Spanish,13 or older,"no, only English or Spanish",no,2025-08-12_15h18.26.593,empathy_intonation_perc,2024.2.4,Win32,60.0240096,671efcc199e22fc57bff41aa,687ed1b7e638a4cbf2f02089,689b936c0fd5984874e9f9eb,,,,,,,,,,,,,60,0,,./stim/wavs/mexican_match_declarative-broad-focus_Emilio-ama-la-marcha.wav,,,,,,,,,,,,,,,,,,,,,,306.908,309.458,0,1,2.04,,0,45,45,59,1,0,mexican,,,,,,,,,,,,,,,,,,,,,,,,,,,,,,,,,,,,,,,,,,,,,,,,,,,,,,,,
,,,,,,,,,671efcc199e22fc57bff41aa,Spanish,13 or older,"no, only English or Spanish",no,2025-08-12_15h18.26.593,empathy_intonation_perc,2024.2.4,Win32,60.0240096,671efcc199e22fc57bff41aa,687ed1b7e638a4cbf2f02089,689b936c0fd5984874e9f9eb,,,,,,,,,,,,,18,1,,./stim/wavs/mexican_match_interrogative-total-yn_Marta-abre-el-regalo.wav,,,,,,,,,,,,,,,,,,,,,,309.459,311.741,1,1,1.751,,0,46,46,17,1,0,mexican,,,,,,,,,,,,,,,,,,,,,,,,,,,,,,,,,,,,,,,,,,,,,,,,,,,,,,,,
,,,,,,,,,671efcc199e22fc57bff41aa,Spanish,13 or older,"no, only English or Spanish",no,2025-08-12_15h18.26.593,empathy_intonation_perc,2024.2.4,Win32,60.0240096,671efcc199e22fc57bff41aa,687ed1b7e638a4cbf2f02089,689b936c0fd5984874e9f9eb,,,,,,,,,,,,,53,0,,./stim/wavs/cuban_match_declarative-broad-focus_Manuela-vende-el-carro.wav,,,,,,,,,,,,,,,,,,,,,,311.743,314.291,0,1,2.018,,0,47,47,52,1,0,cuban,,,,,,,,,,,,,,,,,,,,,,,,,,,,,,,,,,,,,,,,,,,,,,,,,,,,,,,,
,,,,,,,,,671efcc199e22fc57bff41aa,Spanish,13 or older,"no, only English or Spanish",no,2025-08-12_15h18.26.593,empathy_intonation_perc,2024.2.4,Win32,60.0240096,671efcc199e22fc57bff41aa,687ed1b7e638a4cbf2f02089,689b936c0fd5984874e9f9eb,,,,,,,,,,,,,37,1,,./stim/wavs/mexican_mismatch_interrogative-total-yn_La-maestra-vive-en-Paris.wav,,,,,,,,,,,,,,,,,,,,,,314.292,316.974,1,1,2.146,,0,48,48,36,1,0,mexican,,,,,,,,,,,,,,,,,,,,,,,,,,,,,,,,,,,,,,,,,,,,,,,,,,,,,,,,
,,,,,,,,,671efcc199e22fc57bff41aa,Spanish,13 or older,"no, only English or Spanish",no,2025-08-12_15h18.26.593,empathy_intonation_perc,2024.2.4,Win32,60.0240096,671efcc199e22fc57bff41aa,687ed1b7e638a4cbf2f02089,689b936c0fd5984874e9f9eb,,,,,,,,,,,,,50,0,,./stim/wavs/castilian_match_declarative-broad-focus_Marta-abre-el-regalo.wav,,,,,,,,,,,,,,,,,,,,,,316.975,319.407,0,1,1.902,,0,49,49,49,1,0,castilian,,,,,,,,,,,,,,,,,,,,,,,,,,,,,,,,,,,,,,,,,,,,,,,,,,,,,,,,
,,,,,,,,,671efcc199e22fc57bff41aa,Spanish,13 or older,"no, only English or Spanish",no,2025-08-12_15h18.26.593,empathy_intonation_perc,2024.2.4,Win32,60.0240096,671efcc199e22fc57bff41aa,687ed1b7e638a4cbf2f02089,689b936c0fd5984874e9f9eb,,,,,,,,,,,,,76,0,,./stim/wavs/cuban_mismatch_declarative-broad-focus_La-nina-lava-el-plato.wav,,,,,,,,,,,,,,,,,,,,,,319.41,321.808,0,1,1.873,,0,50,50,75,1,0,cuban,,,,,,,,,,,,,,,,,,,,,,,,,,,,,,,,,,,,,,,,,,,,,,,,,,,,,,,,
,,,,,,,,,671efcc199e22fc57bff41aa,Spanish,13 or older,"no, only English or Spanish",no,2025-08-12_15h18.26.593,empathy_intonation_perc,2024.2.4,Win32,60.0240096,671efcc199e22fc57bff41aa,687ed1b7e638a4cbf2f02089,689b936c0fd5984874e9f9eb,,,,,,,,,,,,,63,0,,./stim/wavs/puertorican_match_declarative-broad-focus_Ana-lleva-el-abrigo.wav,,,,,,,,,,,,,,,,,,,,,,321.809,323.957,0,1,1.616,,0,51,51,62,1,0,puertorican,,,,,,,,,,,,,,,,,,,,,,,,,,,,,,,,,,,,,,,,,,,,,,,,,,,,,,,,
,,,,,,,,,671efcc199e22fc57bff41aa,Spanish,13 or older,"no, only English or Spanish",no,2025-08-12_15h18.26.593,empathy_intonation_perc,2024.2.4,Win32,60.0240096,671efcc199e22fc57bff41aa,687ed1b7e638a4cbf2f02089,689b936c0fd5984874e9f9eb,,,,,,,,,,,,,47,0,,./stim/wavs/castilian_match_declarative-broad-focus_Manuela-vende-el-carro.wav,,,,,,,,,,,,,,,,,,,,,,323.958,327.075,0,1,2.583,,0,52,52,46,1,0,castilian,,,,,,,,,,,,,,,,,,,,,,,,,,,,,,,,,,,,,,,,,,,,,,,,,,,,,,,,
,,,,,,,,,671efcc199e22fc57bff41aa,Spanish,13 or older,"no, only English or Spanish",no,2025-08-12_15h18.26.593,empathy_intonation_perc,2024.2.4,Win32,60.0240096,671efcc199e22fc57bff41aa,687ed1b7e638a4cbf2f02089,689b936c0fd5984874e9f9eb,,,,,,,,,,,,,24,1,,./stim/wavs/puertorican_match_interrogative-total-yn_Maria-bebe-el-vino.wav,,,,,,,,,,,,,,,,,,,,,,327.079,329.557,0,0,1.951,,0,53,53,23,1,1,puertorican,,,,,,,,,,,,,,,,,,,,,,,,,,,,,,,,,,,,,,,,,,,,,,,,,,,,,,,,
,,,,,,,,,671efcc199e22fc57bff41aa,Spanish,13 or older,"no, only English or Spanish",no,2025-08-12_15h18.26.593,empathy_intonation_perc,2024.2.4,Win32,60.0240096,671efcc199e22fc57bff41aa,687ed1b7e638a4cbf2f02089,689b936c0fd5984874e9f9eb,,,,,,,,,,,,,34,1,,./stim/wavs/cuban_mismatch_interrogative-total-yn_Mi-tia-odia-la-lluvia.wav,,,,,,,,,,,,,,,,,,,,,,329.559,332.291,0,0,2.205,,0,54,54,33,1,1,cuban,,,,,,,,,,,,,,,,,,,,,,,,,,,,,,,,,,,,,,,,,,,,,,,,,,,,,,,,
,,,,,,,,,671efcc199e22fc57bff41aa,Spanish,13 or older,"no, only English or Spanish",no,2025-08-12_15h18.26.593,empathy_intonation_perc,2024.2.4,Win32,60.0240096,671efcc199e22fc57bff41aa,687ed1b7e638a4cbf2f02089,689b936c0fd5984874e9f9eb,,,,,,,,,,,,,29,1,,./stim/wavs/castilian_mismatch_interrogative-total-yn_Mi-tia-odia-la-lluvia.wav,,,,,,,,,,,,,,,,,,,,,,332.293,335.28,1,1,2.464,,0,55,55,28,1,0,castilian,,,,,,,,,,,,,,,,,,,,,,,,,,,,,,,,,,,,,,,,,,,,,,,,,,,,,,,,
,,,,,,,,,671efcc199e22fc57bff41aa,Spanish,13 or older,"no, only English or Spanish",no,2025-08-12_15h18.26.593,empathy_intonation_perc,2024.2.4,Win32,60.0240096,671efcc199e22fc57bff41aa,687ed1b7e638a4cbf2f02089,689b936c0fd5984874e9f9eb,,,,,,,,,,,,,43,1,,./stim/wavs/puertorican_mismatch_interrogative-total-yn_La-nina-lava-el-plato.wav,,,,,,,,,,,,,,,,,,,,,,335.281,337.541,0,0,1.734,,0,56,56,42,1,1,puertorican,,,,,,,,,,,,,,,,,,,,,,,,,,,,,,,,,,,,,,,,,,,,,,,,,,,,,,,,
,,,,,,,,,671efcc199e22fc57bff41aa,Spanish,13 or older,"no, only English or Spanish",no,2025-08-12_15h18.26.593,empathy_intonation_perc,2024.2.4,Win32,60.0240096,671efcc199e22fc57bff41aa,687ed1b7e638a4cbf2f02089,689b936c0fd5984874e9f9eb,,,,,,,,,,,,,4,1,,./stim/wavs/castilian_match_interrogative-total-yn_Maria-bebe-el-vino.wav,,,,,,,,,,,,,,,,,,,,,,337.543,339.915,1,1,1.846,,0,57,57,3,1,0,castilian,,,,,,,,,,,,,,,,,,,,,,,,,,,,,,,,,,,,,,,,,,,,,,,,,,,,,,,,
,,,,,,,,,671efcc199e22fc57bff41aa,Spanish,13 or older,"no, only English or Spanish",no,2025-08-12_15h18.26.593,empathy_intonation_perc,2024.2.4,Win32,60.0240096,671efcc199e22fc57bff41aa,687ed1b7e638a4cbf2f02089,689b936c0fd5984874e9f9eb,,,,,,,,,,,,,16,1,,./stim/wavs/mexican_match_interrogative-total-yn_Emilio-ama-la-marcha.wav,,,,,,,,,,,,,,,,,,,,,,339.916,342.308,1,1,1.884,,0,58,58,15,1,0,mexican,,,,,,,,,,,,,,,,,,,,,,,,,,,,,,,,,,,,,,,,,,,,,,,,,,,,,,,,
,,,,,,,,,671efcc199e22fc57bff41aa,Spanish,13 or older,"no, only English or Spanish",no,2025-08-12_15h18.26.593,empathy_intonation_perc,2024.2.4,Win32,60.0240096,671efcc199e22fc57bff41aa,687ed1b7e638a4cbf2f02089,689b936c0fd5984874e9f9eb,,,,,,,,,,,,,66,0,,./stim/wavs/puertorican_match_declarative-broad-focus_Emilio-ama-la-marcha.wav,,,,,,,,,,,,,,,,,,,,,,342.309,344.629,0,1,1.81,,0,59,59,65,1,0,puertorican,,,,,,,,,,,,,,,,,,,,,,,,,,,,,,,,,,,,,,,,,,,,,,,,,,,,,,,,
,,,,,,,,,671efcc199e22fc57bff41aa,Spanish,13 or older,"no, only English or Spanish",no,2025-08-12_15h18.26.593,empathy_intonation_perc,2024.2.4,Win32,60.0240096,671efcc199e22fc57bff41aa,687ed1b7e638a4cbf2f02089,689b936c0fd5984874e9f9eb,,,,,,,,,,,,,3,1,,./stim/wavs/castilian_match_interrogative-total-yn_Manuela-vende-el-carro.wav,,,,,,,,,,,,,,,,,,,,,,344.629,347.057,1,1,1.922,,0,60,60,2,1,0,castilian,,,,,,,,,,,,,,,,,,,,,,,,,,,,,,,,,,,,,,,,,,,,,,,,,,,,,,,,
,,,,,,,,,671efcc199e22fc57bff41aa,Spanish,13 or older,"no, only English or Spanish",no,2025-08-12_15h18.26.593,empathy_intonation_perc,2024.2.4,Win32,60.0240096,671efcc199e22fc57bff41aa,687ed1b7e638a4cbf2f02089,689b936c0fd5984874e9f9eb,,,,,,,,,,,,,58,0,,./stim/wavs/mexican_match_declarative-broad-focus_Daniel-iba-a-Bolivia.wav,,,,,,,,,,,,,,,,,,,,,,347.058,349.34,0,1,1.748,,0,61,61,57,1,0,mexican,,,,,,,,,,,,,,,,,,,,,,,,,,,,,,,,,,,,,,,,,,,,,,,,,,,,,,,,
,,,,,,,,,671efcc199e22fc57bff41aa,Spanish,13 or older,"no, only English or Spanish",no,2025-08-12_15h18.26.593,empathy_intonation_perc,2024.2.4,Win32,60.0240096,671efcc199e22fc57bff41aa,687ed1b7e638a4cbf2f02089,689b936c0fd5984874e9f9eb,,,,,,,,,,,,,1,1,,./stim/wavs/castilian_match_interrogative-total-yn_David-leia-el-libro.wav,,,,,,,,,,,,,,,,,,,,,,349.343,351.824,1,1,1.97,,0,62,62,0,1,0,castilian,,,,,,,,,,,,,,,,,,,,,,,,,,,,,,,,,,,,,,,,,,,,,,,,,,,,,,,,
,,,,,,,,,671efcc199e22fc57bff41aa,Spanish,13 or older,"no, only English or Spanish",no,2025-08-12_15h18.26.593,empathy_intonation_perc,2024.2.4,Win32,60.0240096,671efcc199e22fc57bff41aa,687ed1b7e638a4cbf2f02089,689b936c0fd5984874e9f9eb,,,,,,,,,,,,,31,1,,./stim/wavs/cuban_mismatch_interrogative-total-yn_El-nino-oye-el-rio.wav,,,,,,,,,,,,,,,,,,,,,,351.825,354.128,0,0,1.787,,0,63,63,30,1,1,cuban,,,,,,,,,,,,,,,,,,,,,,,,,,,,,,,,,,,,,,,,,,,,,,,,,,,,,,,,
,,,,,,,,,671efcc199e22fc57bff41aa,Spanish,13 or older,"no, only English or Spanish",no,2025-08-12_15h18.26.593,empathy_intonation_perc,2024.2.4,Win32,60.0240096,671efcc199e22fc57bff41aa,687ed1b7e638a4cbf2f02089,689b936c0fd5984874e9f9eb,,,,,,,,,,,,,36,1,,./stim/wavs/mexican_mismatch_interrogative-total-yn_El-nino-oye-el-rio.wav,,,,,,,,,,,,,,,,,,,,,,354.129,356.407,1,1,1.754,,0,64,64,35,1,0,mexican,,,,,,,,,,,,,,,,,,,,,,,,,,,,,,,,,,,,,,,,,,,,,,,,,,,,,,,,
,,,,,,,,,671efcc199e22fc57bff41aa,Spanish,13 or older,"no, only English or Spanish",no,2025-08-12_15h18.26.593,empathy_intonation_perc,2024.2.4,Win32,60.0240096,671efcc199e22fc57bff41aa,687ed1b7e638a4cbf2f02089,689b936c0fd5984874e9f9eb,,,,,,,,,,,,,88,0,,./stim/wavs/puertorican_mismatch_declarative-broad-focus_La-nina-lava-el-plato.wav,,,,,,,,,,,,,,,,,,,,,,356.408,358.591,0,1,1.662,,0,65,65,87,1,0,puertorican,,,,,,,,,,,,,,,,,,,,,,,,,,,,,,,,,,,,,,,,,,,,,,,,,,,,,,,,
,,,,,,,,,671efcc199e22fc57bff41aa,Spanish,13 or older,"no, only English or Spanish",no,2025-08-12_15h18.26.593,empathy_intonation_perc,2024.2.4,Win32,60.0240096,671efcc199e22fc57bff41aa,687ed1b7e638a4cbf2f02089,689b936c0fd5984874e9f9eb,,,,,,,,,,,,,86,0,,./stim/wavs/puertorican_mismatch_declarative-broad-focus_El-nino-oye-el-rio.wav,,,,,,,,,,,,,,,,,,,,,,358.591,360.841,0,1,1.74,,0,66,66,85,1,0,puertorican,,,,,,,,,,,,,,,,,,,,,,,,,,,,,,,,,,,,,,,,,,,,,,,,,,,,,,,,
,,,,,,,,,671efcc199e22fc57bff41aa,Spanish,13 or older,"no, only English or Spanish",no,2025-08-12_15h18.26.593,empathy_intonation_perc,2024.2.4,Win32,60.0240096,671efcc199e22fc57bff41aa,687ed1b7e638a4cbf2f02089,689b936c0fd5984874e9f9eb,,,,,,,,,,,,,13,1,,./stim/wavs/mexican_match_interrogative-total-yn_Ana-lleva-el-abrigo.wav,,,,,,,,,,,,,,,,,,,,,,360.845,363.357,1,1,1.99,,0,67,67,12,1,0,mexican,,,,,,,,,,,,,,,,,,,,,,,,,,,,,,,,,,,,,,,,,,,,,,,,,,,,,,,,
,,,,,,,,,671efcc199e22fc57bff41aa,Spanish,13 or older,"no, only English or Spanish",no,2025-08-12_15h18.26.593,empathy_intonation_perc,2024.2.4,Win32,60.0240096,671efcc199e22fc57bff41aa,687ed1b7e638a4cbf2f02089,689b936c0fd5984874e9f9eb,,,,,,,,,,,,,71,0,,./stim/wavs/castilian_mismatch_declarative-broad-focus_La-nina-lava-el-plato.wav,,,,,,,,,,,,,,,,,,,,,,363.36,366.074,0,1,2.197,,0,68,68,70,1,0,castilian,,,,,,,,,,,,,,,,,,,,,,,,,,,,,,,,,,,,,,,,,,,,,,,,,,,,,,,,
,,,,,,,,,671efcc199e22fc57bff41aa,Spanish,13 or older,"no, only English or Spanish",no,2025-08-12_15h18.26.593,empathy_intonation_perc,2024.2.4,Win32,60.0240096,671efcc199e22fc57bff41aa,687ed1b7e638a4cbf2f02089,689b936c0fd5984874e9f9eb,,,,,,,,,,,,,19,1,,./stim/wavs/puertorican_match_interrogative-total-yn_Ana-lleva-el-abrigo.wav,,,,,,,,,,,,,,,,,,,,,,366.076,368.925,0,0,2.325,,0,69,69,18,1,1,puertorican,,,,,,,,,,,,,,,,,,,,,,,,,,,,,,,,,,,,,,,,,,,,,,,,,,,,,,,,
,,,,,,,,,671efcc199e22fc57bff41aa,Spanish,13 or older,"no, only English or Spanish",no,2025-08-12_15h18.26.593,empathy_intonation_perc,2024.2.4,Win32,60.0240096,671efcc199e22fc57bff41aa,687ed1b7e638a4cbf2f02089,689b936c0fd5984874e9f9eb,,,,,,,,,,,,,70,0,,./stim/wavs/castilian_mismatch_declarative-broad-focus_La-maestra-vive-en-Paris.wav,,,,,,,,,,,,,,,,,,,,,,368.926,371.557,0,1,2.119,,0,70,70,69,1,0,castilian,,,,,,,,,,,,,,,,,,,,,,,,,,,,,,,,,,,,,,,,,,,,,,,,,,,,,,,,
,,,,,,,,,671efcc199e22fc57bff41aa,Spanish,13 or older,"no, only English or Spanish",no,2025-08-12_15h18.26.593,empathy_intonation_perc,2024.2.4,Win32,60.0240096,671efcc199e22fc57bff41aa,687ed1b7e638a4cbf2f02089,689b936c0fd5984874e9f9eb,,,,,,,,,,,,,32,1,,./stim/wavs/cuban_mismatch_interrogative-total-yn_Mi-madre-come-la-fruta.wav,,,,,,,,,,,,,,,,,,,,,,371.558,374.207,0,0,2.116,,0,71,71,31,1,1,cuban,,,,,,,,,,,,,,,,,,,,,,,,,,,,,,,,,,,,,,,,,,,,,,,,,,,,,,,,
,,,,,,,,,671efcc199e22fc57bff41aa,Spanish,13 or older,"no, only English or Spanish",no,2025-08-12_15h18.26.593,empathy_intonation_perc,2024.2.4,Win32,60.0240096,671efcc199e22fc57bff41aa,687ed1b7e638a4cbf2f02089,689b936c0fd5984874e9f9eb,,,,,,,,,,,,,15,1,,./stim/wavs/mexican_match_interrogative-total-yn_David-leia-el-libro.wav,,,,,,,,,,,,,,,,,,,,,,374.208,376.49,1,1,1.77,,0,72,72,14,1,0,mexican,,,,,,,,,,,,,,,,,,,,,,,,,,,,,,,,,,,,,,,,,,,,,,,,,,,,,,,,
,,,,,,,,,671efcc199e22fc57bff41aa,Spanish,13 or older,"no, only English or Spanish",no,2025-08-12_15h18.26.593,empathy_intonation_perc,2024.2.4,Win32,60.0240096,671efcc199e22fc57bff41aa,687ed1b7e638a4cbf2f02089,689b936c0fd5984874e9f9eb,,,,,,,,,,,,,25,1,,./stim/wavs/castilian_mismatch_interrogative-total-yn_La-maestra-vive-en-Paris.wav,,,,,,,,,,,,,,,,,,,,,,376.491,379.363,1,1,2.364,,0,73,73,24,1,0,castilian,,,,,,,,,,,,,,,,,,,,,,,,,,,,,,,,,,,,,,,,,,,,,,,,,,,,,,,,
,,,,,,,,,671efcc199e22fc57bff41aa,Spanish,13 or older,"no, only English or Spanish",no,2025-08-12_15h18.26.593,empathy_intonation_perc,2024.2.4,Win32,60.0240096,671efcc199e22fc57bff41aa,687ed1b7e638a4cbf2f02089,689b936c0fd5984874e9f9eb,,,,,,,,,,,,,62,0,,./stim/wavs/mexican_match_declarative-broad-focus_Marta-abre-el-regalo.wav,,,,,,,,,,,,,,,,,,,,,,379.364,381.741,0,1,1.854,,0,74,74,61,1,0,mexican,,,,,,,,,,,,,,,,,,,,,,,,,,,,,,,,,,,,,,,,,,,,,,,,,,,,,,,,
,,,,,,,,,671efcc199e22fc57bff41aa,Spanish,13 or older,"no, only English or Spanish",no,2025-08-12_15h18.26.593,empathy_intonation_perc,2024.2.4,Win32,60.0240096,671efcc199e22fc57bff41aa,687ed1b7e638a4cbf2f02089,689b936c0fd5984874e9f9eb,,,,,,,,,,,,,55,0,,./stim/wavs/cuban_match_declarative-broad-focus_Mariano-habla-del-tiempo.wav,,,,,,,,,,,,,,,,,,,,,,381.744,384.324,0,1,2.053,,0,75,75,54,1,0,cuban,,,,,,,,,,,,,,,,,,,,,,,,,,,,,,,,,,,,,,,,,,,,,,,,,,,,,,,,
,,,,,,,,,671efcc199e22fc57bff41aa,Spanish,13 or older,"no, only English or Spanish",no,2025-08-12_15h18.26.593,empathy_intonation_perc,2024.2.4,Win32,60.0240096,671efcc199e22fc57bff41aa,687ed1b7e638a4cbf2f02089,689b936c0fd5984874e9f9eb,,,,,,,,,,,,,56,0,,./stim/wavs/cuban_match_declarative-broad-focus_Marta-abre-el-regalo.wav,,,,,,,,,,,,,,,,,,,,,,384.326,386.724,0,1,1.871,,0,76,76,55,1,0,cuban,,,,,,,,,,,,,,,,,,,,,,,,,,,,,,,,,,,,,,,,,,,,,,,,,,,,,,,,
,,,,,,,,,671efcc199e22fc57bff41aa,Spanish,13 or older,"no, only English or Spanish",no,2025-08-12_15h18.26.593,empathy_intonation_perc,2024.2.4,Win32,60.0240096,671efcc199e22fc57bff41aa,687ed1b7e638a4cbf2f02089,689b936c0fd5984874e9f9eb,,,,,,,,,,,,,33,1,,./stim/wavs/cuban_mismatch_interrogative-total-yn_Mi-novio-viene-del-lago.wav,,,,,,,,,,,,,,,,,,,,,,386.727,389.096,0,0,1.834,,0,77,77,32,1,1,cuban,,,,,,,,,,,,,,,,,,,,,,,,,,,,,,,,,,,,,,,,,,,,,,,,,,,,,,,,
,,,,,,,,,671efcc199e22fc57bff41aa,Spanish,13 or older,"no, only English or Spanish",no,2025-08-12_15h18.26.593,empathy_intonation_perc,2024.2.4,Win32,60.0240096,671efcc199e22fc57bff41aa,687ed1b7e638a4cbf2f02089,689b936c0fd5984874e9f9eb,,,,,,,,,,,,,38,1,,./stim/wavs/mexican_mismatch_interrogative-total-yn_Mi-novio-viene-del-lago.wav,,,,,,,,,,,,,,,,,,,,,,389.096,391.691,1,1,2.075,,0,78,78,37,1,0,mexican,,,,,,,,,,,,,,,,,,,,,,,,,,,,,,,,,,,,,,,,,,,,,,,,,,,,,,,,
,,,,,,,,,671efcc199e22fc57bff41aa,Spanish,13 or older,"no, only English or Spanish",no,2025-08-12_15h18.26.593,empathy_intonation_perc,2024.2.4,Win32,60.0240096,671efcc199e22fc57bff41aa,687ed1b7e638a4cbf2f02089,689b936c0fd5984874e9f9eb,,,,,,,,,,,,,48,0,,./stim/wavs/castilian_match_declarative-broad-focus_Maria-bebe-el-vino.wav,,,,,,,,,,,,,,,,,,,,,,391.693,394.064,0,1,1.857,,0,79,79,47,1,0,castilian,,,,,,,,,,,,,,,,,,,,,,,,,,,,,,,,,,,,,,,,,,,,,,,,,,,,,,,,
,,,,,,,,,671efcc199e22fc57bff41aa,Spanish,13 or older,"no, only English or Spanish",no,2025-08-12_15h18.26.593,empathy_intonation_perc,2024.2.4,Win32,60.0240096,671efcc199e22fc57bff41aa,687ed1b7e638a4cbf2f02089,689b936c0fd5984874e9f9eb,,,,,,,,,,,,,64,0,,./stim/wavs/puertorican_match_declarative-broad-focus_Daniel-iba-a-Bolivia.wav,,,,,,,,,,,,,,,,,,,,,,394.065,396.325,0,1,1.73,,0,80,80,63,1,0,puertorican,,,,,,,,,,,,,,,,,,,,,,,,,,,,,,,,,,,,,,,,,,,,,,,,,,,,,,,,
,,,,,,,,,671efcc199e22fc57bff41aa,Spanish,13 or older,"no, only English or Spanish",no,2025-08-12_15h18.26.593,empathy_intonation_perc,2024.2.4,Win32,60.0240096,671efcc199e22fc57bff41aa,687ed1b7e638a4cbf2f02089,689b936c0fd5984874e9f9eb,,,,,,,,,,,,,65,0,,./stim/wavs/puertorican_match_declarative-broad-focus_David-leia-el-libro.wav,,,,,,,,,,,,,,,,,,,,,,396.325,398.648,0,1,1.796,,0,81,81,64,1,0,puertorican,,,,,,,,,,,,,,,,,,,,,,,,,,,,,,,,,,,,,,,,,,,,,,,,,,,,,,,,
,,,,,,,,,671efcc199e22fc57bff41aa,Spanish,13 or older,"no, only English or Spanish",no,2025-08-12_15h18.26.593,empathy_intonation_perc,2024.2.4,Win32,60.0240096,671efcc199e22fc57bff41aa,687ed1b7e638a4cbf2f02089,689b936c0fd5984874e9f9eb,,,,,,,,,,,,,45,0,,./stim/wavs/castilian_match_declarative-broad-focus_David-leia-el-libro.wav,,,,,,,,,,,,,,,,,,,,,,398.65,401.141,0,1,1.968,,0,82,82,44,1,0,castilian,,,,,,,,,,,,,,,,,,,,,,,,,,,,,,,,,,,,,,,,,,,,,,,,,,,,,,,,
,,,,,,,,,671efcc199e22fc57bff41aa,Spanish,13 or older,"no, only English or Spanish",no,2025-08-12_15h18.26.593,empathy_intonation_perc,2024.2.4,Win32,60.0240096,671efcc199e22fc57bff41aa,687ed1b7e638a4cbf2f02089,689b936c0fd5984874e9f9eb,,,,,,,,,,,,,46,0,,./stim/wavs/castilian_match_declarative-broad-focus_Emilio-ama-la-marcha.wav,,,,,,,,,,,,,,,,,,,,,,401.142,403.648,0,1,1.982,,0,83,83,45,1,0,castilian,,,,,,,,,,,,,,,,,,,,,,,,,,,,,,,,,,,,,,,,,,,,,,,,,,,,,,,,
,,,,,,,,,671efcc199e22fc57bff41aa,Spanish,13 or older,"no, only English or Spanish",no,2025-08-12_15h18.26.593,empathy_intonation_perc,2024.2.4,Win32,60.0240096,671efcc199e22fc57bff41aa,687ed1b7e638a4cbf2f02089,689b936c0fd5984874e9f9eb,,,,,,,,,,,,,23,1,,./stim/wavs/puertorican_match_interrogative-total-yn_Manuela-vende-el-carro.wav,,,,,,,,,,,,,,,,,,,,,,403.649,406.408,0,0,2.232,,0,84,84,22,1,1,puertorican,,,,,,,,,,,,,,,,,,,,,,,,,,,,,,,,,,,,,,,,,,,,,,,,,,,,,,,,
,,,,,,,,,671efcc199e22fc57bff41aa,Spanish,13 or older,"no, only English or Spanish",no,2025-08-12_15h18.26.593,empathy_intonation_perc,2024.2.4,Win32,60.0240096,671efcc199e22fc57bff41aa,687ed1b7e638a4cbf2f02089,689b936c0fd5984874e9f9eb,,,,,,,,,,,,,57,0,,./stim/wavs/mexican_match_declarative-broad-focus_Ana-lleva-el-abrigo.wav,,,,,,,,,,,,,,,,,,,,,,406.41,408.674,0,1,1.733,,0,85,85,56,1,0,mexican,,,,,,,,,,,,,,,,,,,,,,,,,,,,,,,,,,,,,,,,,,,,,,,,,,,,,,,,
,,,,,,,,,671efcc199e22fc57bff41aa,Spanish,13 or older,"no, only English or Spanish",no,2025-08-12_15h18.26.593,empathy_intonation_perc,2024.2.4,Win32,60.0240096,671efcc199e22fc57bff41aa,687ed1b7e638a4cbf2f02089,689b936c0fd5984874e9f9eb,,,,,,,,,,,,,83,0,,./stim/wavs/mexican_mismatch_declarative-broad-focus_Mi-tia-odia-la-lluvia.wav,,,,,,,,,,,,,,,,,,,,,,408.675,410.908,0,1,1.722,,0,86,86,82,1,0,mexican,,,,,,,,,,,,,,,,,,,,,,,,,,,,,,,,,,,,,,,,,,,,,,,,,,,,,,,,
,,,,,,,,,671efcc199e22fc57bff41aa,Spanish,13 or older,"no, only English or Spanish",no,2025-08-12_15h18.26.593,empathy_intonation_perc,2024.2.4,Win32,60.0240096,671efcc199e22fc57bff41aa,687ed1b7e638a4cbf2f02089,689b936c0fd5984874e9f9eb,,,,,,,,,,,,,5,1,,./stim/wavs/castilian_match_interrogative-total-yn_Mariano-habla-del-tiempo.wav,,,,,,,,,,,,,,,,,,,,,,410.908,413.657,1,1,2.236,,0,87,87,4,1,0,castilian,,,,,,,,,,,,,,,,,,,,,,,,,,,,,,,,,,,,,,,,,,,,,,,,,,,,,,,,
,,,,,,,"Great! Now we will move on. The next task consists of about 60 trials, in each of which you will see a string of letters. 
  
  Your task is to decide whether this is a real Spanish word or not.", (press the spacebar to continue),671efcc199e22fc57bff41aa,Spanish,13 or older,"no, only English or Spanish",no,2025-08-12_15h18.26.593,empathy_intonation_perc,2024.2.4,Win32,60.0240096,671efcc199e22fc57bff41aa,687ed1b7e638a4cbf2f02089,689b936c0fd5984874e9f9eb,,,,,,,,,,,,,,,,,,,,,,,,,,,,,,,,,,,,,,,,,,,,,,,,,,,413.666,418.958,0,0,0,0,1,,,,,,,,,,,,,,,,,,,,,,,,,,,,,,,,,,,,,,,,,,,,,,,,,
,,,,,,,"If you think it is an existing Spanish word, you type '1' (for 'REAL'), and if you think it is not an existing Spanish word, you type '0' (for 'FAKE').", (press the spacebar to continue),671efcc199e22fc57bff41aa,Spanish,13 or older,"no, only English or Spanish",no,2025-08-12_15h18.26.593,empathy_intonation_perc,2024.2.4,Win32,60.0240096,671efcc199e22fc57bff41aa,687ed1b7e638a4cbf2f02089,689b936c0fd5984874e9f9eb,,,,,,,,,,,,,,,,,,,,,,,,,,,,,,,,,,,,,,,,,,,,,,,,,,,418.961,420.991,0,1,1,1,1,,,,,,,,,,,,,,,,,,,,,,,,,,,,,,,,,,,,,,,,,,,,,,,,,
,,,,,,,"If you are sure that the word exists, even though you don’t know its exact meaning, you may still respond '1' (REAL). 
  
  But if you are not sure if it is an existing word, you should respond '0' (FAKE).
  
  Let's do a practice round...", (press the spacebar to continue),671efcc199e22fc57bff41aa,Spanish,13 or older,"no, only English or Spanish",no,2025-08-12_15h18.26.593,empathy_intonation_perc,2024.2.4,Win32,60.0240096,671efcc199e22fc57bff41aa,687ed1b7e638a4cbf2f02089,689b936c0fd5984874e9f9eb,,,,,,,,,,,,,,,,,,,,,,,,,,,,,,,,,,,,,,,,,,,,,,,,,,,420.995,427.012,0,2,2,2,1,,,,,,,,,,,,,,,,,,,,,,,,,,,,,,,,,,,,,,,,,,,,,,,,,
,,,,,,,,,671efcc199e22fc57bff41aa,Spanish,13 or older,"no, only English or Spanish",no,2025-08-12_15h18.26.593,empathy_intonation_perc,2024.2.4,Win32,60.0240096,671efcc199e22fc57bff41aa,687ed1b7e638a4cbf2f02089,689b936c0fd5984874e9f9eb,,,,,,,,,,,,,,0,,,,,,,,,,,,,,,,,,,,,,,,,,,,,,,,,,,,,,,,,,,,427.016,429.425,0,1,1.883,,429.425,430.424,0,0,0,0,1,0,depiste,REAL,FAKE,,,,,,,,,,,,,,,,,,,,,,,,,,,,,,,,
,,,,,,,,,671efcc199e22fc57bff41aa,Spanish,13 or older,"no, only English or Spanish",no,2025-08-12_15h18.26.593,empathy_intonation_perc,2024.2.4,Win32,60.0240096,671efcc199e22fc57bff41aa,687ed1b7e638a4cbf2f02089,689b936c0fd5984874e9f9eb,,,,,,,,,,,,,,1,,,,,,,,,,,,,,,,,,,,,,,,,,,,,,,,,,,,,,,,,,,,430.43,431.658,1,1,0.699,,431.658,432.658,0,1,1,1,1,0,sí,REAL,FAKE,,,,,,,,,,,,,,,,,,,,,,,,,,,,,,,,
,,,,,,,,,671efcc199e22fc57bff41aa,Spanish,13 or older,"no, only English or Spanish",no,2025-08-12_15h18.26.593,empathy_intonation_perc,2024.2.4,Win32,60.0240096,671efcc199e22fc57bff41aa,687ed1b7e638a4cbf2f02089,689b936c0fd5984874e9f9eb,,,,,,,,,,,,,,0,,,,,,,,,,,,,,,,,,,,,,,,,,,,,,,,,,,,,,,,,,,,432.662,434.046,0,1,0.852,,434.046,435.042,0,2,2,2,1,0,coné,REAL,FAKE,,,,,,,,,,,,,,,,,,,,,,,,,,,,,,,,
,,,,,,,,,671efcc199e22fc57bff41aa,Spanish,13 or older,"no, only English or Spanish",no,2025-08-12_15h18.26.593,empathy_intonation_perc,2024.2.4,Win32,60.0240096,671efcc199e22fc57bff41aa,687ed1b7e638a4cbf2f02089,689b936c0fd5984874e9f9eb,,,,,,,,,,,,,,0,,,,,,,,,,,,,,,,,,,,,,,,,,,,,,,,,,,,,,,,,,,,435.044,436.324,1,0,0.755,,436.327,437.324,0,3,3,3,1,0,calpar,REAL,FAKE,,,,,,,,,,,,,,,,,,,,,,,,,,,,,,,,
,,,,,,,,,671efcc199e22fc57bff41aa,Spanish,13 or older,"no, only English or Spanish",no,2025-08-12_15h18.26.593,empathy_intonation_perc,2024.2.4,Win32,60.0240096,671efcc199e22fc57bff41aa,687ed1b7e638a4cbf2f02089,689b936c0fd5984874e9f9eb,,,,,,,,,,,,,,0,,,,,,,,,,,,,,,,,,,,,,,,,,,,,,,,,,,,,,,,,,,,437.328,438.958,0,1,1.101,,438.959,439.957,0,4,4,4,1,0,joten,REAL,FAKE,,,,,,,,,,,,,,,,,,,,,,,,,,,,,,,,
,,,,,,,,,671efcc199e22fc57bff41aa,Spanish,13 or older,"no, only English or Spanish",no,2025-08-12_15h18.26.593,empathy_intonation_perc,2024.2.4,Win32,60.0240096,671efcc199e22fc57bff41aa,687ed1b7e638a4cbf2f02089,689b936c0fd5984874e9f9eb,,,,,,,,,,,,,,1,,,,,,,,,,,,,,,,,,,,,,,,,,,,,,,,,,,,,,,,,,,,439.96,441.591,1,1,1.115,,441.591,442.591,0,5,5,5,1,0,sacapuntas,REAL,FAKE,,,,,,,,,,,,,,,,,,,,,,,,,,,,,,,,
,,,,,,,,,671efcc199e22fc57bff41aa,Spanish,13 or older,"no, only English or Spanish",no,2025-08-12_15h18.26.593,empathy_intonation_perc,2024.2.4,Win32,60.0240096,671efcc199e22fc57bff41aa,687ed1b7e638a4cbf2f02089,689b936c0fd5984874e9f9eb,,,,,,,,,,,,,,0,,,,,,,,,,,,,,,,,,,,,,,,,,,,,,,,,,,,,,,,,,,,442.593,443.924,1,0,0.807,,443.926,444.924,0,6,6,6,1,0,priba,REAL,FAKE,,,,,,,,,,,,,,,,,,,,,,,,,,,,,,,,
,,,,,,,,,671efcc199e22fc57bff41aa,Spanish,13 or older,"no, only English or Spanish",no,2025-08-12_15h18.26.593,empathy_intonation_perc,2024.2.4,Win32,60.0240096,671efcc199e22fc57bff41aa,687ed1b7e638a4cbf2f02089,689b936c0fd5984874e9f9eb,,,,,,,,,,,,,,0,,,,,,,,,,,,,,,,,,,,,,,,,,,,,,,,,,,,,,,,,,,,444.926,446.179,1,0,0.736,,446.18,447.174,0,7,7,7,1,0,pelasula,REAL,FAKE,,,,,,,,,,,,,,,,,,,,,,,,,,,,,,,,
,,,,,,,,,671efcc199e22fc57bff41aa,Spanish,13 or older,"no, only English or Spanish",no,2025-08-12_15h18.26.593,empathy_intonation_perc,2024.2.4,Win32,60.0240096,671efcc199e22fc57bff41aa,687ed1b7e638a4cbf2f02089,689b936c0fd5984874e9f9eb,,,,,,,,,,,,,,1,,,,,,,,,,,,,,,,,,,,,,,,,,,,,,,,,,,,,,,,,,,,447.176,448.358,1,1,0.67,,448.359,449.358,0,8,8,8,1,0,bien,REAL,FAKE,,,,,,,,,,,,,,,,,,,,,,,,,,,,,,,,
,,,,,,,,,671efcc199e22fc57bff41aa,Spanish,13 or older,"no, only English or Spanish",no,2025-08-12_15h18.26.593,empathy_intonation_perc,2024.2.4,Win32,60.0240096,671efcc199e22fc57bff41aa,687ed1b7e638a4cbf2f02089,689b936c0fd5984874e9f9eb,,,,,,,,,,,,,,1,,,,,,,,,,,,,,,,,,,,,,,,,,,,,,,,,,,,,,,,,,,,449.359,450.541,1,1,0.663,,450.541,451.531,0,9,9,9,1,0,casa,REAL,FAKE,,,,,,,,,,,,,,,,,,,,,,,,,,,,,,,,
,,,,,,,,,671efcc199e22fc57bff41aa,Spanish,13 or older,"no, only English or Spanish",no,2025-08-12_15h18.26.593,empathy_intonation_perc,2024.2.4,Win32,60.0240096,671efcc199e22fc57bff41aa,687ed1b7e638a4cbf2f02089,689b936c0fd5984874e9f9eb,,,,,,,,,,,,,,0,,,,,,,,,,,,,,,,,,,,,,,,,,,,,,,,,,,,,,,,,,,,451.532,454.274,1,0,2.222,,454.276,455.264,0,10,10,10,1,0,lejo,REAL,FAKE,,,,,,,,,,,,,,,,,,,,,,,,,,,,,,,,
,,,,,,,,,671efcc199e22fc57bff41aa,Spanish,13 or older,"no, only English or Spanish",no,2025-08-12_15h18.26.593,empathy_intonation_perc,2024.2.4,Win32,60.0240096,671efcc199e22fc57bff41aa,687ed1b7e638a4cbf2f02089,689b936c0fd5984874e9f9eb,,,,,,,,,,,,,,0,,,,,,,,,,,,,,,,,,,,,,,,,,,,,,,,,,,,,,,,,,,,455.265,456.849,1,0,1.066,,456.849,457.841,0,11,11,11,1,0,pretantas,REAL,FAKE,,,,,,,,,,,,,,,,,,,,,,,,,,,,,,,,
,,,,,,,,,671efcc199e22fc57bff41aa,Spanish,13 or older,"no, only English or Spanish",no,2025-08-12_15h18.26.593,empathy_intonation_perc,2024.2.4,Win32,60.0240096,671efcc199e22fc57bff41aa,687ed1b7e638a4cbf2f02089,689b936c0fd5984874e9f9eb,,,,,,,,,,,,,,,,,,,,,,,,,,,,,,,,,,,,,,,,,,,,,,,,,,,,,,,,,,,,,,,,,,,,,,,,,,,457.841,458.808,,,,,,,,,,,,,,,,,,,,,,,,,,,,,,
,,,,,,,,,671efcc199e22fc57bff41aa,Spanish,13 or older,"no, only English or Spanish",no,2025-08-12_15h18.26.593,empathy_intonation_perc,2024.2.4,Win32,60.0240096,671efcc199e22fc57bff41aa,687ed1b7e638a4cbf2f02089,689b936c0fd5984874e9f9eb,,,,,,,,,,,,,,1,,,,,,,,,,,,,,,,,,,,,,,,,,,,,,,,,,,,,,,,,,,,,,,,,,,,,,,,,24,látigo,,,,,458.82,460.174,1,1,0.838,,0,0,0,23,1,REAL,FAKE,,,,,,,,,,,,,,,,,
,,,,,,,,,671efcc199e22fc57bff41aa,Spanish,13 or older,"no, only English or Spanish",no,2025-08-12_15h18.26.593,empathy_intonation_perc,2024.2.4,Win32,60.0240096,671efcc199e22fc57bff41aa,687ed1b7e638a4cbf2f02089,689b936c0fd5984874e9f9eb,,,,,,,,,,,,,,1,,,,,,,,,,,,,,,,,,,,,,,,,,,,,,,,,,,,,,,,,,,,,,,,,,,,,,,,,86,barato,,,,,460.177,461.558,1,1,0.848,,0,1,1,85,1,REAL,FAKE,,,,,,,,,,,,,,,,,
,,,,,,,,,671efcc199e22fc57bff41aa,Spanish,13 or older,"no, only English or Spanish",no,2025-08-12_15h18.26.593,empathy_intonation_perc,2024.2.4,Win32,60.0240096,671efcc199e22fc57bff41aa,687ed1b7e638a4cbf2f02089,689b936c0fd5984874e9f9eb,,,,,,,,,,,,,,1,,,,,,,,,,,,,,,,,,,,,,,,,,,,,,,,,,,,,,,,,,,,,,,,,,,,,,,,,52,camisa,,,,,461.562,463.247,0,0,1.154,,0,2,2,51,1,REAL,FAKE,,,,,,,,,,,,,,,,,
,,,,,,,,,671efcc199e22fc57bff41aa,Spanish,13 or older,"no, only English or Spanish",no,2025-08-12_15h18.26.593,empathy_intonation_perc,2024.2.4,Win32,60.0240096,671efcc199e22fc57bff41aa,687ed1b7e638a4cbf2f02089,689b936c0fd5984874e9f9eb,,,,,,,,,,,,,,1,,,,,,,,,,,,,,,,,,,,,,,,,,,,,,,,,,,,,,,,,,,,,,,,,,,,,,,,,57,tacaño,,,,,463.248,464.557,1,1,0.784,,0,3,3,56,1,REAL,FAKE,,,,,,,,,,,,,,,,,
,,,,,,,,,671efcc199e22fc57bff41aa,Spanish,13 or older,"no, only English or Spanish",no,2025-08-12_15h18.26.593,empathy_intonation_perc,2024.2.4,Win32,60.0240096,671efcc199e22fc57bff41aa,687ed1b7e638a4cbf2f02089,689b936c0fd5984874e9f9eb,,,,,,,,,,,,,,1,,,,,,,,,,,,,,,,,,,,,,,,,,,,,,,,,,,,,,,,,,,,,,,,,,,,,,,,,39,torpe,,,,,464.561,466.208,1,1,1.134,,0,4,4,38,1,REAL,FAKE,,,,,,,,,,,,,,,,,
,,,,,,,,,671efcc199e22fc57bff41aa,Spanish,13 or older,"no, only English or Spanish",no,2025-08-12_15h18.26.593,empathy_intonation_perc,2024.2.4,Win32,60.0240096,671efcc199e22fc57bff41aa,687ed1b7e638a4cbf2f02089,689b936c0fd5984874e9f9eb,,,,,,,,,,,,,,1,,,,,,,,,,,,,,,,,,,,,,,,,,,,,,,,,,,,,,,,,,,,,,,,,,,,,,,,,40,alfombra,,,,,466.212,467.874,1,1,1.135,,0,5,5,39,1,REAL,FAKE,,,,,,,,,,,,,,,,,
,,,,,,,,,671efcc199e22fc57bff41aa,Spanish,13 or older,"no, only English or Spanish",no,2025-08-12_15h18.26.593,empathy_intonation_perc,2024.2.4,Win32,60.0240096,671efcc199e22fc57bff41aa,687ed1b7e638a4cbf2f02089,689b936c0fd5984874e9f9eb,,,,,,,,,,,,,,1,,,,,,,,,,,,,,,,,,,,,,,,,,,,,,,,,,,,,,,,,,,,,,,,,,,,,,,,,85,laúd,,,,,467.878,469.147,0,0,0.757,,0,6,6,84,1,REAL,FAKE,,,,,,,,,,,,,,,,,
,,,,,,,,,671efcc199e22fc57bff41aa,Spanish,13 or older,"no, only English or Spanish",no,2025-08-12_15h18.26.593,empathy_intonation_perc,2024.2.4,Win32,60.0240096,671efcc199e22fc57bff41aa,687ed1b7e638a4cbf2f02089,689b936c0fd5984874e9f9eb,,,,,,,,,,,,,,1,,,,,,,,,,,,,,,,,,,,,,,,,,,,,,,,,,,,,,,,,,,,,,,,,,,,,,,,,80,hormiga,,,,,469.148,471.14,0,0,1.468,,0,7,7,79,1,REAL,FAKE,,,,,,,,,,,,,,,,,
,,,,,,,,,671efcc199e22fc57bff41aa,Spanish,13 or older,"no, only English or Spanish",no,2025-08-12_15h18.26.593,empathy_intonation_perc,2024.2.4,Win32,60.0240096,671efcc199e22fc57bff41aa,687ed1b7e638a4cbf2f02089,689b936c0fd5984874e9f9eb,,,,,,,,,,,,,,1,,,,,,,,,,,,,,,,,,,,,,,,,,,,,,,,,,,,,,,,,,,,,,,,,,,,,,,,,22,lacayo,,,,,471.144,472.465,0,0,0.8,,0,8,8,21,1,REAL,FAKE,,,,,,,,,,,,,,,,,
,,,,,,,,,671efcc199e22fc57bff41aa,Spanish,13 or older,"no, only English or Spanish",no,2025-08-12_15h18.26.593,empathy_intonation_perc,2024.2.4,Win32,60.0240096,671efcc199e22fc57bff41aa,687ed1b7e638a4cbf2f02089,689b936c0fd5984874e9f9eb,,,,,,,,,,,,,,1,,,,,,,,,,,,,,,,,,,,,,,,,,,,,,,,,,,,,,,,,,,,,,,,,,,,,,,,,89,prisa,,,,,472.466,473.908,1,1,0.933,,0,9,9,88,1,REAL,FAKE,,,,,,,,,,,,,,,,,
,,,,,,,,,671efcc199e22fc57bff41aa,Spanish,13 or older,"no, only English or Spanish",no,2025-08-12_15h18.26.593,empathy_intonation_perc,2024.2.4,Win32,60.0240096,671efcc199e22fc57bff41aa,687ed1b7e638a4cbf2f02089,689b936c0fd5984874e9f9eb,,,,,,,,,,,,,,1,,,,,,,,,,,,,,,,,,,,,,,,,,,,,,,,,,,,,,,,,,,,,,,,,,,,,,,,,69,engatusar,,,,,473.91,475.307,1,1,0.866,,0,10,10,68,1,REAL,FAKE,,,,,,,,,,,,,,,,,
,,,,,,,,,671efcc199e22fc57bff41aa,Spanish,13 or older,"no, only English or Spanish",no,2025-08-12_15h18.26.593,empathy_intonation_perc,2024.2.4,Win32,60.0240096,671efcc199e22fc57bff41aa,687ed1b7e638a4cbf2f02089,689b936c0fd5984874e9f9eb,,,,,,,,,,,,,,0,,,,,,,,,,,,,,,,,,,,,,,,,,,,,,,,,,,,,,,,,,,,,,,,,,,,,,,,,8,cadeña,,,,,475.31,476.515,1,0,0.672,,0,11,11,7,1,REAL,FAKE,,,,,,,,,,,,,,,,,
,,,,,,,,,671efcc199e22fc57bff41aa,Spanish,13 or older,"no, only English or Spanish",no,2025-08-12_15h18.26.593,empathy_intonation_perc,2024.2.4,Win32,60.0240096,671efcc199e22fc57bff41aa,687ed1b7e638a4cbf2f02089,689b936c0fd5984874e9f9eb,,,,,,,,,,,,,,1,,,,,,,,,,,,,,,,,,,,,,,,,,,,,,,,,,,,,,,,,,,,,,,,,,,,,,,,,61,seda,,,,,476.516,477.724,1,1,0.701,,0,12,12,60,1,REAL,FAKE,,,,,,,,,,,,,,,,,
,,,,,,,,,671efcc199e22fc57bff41aa,Spanish,13 or older,"no, only English or Spanish",no,2025-08-12_15h18.26.593,empathy_intonation_perc,2024.2.4,Win32,60.0240096,671efcc199e22fc57bff41aa,687ed1b7e638a4cbf2f02089,689b936c0fd5984874e9f9eb,,,,,,,,,,,,,,1,,,,,,,,,,,,,,,,,,,,,,,,,,,,,,,,,,,,,,,,,,,,,,,,,,,,,,,,,76,atar,,,,,477.727,479.125,0,0,0.867,,0,13,13,75,1,REAL,FAKE,,,,,,,,,,,,,,,,,
,,,,,,,,,671efcc199e22fc57bff41aa,Spanish,13 or older,"no, only English or Spanish",no,2025-08-12_15h18.26.593,empathy_intonation_perc,2024.2.4,Win32,60.0240096,671efcc199e22fc57bff41aa,687ed1b7e638a4cbf2f02089,689b936c0fd5984874e9f9eb,,,,,,,,,,,,,,0,,,,,,,,,,,,,,,,,,,,,,,,,,,,,,,,,,,,,,,,,,,,,,,,,,,,,,,,,50,flamida,,,,,479.127,480.691,0,1,1.032,,0,14,14,49,1,REAL,FAKE,,,,,,,,,,,,,,,,,
,,,,,,,,,671efcc199e22fc57bff41aa,Spanish,13 or older,"no, only English or Spanish",no,2025-08-12_15h18.26.593,empathy_intonation_perc,2024.2.4,Win32,60.0240096,671efcc199e22fc57bff41aa,687ed1b7e638a4cbf2f02089,689b936c0fd5984874e9f9eb,,,,,,,,,,,,,,1,,,,,,,,,,,,,,,,,,,,,,,,,,,,,,,,,,,,,,,,,,,,,,,,,,,,,,,,,59,besar,,,,,480.693,482.024,1,1,0.824,,0,15,15,58,1,REAL,FAKE,,,,,,,,,,,,,,,,,
,,,,,,,,,671efcc199e22fc57bff41aa,Spanish,13 or older,"no, only English or Spanish",no,2025-08-12_15h18.26.593,empathy_intonation_perc,2024.2.4,Win32,60.0240096,671efcc199e22fc57bff41aa,687ed1b7e638a4cbf2f02089,689b936c0fd5984874e9f9eb,,,,,,,,,,,,,,1,,,,,,,,,,,,,,,,,,,,,,,,,,,,,,,,,,,,,,,,,,,,,,,,,,,,,,,,,56,musgo,,,,,482.028,483.63,0,0,1.09,,0,16,16,55,1,REAL,FAKE,,,,,,,,,,,,,,,,,
,,,,,,,,,671efcc199e22fc57bff41aa,Spanish,13 or older,"no, only English or Spanish",no,2025-08-12_15h18.26.593,empathy_intonation_perc,2024.2.4,Win32,60.0240096,671efcc199e22fc57bff41aa,687ed1b7e638a4cbf2f02089,689b936c0fd5984874e9f9eb,,,,,,,,,,,,,,0,,,,,,,,,,,,,,,,,,,,,,,,,,,,,,,,,,,,,,,,,,,,,,,,,,,,,,,,,1,terzo,,,,,483.63,484.975,0,1,0.815,,0,17,17,0,1,REAL,FAKE,,,,,,,,,,,,,,,,,
,,,,,,,,,671efcc199e22fc57bff41aa,Spanish,13 or older,"no, only English or Spanish",no,2025-08-12_15h18.26.593,empathy_intonation_perc,2024.2.4,Win32,60.0240096,671efcc199e22fc57bff41aa,687ed1b7e638a4cbf2f02089,689b936c0fd5984874e9f9eb,,,,,,,,,,,,,,1,,,,,,,,,,,,,,,,,,,,,,,,,,,,,,,,,,,,,,,,,,,,,,,,,,,,,,,,,68,alegre,,,,,484.976,486.281,1,1,0.77,,0,18,18,67,1,REAL,FAKE,,,,,,,,,,,,,,,,,
,,,,,,,,,671efcc199e22fc57bff41aa,Spanish,13 or older,"no, only English or Spanish",no,2025-08-12_15h18.26.593,empathy_intonation_perc,2024.2.4,Win32,60.0240096,671efcc199e22fc57bff41aa,687ed1b7e638a4cbf2f02089,689b936c0fd5984874e9f9eb,,,,,,,,,,,,,,1,,,,,,,,,,,,,,,,,,,,,,,,,,,,,,,,,,,,,,,,,,,,,,,,,,,,,,,,,9,hacha,,,,,486.282,487.498,1,1,0.687,,0,19,19,8,1,REAL,FAKE,,,,,,,,,,,,,,,,,
,,,,,,,,,671efcc199e22fc57bff41aa,Spanish,13 or older,"no, only English or Spanish",no,2025-08-12_15h18.26.593,empathy_intonation_perc,2024.2.4,Win32,60.0240096,671efcc199e22fc57bff41aa,687ed1b7e638a4cbf2f02089,689b936c0fd5984874e9f9eb,,,,,,,,,,,,,,1,,,,,,,,,,,,,,,,,,,,,,,,,,,,,,,,,,,,,,,,,,,,,,,,,,,,,,,,,67,cabello,,,,,487.498,488.658,1,1,0.634,,0,20,20,66,1,REAL,FAKE,,,,,,,,,,,,,,,,,
,,,,,,,,,671efcc199e22fc57bff41aa,Spanish,13 or older,"no, only English or Spanish",no,2025-08-12_15h18.26.593,empathy_intonation_perc,2024.2.4,Win32,60.0240096,671efcc199e22fc57bff41aa,687ed1b7e638a4cbf2f02089,689b936c0fd5984874e9f9eb,,,,,,,,,,,,,,0,,,,,,,,,,,,,,,,,,,,,,,,,,,,,,,,,,,,,,,,,,,,,,,,,,,,,,,,,74,cintro,,,,,488.659,489.962,1,0,0.778,,0,21,21,73,1,REAL,FAKE,,,,,,,,,,,,,,,,,
,,,,,,,,,671efcc199e22fc57bff41aa,Spanish,13 or older,"no, only English or Spanish",no,2025-08-12_15h18.26.593,empathy_intonation_perc,2024.2.4,Win32,60.0240096,671efcc199e22fc57bff41aa,687ed1b7e638a4cbf2f02089,689b936c0fd5984874e9f9eb,,,,,,,,,,,,,,1,,,,,,,,,,,,,,,,,,,,,,,,,,,,,,,,,,,,,,,,,,,,,,,,,,,,,,,,,15,regar,,,,,489.962,491.391,1,1,0.91,,0,22,22,14,1,REAL,FAKE,,,,,,,,,,,,,,,,,
,,,,,,,,,671efcc199e22fc57bff41aa,Spanish,13 or older,"no, only English or Spanish",no,2025-08-12_15h18.26.593,empathy_intonation_perc,2024.2.4,Win32,60.0240096,671efcc199e22fc57bff41aa,687ed1b7e638a4cbf2f02089,689b936c0fd5984874e9f9eb,,,,,,,,,,,,,,0,,,,,,,,,,,,,,,,,,,,,,,,,,,,,,,,,,,,,,,,,,,,,,,,,,,,,,,,,4,batillón,,,,,491.393,492.875,1,0,0.95,,0,23,23,3,1,REAL,FAKE,,,,,,,,,,,,,,,,,
,,,,,,,,,671efcc199e22fc57bff41aa,Spanish,13 or older,"no, only English or Spanish",no,2025-08-12_15h18.26.593,empathy_intonation_perc,2024.2.4,Win32,60.0240096,671efcc199e22fc57bff41aa,687ed1b7e638a4cbf2f02089,689b936c0fd5984874e9f9eb,,,,,,,,,,,,,,1,,,,,,,,,,,,,,,,,,,,,,,,,,,,,,,,,,,,,,,,,,,,,,,,,,,,,,,,,34,aviso,,,,,492.876,494.632,0,0,1.244,,0,24,24,33,1,REAL,FAKE,,,,,,,,,,,,,,,,,
,,,,,,,,,671efcc199e22fc57bff41aa,Spanish,13 or older,"no, only English or Spanish",no,2025-08-12_15h18.26.593,empathy_intonation_perc,2024.2.4,Win32,60.0240096,671efcc199e22fc57bff41aa,687ed1b7e638a4cbf2f02089,689b936c0fd5984874e9f9eb,,,,,,,,,,,,,,1,,,,,,,,,,,,,,,,,,,,,,,,,,,,,,,,,,,,,,,,,,,,,,,,,,,,,,,,,73,hervidor,,,,,494.636,495.947,1,1,0.781,,0,25,25,72,1,REAL,FAKE,,,,,,,,,,,,,,,,,
,,,,,,,,,671efcc199e22fc57bff41aa,Spanish,13 or older,"no, only English or Spanish",no,2025-08-12_15h18.26.593,empathy_intonation_perc,2024.2.4,Win32,60.0240096,671efcc199e22fc57bff41aa,687ed1b7e638a4cbf2f02089,689b936c0fd5984874e9f9eb,,,,,,,,,,,,,,1,,,,,,,,,,,,,,,,,,,,,,,,,,,,,,,,,,,,,,,,,,,,,,,,,,,,,,,,,41,rebuscar,,,,,495.948,497.246,1,1,0.767,,0,26,26,40,1,REAL,FAKE,,,,,,,,,,,,,,,,,
,,,,,,,,,671efcc199e22fc57bff41aa,Spanish,13 or older,"no, only English or Spanish",no,2025-08-12_15h18.26.593,empathy_intonation_perc,2024.2.4,Win32,60.0240096,671efcc199e22fc57bff41aa,687ed1b7e638a4cbf2f02089,689b936c0fd5984874e9f9eb,,,,,,,,,,,,,,1,,,,,,,,,,,,,,,,,,,,,,,,,,,,,,,,,,,,,,,,,,,,,,,,,,,,,,,,,43,canela,,,,,497.247,498.613,1,1,0.839,,0,27,27,42,1,REAL,FAKE,,,,,,,,,,,,,,,,,
,,,,,,,,,671efcc199e22fc57bff41aa,Spanish,13 or older,"no, only English or Spanish",no,2025-08-12_15h18.26.593,empathy_intonation_perc,2024.2.4,Win32,60.0240096,671efcc199e22fc57bff41aa,687ed1b7e638a4cbf2f02089,689b936c0fd5984874e9f9eb,,,,,,,,,,,,,,0,,,,,,,,,,,,,,,,,,,,,,,,,,,,,,,,,,,,,,,,,,,,,,,,,,,,,,,,,72,pemición,,,,,498.614,499.907,1,0,0.787,,0,28,28,71,1,REAL,FAKE,,,,,,,,,,,,,,,,,
,,,,,,,,,671efcc199e22fc57bff41aa,Spanish,13 or older,"no, only English or Spanish",no,2025-08-12_15h18.26.593,empathy_intonation_perc,2024.2.4,Win32,60.0240096,671efcc199e22fc57bff41aa,687ed1b7e638a4cbf2f02089,689b936c0fd5984874e9f9eb,,,,,,,,,,,,,,1,,,,,,,,,,,,,,,,,,,,,,,,,,,,,,,,,,,,,,,,,,,,,,,,,,,,,,,,,7,pésimo,,,,,499.911,501.131,1,1,0.71,,0,29,29,6,1,REAL,FAKE,,,,,,,,,,,,,,,,,
,,,,,,,,,671efcc199e22fc57bff41aa,Spanish,13 or older,"no, only English or Spanish",no,2025-08-12_15h18.26.593,empathy_intonation_perc,2024.2.4,Win32,60.0240096,671efcc199e22fc57bff41aa,687ed1b7e638a4cbf2f02089,689b936c0fd5984874e9f9eb,,,,,,,,,,,,,,1,,,,,,,,,,,,,,,,,,,,,,,,,,,,,,,,,,,,,,,,,,,,,,,,,,,,,,,,,14,yunque,,,,,501.131,502.497,0,0,0.836,,0,30,30,13,1,REAL,FAKE,,,,,,,,,,,,,,,,,
,,,,,,,,,671efcc199e22fc57bff41aa,Spanish,13 or older,"no, only English or Spanish",no,2025-08-12_15h18.26.593,empathy_intonation_perc,2024.2.4,Win32,60.0240096,671efcc199e22fc57bff41aa,687ed1b7e638a4cbf2f02089,689b936c0fd5984874e9f9eb,,,,,,,,,,,,,,1,,,,,,,,,,,,,,,,,,,,,,,,,,,,,,,,,,,,,,,,,,,,,,,,,,,,,,,,,51,candado,,,,,502.498,503.775,1,1,0.752,,0,31,31,50,1,REAL,FAKE,,,,,,,,,,,,,,,,,
,,,,,,,,,671efcc199e22fc57bff41aa,Spanish,13 or older,"no, only English or Spanish",no,2025-08-12_15h18.26.593,empathy_intonation_perc,2024.2.4,Win32,60.0240096,671efcc199e22fc57bff41aa,687ed1b7e638a4cbf2f02089,689b936c0fd5984874e9f9eb,,,,,,,,,,,,,,0,,,,,,,,,,,,,,,,,,,,,,,,,,,,,,,,,,,,,,,,,,,,,,,,,,,,,,,,,33,pauca,,,,,503.777,504.958,1,0,0.654,,0,32,32,32,1,REAL,FAKE,,,,,,,,,,,,,,,,,
,,,,,,,,,671efcc199e22fc57bff41aa,Spanish,13 or older,"no, only English or Spanish",no,2025-08-12_15h18.26.593,empathy_intonation_perc,2024.2.4,Win32,60.0240096,671efcc199e22fc57bff41aa,687ed1b7e638a4cbf2f02089,689b936c0fd5984874e9f9eb,,,,,,,,,,,,,,1,,,,,,,,,,,,,,,,,,,,,,,,,,,,,,,,,,,,,,,,,,,,,,,,,,,,,,,,,26,secuestro,,,,,504.959,506.162,1,1,0.684,,0,33,33,25,1,REAL,FAKE,,,,,,,,,,,,,,,,,
,,,,,,,,,671efcc199e22fc57bff41aa,Spanish,13 or older,"no, only English or Spanish",no,2025-08-12_15h18.26.593,empathy_intonation_perc,2024.2.4,Win32,60.0240096,671efcc199e22fc57bff41aa,687ed1b7e638a4cbf2f02089,689b936c0fd5984874e9f9eb,,,,,,,,,,,,,,1,,,,,,,,,,,,,,,,,,,,,,,,,,,,,,,,,,,,,,,,,,,,,,,,,,,,,,,,,44,cuchara,,,,,506.163,507.611,1,1,0.923,,0,34,34,43,1,REAL,FAKE,,,,,,,,,,,,,,,,,
,,,,,,,,,671efcc199e22fc57bff41aa,Spanish,13 or older,"no, only English or Spanish",no,2025-08-12_15h18.26.593,empathy_intonation_perc,2024.2.4,Win32,60.0240096,671efcc199e22fc57bff41aa,687ed1b7e638a4cbf2f02089,689b936c0fd5984874e9f9eb,,,,,,,,,,,,,,0,,,,,,,,,,,,,,,,,,,,,,,,,,,,,,,,,,,,,,,,,,,,,,,,,,,,,,,,,30,alardio,,,,,507.612,508.841,0,1,0.7,,0,35,35,29,1,REAL,FAKE,,,,,,,,,,,,,,,,,
,,,,,,,,,671efcc199e22fc57bff41aa,Spanish,13 or older,"no, only English or Spanish",no,2025-08-12_15h18.26.593,empathy_intonation_perc,2024.2.4,Win32,60.0240096,671efcc199e22fc57bff41aa,687ed1b7e638a4cbf2f02089,689b936c0fd5984874e9f9eb,,,,,,,,,,,,,,0,,,,,,,,,,,,,,,,,,,,,,,,,,,,,,,,,,,,,,,,,,,,,,,,,,,,,,,,,79,tropaje,,,,,508.843,510.358,0,1,0.989,,0,36,36,78,1,REAL,FAKE,,,,,,,,,,,,,,,,,
,,,,,,,,,671efcc199e22fc57bff41aa,Spanish,13 or older,"no, only English or Spanish",no,2025-08-12_15h18.26.593,empathy_intonation_perc,2024.2.4,Win32,60.0240096,671efcc199e22fc57bff41aa,687ed1b7e638a4cbf2f02089,689b936c0fd5984874e9f9eb,,,,,,,,,,,,,,0,,,,,,,,,,,,,,,,,,,,,,,,,,,,,,,,,,,,,,,,,,,,,,,,,,,,,,,,,84,escuto,,,,,510.361,511.975,0,1,1.087,,0,37,37,83,1,REAL,FAKE,,,,,,,,,,,,,,,,,
,,,,,,,,,671efcc199e22fc57bff41aa,Spanish,13 or older,"no, only English or Spanish",no,2025-08-12_15h18.26.593,empathy_intonation_perc,2024.2.4,Win32,60.0240096,671efcc199e22fc57bff41aa,687ed1b7e638a4cbf2f02089,689b936c0fd5984874e9f9eb,,,,,,,,,,,,,,0,,,,,,,,,,,,,,,,,,,,,,,,,,,,,,,,,,,,,,,,,,,,,,,,,,,,,,,,,18,arsa,,,,,511.978,513.258,1,0,0.758,,0,38,38,17,1,REAL,FAKE,,,,,,,,,,,,,,,,,
,,,,,,,,,671efcc199e22fc57bff41aa,Spanish,13 or older,"no, only English or Spanish",no,2025-08-12_15h18.26.593,empathy_intonation_perc,2024.2.4,Win32,60.0240096,671efcc199e22fc57bff41aa,687ed1b7e638a4cbf2f02089,689b936c0fd5984874e9f9eb,,,,,,,,,,,,,,1,,,,,,,,,,,,,,,,,,,,,,,,,,,,,,,,,,,,,,,,,,,,,,,,,,,,,,,,,3,pulmones,,,,,513.26,514.448,1,1,0.664,,0,39,39,2,1,REAL,FAKE,,,,,,,,,,,,,,,,,
,,,,,,,,,671efcc199e22fc57bff41aa,Spanish,13 or older,"no, only English or Spanish",no,2025-08-12_15h18.26.593,empathy_intonation_perc,2024.2.4,Win32,60.0240096,671efcc199e22fc57bff41aa,687ed1b7e638a4cbf2f02089,689b936c0fd5984874e9f9eb,,,,,,,,,,,,,,0,,,,,,,,,,,,,,,,,,,,,,,,,,,,,,,,,,,,,,,,,,,,,,,,,,,,,,,,,66,hacido,,,,,514.449,515.783,0,1,0.813,,0,40,40,65,1,REAL,FAKE,,,,,,,,,,,,,,,,,
,,,,,,,,,671efcc199e22fc57bff41aa,Spanish,13 or older,"no, only English or Spanish",no,2025-08-12_15h18.26.593,empathy_intonation_perc,2024.2.4,Win32,60.0240096,671efcc199e22fc57bff41aa,687ed1b7e638a4cbf2f02089,689b936c0fd5984874e9f9eb,,,,,,,,,,,,,,1,,,,,,,,,,,,,,,,,,,,,,,,,,,,,,,,,,,,,,,,,,,,,,,,,,,,,,,,,12,asesinato,,,,,515.784,516.958,1,1,0.65,,0,41,41,11,1,REAL,FAKE,,,,,,,,,,,,,,,,,
,,,,,,,,,671efcc199e22fc57bff41aa,Spanish,13 or older,"no, only English or Spanish",no,2025-08-12_15h18.26.593,empathy_intonation_perc,2024.2.4,Win32,60.0240096,671efcc199e22fc57bff41aa,687ed1b7e638a4cbf2f02089,689b936c0fd5984874e9f9eb,,,,,,,,,,,,,,1,,,,,,,,,,,,,,,,,,,,,,,,,,,,,,,,,,,,,,,,,,,,,,,,,,,,,,,,,45,jilguero,,,,,516.96,518.158,1,1,0.68,,0,42,42,44,1,REAL,FAKE,,,,,,,,,,,,,,,,,
,,,,,,,,,671efcc199e22fc57bff41aa,Spanish,13 or older,"no, only English or Spanish",no,2025-08-12_15h18.26.593,empathy_intonation_perc,2024.2.4,Win32,60.0240096,671efcc199e22fc57bff41aa,687ed1b7e638a4cbf2f02089,689b936c0fd5984874e9f9eb,,,,,,,,,,,,,,0,,,,,,,,,,,,,,,,,,,,,,,,,,,,,,,,,,,,,,,,,,,,,,,,,,,,,,,,,10,antar,,,,,518.16,519.258,1,0,0.59,,0,43,43,9,1,REAL,FAKE,,,,,,,,,,,,,,,,,
,,,,,,,,,671efcc199e22fc57bff41aa,Spanish,13 or older,"no, only English or Spanish",no,2025-08-12_15h18.26.593,empathy_intonation_perc,2024.2.4,Win32,60.0240096,671efcc199e22fc57bff41aa,687ed1b7e638a4cbf2f02089,689b936c0fd5984874e9f9eb,,,,,,,,,,,,,,1,,,,,,,,,,,,,,,,,,,,,,,,,,,,,,,,,,,,,,,,,,,,,,,,,,,,,,,,,75,yacer,,,,,519.259,520.491,1,1,0.711,,0,44,44,74,1,REAL,FAKE,,,,,,,,,,,,,,,,,
,,,,,,,,,671efcc199e22fc57bff41aa,Spanish,13 or older,"no, only English or Spanish",no,2025-08-12_15h18.26.593,empathy_intonation_perc,2024.2.4,Win32,60.0240096,671efcc199e22fc57bff41aa,687ed1b7e638a4cbf2f02089,689b936c0fd5984874e9f9eb,,,,,,,,,,,,,,1,,,,,,,,,,,,,,,,,,,,,,,,,,,,,,,,,,,,,,,,,,,,,,,,,,,,,,,,,65,bizcocho,,,,,520.493,521.783,0,0,0.754,,0,45,45,64,1,REAL,FAKE,,,,,,,,,,,,,,,,,
,,,,,,,,,671efcc199e22fc57bff41aa,Spanish,13 or older,"no, only English or Spanish",no,2025-08-12_15h18.26.593,empathy_intonation_perc,2024.2.4,Win32,60.0240096,671efcc199e22fc57bff41aa,687ed1b7e638a4cbf2f02089,689b936c0fd5984874e9f9eb,,,,,,,,,,,,,,1,,,,,,,,,,,,,,,,,,,,,,,,,,,,,,,,,,,,,,,,,,,,,,,,,,,,,,,,,38,estornudar,,,,,521.783,523.175,1,1,0.866,,0,46,46,37,1,REAL,FAKE,,,,,,,,,,,,,,,,,
,,,,,,,,,671efcc199e22fc57bff41aa,Spanish,13 or older,"no, only English or Spanish",no,2025-08-12_15h18.26.593,empathy_intonation_perc,2024.2.4,Win32,60.0240096,671efcc199e22fc57bff41aa,687ed1b7e638a4cbf2f02089,689b936c0fd5984874e9f9eb,,,,,,,,,,,,,,0,,,,,,,,,,,,,,,,,,,,,,,,,,,,,,,,,,,,,,,,,,,,,,,,,,,,,,,,,42,cadallo,,,,,523.176,524.324,1,0,0.635,,0,47,47,41,1,REAL,FAKE,,,,,,,,,,,,,,,,,
,,,,,,,,,671efcc199e22fc57bff41aa,Spanish,13 or older,"no, only English or Spanish",no,2025-08-12_15h18.26.593,empathy_intonation_perc,2024.2.4,Win32,60.0240096,671efcc199e22fc57bff41aa,687ed1b7e638a4cbf2f02089,689b936c0fd5984874e9f9eb,,,,,,,,,,,,,,1,,,,,,,,,,,,,,,,,,,,,,,,,,,,,,,,,,,,,,,,,,,,,,,,,,,,,,,,,88,acantilado,,,,,524.326,525.507,1,1,0.661,,0,48,48,87,1,REAL,FAKE,,,,,,,,,,,,,,,,,
,,,,,,,,,671efcc199e22fc57bff41aa,Spanish,13 or older,"no, only English or Spanish",no,2025-08-12_15h18.26.593,empathy_intonation_perc,2024.2.4,Win32,60.0240096,671efcc199e22fc57bff41aa,687ed1b7e638a4cbf2f02089,689b936c0fd5984874e9f9eb,,,,,,,,,,,,,,1,,,,,,,,,,,,,,,,,,,,,,,,,,,,,,,,,,,,,,,,,,,,,,,,,,,,,,,,,13,helar,,,,,525.509,526.924,0,0,0.899,,0,49,49,12,1,REAL,FAKE,,,,,,,,,,,,,,,,,
,,,,,,,,,671efcc199e22fc57bff41aa,Spanish,13 or older,"no, only English or Spanish",no,2025-08-12_15h18.26.593,empathy_intonation_perc,2024.2.4,Win32,60.0240096,671efcc199e22fc57bff41aa,687ed1b7e638a4cbf2f02089,689b936c0fd5984874e9f9eb,,,,,,,,,,,,,,0,,,,,,,,,,,,,,,,,,,,,,,,,,,,,,,,,,,,,,,,,,,,,,,,,,,,,,,,,29,decar,,,,,526.926,528.347,1,0,0.886,,0,50,50,28,1,REAL,FAKE,,,,,,,,,,,,,,,,,
,,,,,,,,,671efcc199e22fc57bff41aa,Spanish,13 or older,"no, only English or Spanish",no,2025-08-12_15h18.26.593,empathy_intonation_perc,2024.2.4,Win32,60.0240096,671efcc199e22fc57bff41aa,687ed1b7e638a4cbf2f02089,689b936c0fd5984874e9f9eb,,,,,,,,,,,,,,0,,,,,,,,,,,,,,,,,,,,,,,,,,,,,,,,,,,,,,,,,,,,,,,,,,,,,,,,,58,plaudir,,,,,528.349,529.608,1,0,0.735,,0,51,51,57,1,REAL,FAKE,,,,,,,,,,,,,,,,,
,,,,,,,,,671efcc199e22fc57bff41aa,Spanish,13 or older,"no, only English or Spanish",no,2025-08-12_15h18.26.593,empathy_intonation_perc,2024.2.4,Win32,60.0240096,671efcc199e22fc57bff41aa,687ed1b7e638a4cbf2f02089,689b936c0fd5984874e9f9eb,,,,,,,,,,,,,,0,,,,,,,,,,,,,,,,,,,,,,,,,,,,,,,,,,,,,,,,,,,,,,,,,,,,,,,,,27,acutación,,,,,529.61,530.924,1,0,0.8,,0,52,52,26,1,REAL,FAKE,,,,,,,,,,,,,,,,,
,,,,,,,,,671efcc199e22fc57bff41aa,Spanish,13 or older,"no, only English or Spanish",no,2025-08-12_15h18.26.593,empathy_intonation_perc,2024.2.4,Win32,60.0240096,671efcc199e22fc57bff41aa,687ed1b7e638a4cbf2f02089,689b936c0fd5984874e9f9eb,,,,,,,,,,,,,,0,,,,,,,,,,,,,,,,,,,,,,,,,,,,,,,,,,,,,,,,,,,,,,,,,,,,,,,,,82,empirador,,,,,530.927,532.55,1,0,1.107,,0,53,53,81,1,REAL,FAKE,,,,,,,,,,,,,,,,,
,,,,,,,,,671efcc199e22fc57bff41aa,Spanish,13 or older,"no, only English or Spanish",no,2025-08-12_15h18.26.593,empathy_intonation_perc,2024.2.4,Win32,60.0240096,671efcc199e22fc57bff41aa,687ed1b7e638a4cbf2f02089,689b936c0fd5984874e9f9eb,,,,,,,,,,,,,,0,,,,,,,,,,,,,,,,,,,,,,,,,,,,,,,,,,,,,,,,,,,,,,,,,,,,,,,,,35,rompido,,,,,532.553,533.78,0,1,0.7,,0,54,54,34,1,REAL,FAKE,,,,,,,,,,,,,,,,,
,,,,,,,,,671efcc199e22fc57bff41aa,Spanish,13 or older,"no, only English or Spanish",no,2025-08-12_15h18.26.593,empathy_intonation_perc,2024.2.4,Win32,60.0240096,671efcc199e22fc57bff41aa,687ed1b7e638a4cbf2f02089,689b936c0fd5984874e9f9eb,,,,,,,,,,,,,,1,,,,,,,,,,,,,,,,,,,,,,,,,,,,,,,,,,,,,,,,,,,,,,,,,,,,,,,,,31,pandilla,,,,,533.781,535.116,1,1,0.815,,0,55,55,30,1,REAL,FAKE,,,,,,,,,,,,,,,,,
,,,,,,,,,671efcc199e22fc57bff41aa,Spanish,13 or older,"no, only English or Spanish",no,2025-08-12_15h18.26.593,empathy_intonation_perc,2024.2.4,Win32,60.0240096,671efcc199e22fc57bff41aa,687ed1b7e638a4cbf2f02089,689b936c0fd5984874e9f9eb,,,,,,,,,,,,,,0,,,,,,,,,,,,,,,,,,,,,,,,,,,,,,,,,,,,,,,,,,,,,,,,,,,,,,,,,92,click the 0 key.,,,,,535.117,537.424,0,1,1.782,,0,56,56,91,1,REAL,FAKE,,,,,,,,,,,,,,,,,
,,,,,,,,,671efcc199e22fc57bff41aa,Spanish,13 or older,"no, only English or Spanish",no,2025-08-12_15h18.26.593,empathy_intonation_perc,2024.2.4,Win32,60.0240096,671efcc199e22fc57bff41aa,687ed1b7e638a4cbf2f02089,689b936c0fd5984874e9f9eb,,,,,,,,,,,,,,0,,,,,,,,,,,,,,,,,,,,,,,,,,,,,,,,,,,,,,,,,,,,,,,,,,,,,,,,,47,cartinar,,,,,537.425,539.515,1,0,1.569,,0,57,57,46,1,REAL,FAKE,,,,,,,,,,,,,,,,,
,,,,,,,,,671efcc199e22fc57bff41aa,Spanish,13 or older,"no, only English or Spanish",no,2025-08-12_15h18.26.593,empathy_intonation_perc,2024.2.4,Win32,60.0240096,671efcc199e22fc57bff41aa,687ed1b7e638a4cbf2f02089,689b936c0fd5984874e9f9eb,,,,,,,,,,,,,,1,,,,,,,,,,,,,,,,,,,,,,,,,,,,,,,,,,,,,,,,,,,,,,,,,,,,,,,,,55,nevar,,,,,539.516,541.325,1,1,1.285,,0,58,58,54,1,REAL,FAKE,,,,,,,,,,,,,,,,,
,,,,,,,,,671efcc199e22fc57bff41aa,Spanish,13 or older,"no, only English or Spanish",no,2025-08-12_15h18.26.593,empathy_intonation_perc,2024.2.4,Win32,60.0240096,671efcc199e22fc57bff41aa,687ed1b7e638a4cbf2f02089,689b936c0fd5984874e9f9eb,,,,,,,,,,,,,,0,,,,,,,,,,,,,,,,,,,,,,,,,,,,,,,,,,,,,,,,,,,,,,,,,,,,,,,,,53,vegada,,,,,541.327,542.609,1,0,0.768,,0,59,59,52,1,REAL,FAKE,,,,,,,,,,,,,,,,,
,,,,,,,,,671efcc199e22fc57bff41aa,Spanish,13 or older,"no, only English or Spanish",no,2025-08-12_15h18.26.593,empathy_intonation_perc,2024.2.4,Win32,60.0240096,671efcc199e22fc57bff41aa,687ed1b7e638a4cbf2f02089,689b936c0fd5984874e9f9eb,,,,,,,,,,,,,,1,,,,,,,,,,,,,,,,,,,,,,,,,,,,,,,,,,,,,,,,,,,,,,,,,,,,,,,,,46,martillo,,,,,542.61,543.7,1,1,0.563,,0,60,60,45,1,REAL,FAKE,,,,,,,,,,,,,,,,,
,,,,,,,,,671efcc199e22fc57bff41aa,Spanish,13 or older,"no, only English or Spanish",no,2025-08-12_15h18.26.593,empathy_intonation_perc,2024.2.4,Win32,60.0240096,671efcc199e22fc57bff41aa,687ed1b7e638a4cbf2f02089,689b936c0fd5984874e9f9eb,,,,,,,,,,,,,,0,,,,,,,,,,,,,,,,,,,,,,,,,,,,,,,,,,,,,,,,,,,,,,,,,,,,,,,,,70,temblo,,,,,543.701,546.274,0,1,2.047,,0,61,61,69,1,REAL,FAKE,,,,,,,,,,,,,,,,,
,,,,,,,,,671efcc199e22fc57bff41aa,Spanish,13 or older,"no, only English or Spanish",no,2025-08-12_15h18.26.593,empathy_intonation_perc,2024.2.4,Win32,60.0240096,671efcc199e22fc57bff41aa,687ed1b7e638a4cbf2f02089,689b936c0fd5984874e9f9eb,,,,,,,,,,,,,,1,,,,,,,,,,,,,,,,,,,,,,,,,,,,,,,,,,,,,,,,,,,,,,,,,,,,,,,,,37,granuja,,,,,546.277,547.508,1,1,0.709,,0,62,62,36,1,REAL,FAKE,,,,,,,,,,,,,,,,,
,,,,,,,,,671efcc199e22fc57bff41aa,Spanish,13 or older,"no, only English or Spanish",no,2025-08-12_15h18.26.593,empathy_intonation_perc,2024.2.4,Win32,60.0240096,671efcc199e22fc57bff41aa,687ed1b7e638a4cbf2f02089,689b936c0fd5984874e9f9eb,,,,,,,,,,,,,,1,,,,,,,,,,,,,,,,,,,,,,,,,,,,,,,,,,,,,,,,,,,,,,,,,,,,,,,,,6,tergiversar,,,,,547.509,548.725,1,1,0.678,,0,63,63,5,1,REAL,FAKE,,,,,,,,,,,,,,,,,
,,,,,,,,,671efcc199e22fc57bff41aa,Spanish,13 or older,"no, only English or Spanish",no,2025-08-12_15h18.26.593,empathy_intonation_perc,2024.2.4,Win32,60.0240096,671efcc199e22fc57bff41aa,687ed1b7e638a4cbf2f02089,689b936c0fd5984874e9f9eb,,,,,,,,,,,,,,1,,,,,,,,,,,,,,,,,,,,,,,,,,,,,,,,,,,,,,,,,,,,,,,,,,,,,,,,,11,cenefa,,,,,548.727,549.942,1,1,0.684,,0,64,64,10,1,REAL,FAKE,,,,,,,,,,,,,,,,,
,,,,,,,,,671efcc199e22fc57bff41aa,Spanish,13 or older,"no, only English or Spanish",no,2025-08-12_15h18.26.593,empathy_intonation_perc,2024.2.4,Win32,60.0240096,671efcc199e22fc57bff41aa,687ed1b7e638a4cbf2f02089,689b936c0fd5984874e9f9eb,,,,,,,,,,,,,,1,,,,,,,,,,,,,,,,,,,,,,,,,,,,,,,,,,,,,,,,,,,,,,,,,,,,,,,,,81,pozo,,,,,549.944,551.658,1,1,1.183,,0,65,65,80,1,REAL,FAKE,,,,,,,,,,,,,,,,,
,,,,,,,,,671efcc199e22fc57bff41aa,Spanish,13 or older,"no, only English or Spanish",no,2025-08-12_15h18.26.593,empathy_intonation_perc,2024.2.4,Win32,60.0240096,671efcc199e22fc57bff41aa,687ed1b7e638a4cbf2f02089,689b936c0fd5984874e9f9eb,,,,,,,,,,,,,,1,,,,,,,,,,,,,,,,,,,,,,,,,,,,,,,,,,,,,,,,,,,,,,,,,,,,,,,,,71,polvoriento,,,,,551.659,553.891,1,1,1.706,,0,66,66,70,1,REAL,FAKE,,,,,,,,,,,,,,,,,
,,,,,,,,,671efcc199e22fc57bff41aa,Spanish,13 or older,"no, only English or Spanish",no,2025-08-12_15h18.26.593,empathy_intonation_perc,2024.2.4,Win32,60.0240096,671efcc199e22fc57bff41aa,687ed1b7e638a4cbf2f02089,689b936c0fd5984874e9f9eb,,,,,,,,,,,,,,1,,,,,,,,,,,,,,,,,,,,,,,,,,,,,,,,,,,,,,,,,,,,,,,,,,,,,,,,,36,loro,,,,,553.894,555.708,0,0,1.288,,0,67,67,35,1,REAL,FAKE,,,,,,,,,,,,,,,,,
,,,,,,,,,671efcc199e22fc57bff41aa,Spanish,13 or older,"no, only English or Spanish",no,2025-08-12_15h18.26.593,empathy_intonation_perc,2024.2.4,Win32,60.0240096,671efcc199e22fc57bff41aa,687ed1b7e638a4cbf2f02089,689b936c0fd5984874e9f9eb,,,,,,,,,,,,,,1,,,,,,,,,,,,,,,,,,,,,,,,,,,,,,,,,,,,,,,,,,,,,,,,,,,,,,,,,62,flaco,,,,,555.711,556.957,0,0,0.725,,0,68,68,61,1,REAL,FAKE,,,,,,,,,,,,,,,,,
,,,,,,,,,671efcc199e22fc57bff41aa,Spanish,13 or older,"no, only English or Spanish",no,2025-08-12_15h18.26.593,empathy_intonation_perc,2024.2.4,Win32,60.0240096,671efcc199e22fc57bff41aa,687ed1b7e638a4cbf2f02089,689b936c0fd5984874e9f9eb,,,,,,,,,,,,,,0,,,,,,,,,,,,,,,,,,,,,,,,,,,,,,,,,,,,,,,,,,,,,,,,,,,,,,,,,16,abracer,,,,,556.959,558.791,1,0,1.302,,0,69,69,15,1,REAL,FAKE,,,,,,,,,,,,,,,,,
,,,,,,,,,671efcc199e22fc57bff41aa,Spanish,13 or older,"no, only English or Spanish",no,2025-08-12_15h18.26.593,empathy_intonation_perc,2024.2.4,Win32,60.0240096,671efcc199e22fc57bff41aa,687ed1b7e638a4cbf2f02089,689b936c0fd5984874e9f9eb,,,,,,,,,,,,,,1,,,,,,,,,,,,,,,,,,,,,,,,,,,,,,,,,,,,,,,,,,,,,,,,,,,,,,,,,90,clavel,,,,,558.793,559.924,1,1,0.601,,0,70,70,89,1,REAL,FAKE,,,,,,,,,,,,,,,,,
,,,,,,,,,671efcc199e22fc57bff41aa,Spanish,13 or older,"no, only English or Spanish",no,2025-08-12_15h18.26.593,empathy_intonation_perc,2024.2.4,Win32,60.0240096,671efcc199e22fc57bff41aa,687ed1b7e638a4cbf2f02089,689b936c0fd5984874e9f9eb,,,,,,,,,,,,,,1,,,,,,,,,,,,,,,,,,,,,,,,,,,,,,,,,,,,,,,,,,,,,,,,,,,,,,,,,91,click the 1 key.,,,,,559.926,561.575,1,1,1.127,,0,71,71,90,1,REAL,FAKE,,,,,,,,,,,,,,,,,
,,,,,,,,,671efcc199e22fc57bff41aa,Spanish,13 or older,"no, only English or Spanish",no,2025-08-12_15h18.26.593,empathy_intonation_perc,2024.2.4,Win32,60.0240096,671efcc199e22fc57bff41aa,687ed1b7e638a4cbf2f02089,689b936c0fd5984874e9f9eb,,,,,,,,,,,,,,0,,,,,,,,,,,,,,,,,,,,,,,,,,,,,,,,,,,,,,,,,,,,,,,,,,,,,,,,,87,grodo,,,,,561.579,563.714,1,0,1.607,,0,72,72,86,1,REAL,FAKE,,,,,,,,,,,,,,,,,
,,,,,,,,,671efcc199e22fc57bff41aa,Spanish,13 or older,"no, only English or Spanish",no,2025-08-12_15h18.26.593,empathy_intonation_perc,2024.2.4,Win32,60.0240096,671efcc199e22fc57bff41aa,687ed1b7e638a4cbf2f02089,689b936c0fd5984874e9f9eb,,,,,,,,,,,,,,1,,,,,,,,,,,,,,,,,,,,,,,,,,,,,,,,,,,,,,,,,,,,,,,,,,,,,,,,,60,matar,,,,,563.715,564.849,1,1,0.626,,0,73,73,59,1,REAL,FAKE,,,,,,,,,,,,,,,,,
,,,,,,,,,671efcc199e22fc57bff41aa,Spanish,13 or older,"no, only English or Spanish",no,2025-08-12_15h18.26.593,empathy_intonation_perc,2024.2.4,Win32,60.0240096,671efcc199e22fc57bff41aa,687ed1b7e638a4cbf2f02089,689b936c0fd5984874e9f9eb,,,,,,,,,,,,,,1,,,,,,,,,,,,,,,,,,,,,,,,,,,,,,,,,,,,,,,,,,,,,,,,,,,,,,,,,54,fomentar,,,,,564.85,566.125,1,1,0.752,,0,74,74,53,1,REAL,FAKE,,,,,,,,,,,,,,,,,
,,,,,,,,,671efcc199e22fc57bff41aa,Spanish,13 or older,"no, only English or Spanish",no,2025-08-12_15h18.26.593,empathy_intonation_perc,2024.2.4,Win32,60.0240096,671efcc199e22fc57bff41aa,687ed1b7e638a4cbf2f02089,689b936c0fd5984874e9f9eb,,,,,,,,,,,,,,1,,,,,,,,,,,,,,,,,,,,,,,,,,,,,,,,,,,,,,,,,,,,,,,,,,,,,,,,,83,guante,,,,,566.128,567.375,0,0,0.72,,0,75,75,82,1,REAL,FAKE,,,,,,,,,,,,,,,,,
,,,,,,,,,671efcc199e22fc57bff41aa,Spanish,13 or older,"no, only English or Spanish",no,2025-08-12_15h18.26.593,empathy_intonation_perc,2024.2.4,Win32,60.0240096,671efcc199e22fc57bff41aa,687ed1b7e638a4cbf2f02089,689b936c0fd5984874e9f9eb,,,,,,,,,,,,,,1,,,,,,,,,,,,,,,,,,,,,,,,,,,,,,,,,,,,,,,,,,,,,,,,,,,,,,,,,28,merodear,,,,,567.378,568.957,0,0,1.055,,0,76,76,27,1,REAL,FAKE,,,,,,,,,,,,,,,,,
,,,,,,,,,671efcc199e22fc57bff41aa,Spanish,13 or older,"no, only English or Spanish",no,2025-08-12_15h18.26.593,empathy_intonation_perc,2024.2.4,Win32,60.0240096,671efcc199e22fc57bff41aa,687ed1b7e638a4cbf2f02089,689b936c0fd5984874e9f9eb,,,,,,,,,,,,,,0,,,,,,,,,,,,,,,,,,,,,,,,,,,,,,,,,,,,,,,,,,,,,,,,,,,,,,,,,63,esposante,,,,,568.959,570.291,1,0,0.821,,0,77,77,62,1,REAL,FAKE,,,,,,,,,,,,,,,,,
,,,,,,,,,671efcc199e22fc57bff41aa,Spanish,13 or older,"no, only English or Spanish",no,2025-08-12_15h18.26.593,empathy_intonation_perc,2024.2.4,Win32,60.0240096,671efcc199e22fc57bff41aa,687ed1b7e638a4cbf2f02089,689b936c0fd5984874e9f9eb,,,,,,,,,,,,,,1,,,,,,,,,,,,,,,,,,,,,,,,,,,,,,,,,,,,,,,,,,,,,,,,,,,,,,,,,5,zapato,,,,,570.294,571.875,0,0,1.053,,0,78,78,4,1,REAL,FAKE,,,,,,,,,,,,,,,,,
,,,,,,,,,671efcc199e22fc57bff41aa,Spanish,13 or older,"no, only English or Spanish",no,2025-08-12_15h18.26.593,empathy_intonation_perc,2024.2.4,Win32,60.0240096,671efcc199e22fc57bff41aa,687ed1b7e638a4cbf2f02089,689b936c0fd5984874e9f9eb,,,,,,,,,,,,,,0,,,,,,,,,,,,,,,,,,,,,,,,,,,,,,,,,,,,,,,,,,,,,,,,,,,,,,,,,23,lampera,,,,,571.876,573.008,1,0,0.605,,0,79,79,22,1,REAL,FAKE,,,,,,,,,,,,,,,,,
,,,,,,,,,671efcc199e22fc57bff41aa,Spanish,13 or older,"no, only English or Spanish",no,2025-08-12_15h18.26.593,empathy_intonation_perc,2024.2.4,Win32,60.0240096,671efcc199e22fc57bff41aa,687ed1b7e638a4cbf2f02089,689b936c0fd5984874e9f9eb,,,,,,,,,,,,,,1,,,,,,,,,,,,,,,,,,,,,,,,,,,,,,,,,,,,,,,,,,,,,,,,,,,,,,,,,48,ladrón,,,,,573.009,574.164,1,1,0.616,,0,80,80,47,1,REAL,FAKE,,,,,,,,,,,,,,,,,
,,,,,,,,,671efcc199e22fc57bff41aa,Spanish,13 or older,"no, only English or Spanish",no,2025-08-12_15h18.26.593,empathy_intonation_perc,2024.2.4,Win32,60.0240096,671efcc199e22fc57bff41aa,687ed1b7e638a4cbf2f02089,689b936c0fd5984874e9f9eb,,,,,,,,,,,,,,1,,,,,,,,,,,,,,,,,,,,,,,,,,,,,,,,,,,,,,,,,,,,,,,,,,,,,,,,,64,orgulloso,,,,,574.165,575.615,1,1,0.931,,0,81,81,63,1,REAL,FAKE,,,,,,,,,,,,,,,,,
,,,,,,,,,671efcc199e22fc57bff41aa,Spanish,13 or older,"no, only English or Spanish",no,2025-08-12_15h18.26.593,empathy_intonation_perc,2024.2.4,Win32,60.0240096,671efcc199e22fc57bff41aa,687ed1b7e638a4cbf2f02089,689b936c0fd5984874e9f9eb,,,,,,,,,,,,,,0,,,,,,,,,,,,,,,,,,,,,,,,,,,,,,,,,,,,,,,,,,,,,,,,,,,,,,,,,17,floroso,,,,,575.616,576.897,1,0,0.763,,0,82,82,16,1,REAL,FAKE,,,,,,,,,,,,,,,,,
,,,,,,,,,671efcc199e22fc57bff41aa,Spanish,13 or older,"no, only English or Spanish",no,2025-08-12_15h18.26.593,empathy_intonation_perc,2024.2.4,Win32,60.0240096,671efcc199e22fc57bff41aa,687ed1b7e638a4cbf2f02089,689b936c0fd5984874e9f9eb,,,,,,,,,,,,,,0,,,,,,,,,,,,,,,,,,,,,,,,,,,,,,,,,,,,,,,,,,,,,,,,,,,,,,,,,19,brecedad,,,,,576.897,578.164,0,1,0.747,,0,83,83,18,1,REAL,FAKE,,,,,,,,,,,,,,,,,
,,,,,,,,,671efcc199e22fc57bff41aa,Spanish,13 or older,"no, only English or Spanish",no,2025-08-12_15h18.26.593,empathy_intonation_perc,2024.2.4,Win32,60.0240096,671efcc199e22fc57bff41aa,687ed1b7e638a4cbf2f02089,689b936c0fd5984874e9f9eb,,,,,,,,,,,,,,1,,,,,,,,,,,,,,,,,,,,,,,,,,,,,,,,,,,,,,,,,,,,,,,,,,,,,,,,,78,frondoso,,,,,578.165,579.35,1,1,0.657,,0,84,84,77,1,REAL,FAKE,,,,,,,,,,,,,,,,,
,,,,,,,,,671efcc199e22fc57bff41aa,Spanish,13 or older,"no, only English or Spanish",no,2025-08-12_15h18.26.593,empathy_intonation_perc,2024.2.4,Win32,60.0240096,671efcc199e22fc57bff41aa,687ed1b7e638a4cbf2f02089,689b936c0fd5984874e9f9eb,,,,,,,,,,,,,,1,,,,,,,,,,,,,,,,,,,,,,,,,,,,,,,,,,,,,,,,,,,,,,,,,,,,,,,,,2,pellizcar,,,,,579.351,580.942,0,0,1.065,,0,85,85,1,1,REAL,FAKE,,,,,,,,,,,,,,,,,
,,,,,,,,,671efcc199e22fc57bff41aa,Spanish,13 or older,"no, only English or Spanish",no,2025-08-12_15h18.26.593,empathy_intonation_perc,2024.2.4,Win32,60.0240096,671efcc199e22fc57bff41aa,687ed1b7e638a4cbf2f02089,689b936c0fd5984874e9f9eb,,,,,,,,,,,,,,0,,,,,,,,,,,,,,,,,,,,,,,,,,,,,,,,,,,,,,,,,,,,,,,,,,,,,,,,,32,fatacidad,,,,,580.943,582.358,1,0,0.898,,0,86,86,31,1,REAL,FAKE,,,,,,,,,,,,,,,,,
,,,,,,,,,671efcc199e22fc57bff41aa,Spanish,13 or older,"no, only English or Spanish",no,2025-08-12_15h18.26.593,empathy_intonation_perc,2024.2.4,Win32,60.0240096,671efcc199e22fc57bff41aa,687ed1b7e638a4cbf2f02089,689b936c0fd5984874e9f9eb,,,,,,,,,,,,,,1,,,,,,,,,,,,,,,,,,,,,,,,,,,,,,,,,,,,,,,,,,,,,,,,,,,,,,,,,49,ganar,,,,,582.36,583.607,1,1,0.72,,0,87,87,48,1,REAL,FAKE,,,,,,,,,,,,,,,,,
,,,,,,,,,671efcc199e22fc57bff41aa,Spanish,13 or older,"no, only English or Spanish",no,2025-08-12_15h18.26.593,empathy_intonation_perc,2024.2.4,Win32,60.0240096,671efcc199e22fc57bff41aa,687ed1b7e638a4cbf2f02089,689b936c0fd5984874e9f9eb,,,,,,,,,,,,,,1,,,,,,,,,,,,,,,,,,,,,,,,,,,,,,,,,,,,,,,,,,,,,,,,,,,,,,,,,25,bisagra,,,,,583.608,584.867,1,1,0.747,,0,88,88,24,1,REAL,FAKE,,,,,,,,,,,,,,,,,
,,,,,,,,,671efcc199e22fc57bff41aa,Spanish,13 or older,"no, only English or Spanish",no,2025-08-12_15h18.26.593,empathy_intonation_perc,2024.2.4,Win32,60.0240096,671efcc199e22fc57bff41aa,687ed1b7e638a4cbf2f02089,689b936c0fd5984874e9f9eb,,,,,,,,,,,,,,0,,,,,,,,,,,,,,,,,,,,,,,,,,,,,,,,,,,,,,,,,,,,,,,,,,,,,,,,,21,capillo,,,,,584.868,585.891,1,0,0.502,,0,89,89,20,1,REAL,FAKE,,,,,,,,,,,,,,,,,
,,,,,,,,,671efcc199e22fc57bff41aa,Spanish,13 or older,"no, only English or Spanish",no,2025-08-12_15h18.26.593,empathy_intonation_perc,2024.2.4,Win32,60.0240096,671efcc199e22fc57bff41aa,687ed1b7e638a4cbf2f02089,689b936c0fd5984874e9f9eb,,,,,,,,,,,,,,1,,,,,,,,,,,,,,,,,,,,,,,,,,,,,,,,,,,,,,,,,,,,,,,,,,,,,,,,,77,tiburón,,,,,585.892,587.075,1,1,0.663,,0,90,90,76,1,REAL,FAKE,,,,,,,,,,,,,,,,,
,,,,,,,,,671efcc199e22fc57bff41aa,Spanish,13 or older,"no, only English or Spanish",no,2025-08-12_15h18.26.593,empathy_intonation_perc,2024.2.4,Win32,60.0240096,671efcc199e22fc57bff41aa,687ed1b7e638a4cbf2f02089,689b936c0fd5984874e9f9eb,,,,,,,,,,,,,,1,,,,,,,,,,,,,,,,,,,,,,,,,,,,,,,,,,,,,,,,,,,,,,,,,,,,,,,,,20,ávido,,,,,587.077,588.208,1,1,0.616,,0,91,91,19,1,REAL,FAKE,,,,,,,,,,,,,,,,,
,,,,,,,,,671efcc199e22fc57bff41aa,Spanish,13 or older,"no, only English or Spanish",no,2025-08-12_15h18.26.593,empathy_intonation_perc,2024.2.4,Win32,60.0240096,671efcc199e22fc57bff41aa,687ed1b7e638a4cbf2f02089,689b936c0fd5984874e9f9eb,,,,,,,,,,,,,,,,,,,,,,,,,,,,,,,,,,,,,,,,,,,,,,,,,,,,,,,,,,,,,,,,,,,,,,,,,,,,,,,,,,,,,,,,,,588.208,593.908,,,,,,,,,,,,,,,
,,,,,,,,,671efcc199e22fc57bff41aa,Spanish,13 or older,"no, only English or Spanish",no,2025-08-12_15h18.26.593,empathy_intonation_perc,2024.2.4,Win32,60.0240096,671efcc199e22fc57bff41aa,687ed1b7e638a4cbf2f02089,689b936c0fd5984874e9f9eb,,,,,,,,,,,,,1,,,,,,,,,,,,,,,,,,,,,,,,,,,,,,,,,,,,,,,,,,,,,,,,,,,,,,,,,,,,,,,,,,,,,,,,,,,,,,,593.923,597.95,slightly agree,0,0,0,0,1,I can easily tell if someone else wants to enter a conversation.,1,0,1,0,,
,,,,,,,,,671efcc199e22fc57bff41aa,Spanish,13 or older,"no, only English or Spanish",no,2025-08-12_15h18.26.593,empathy_intonation_perc,2024.2.4,Win32,60.0240096,671efcc199e22fc57bff41aa,687ed1b7e638a4cbf2f02089,689b936c0fd5984874e9f9eb,,,,,,,,,,,,,2,,,,,,,,,,,,,,,,,,,,,,,,,,,,,,,,,,,,,,,,,,,,,,,,,,,,,,,,,,,,,,,,,,,,,,,,,,,,,,,597.952,600,strongly agree,0,1,1,1,1,I prefer animals to humans.,0,1,0,0,,
,,,,,,,,,671efcc199e22fc57bff41aa,Spanish,13 or older,"no, only English or Spanish",no,2025-08-12_15h18.26.593,empathy_intonation_perc,2024.2.4,Win32,60.0240096,671efcc199e22fc57bff41aa,687ed1b7e638a4cbf2f02089,689b936c0fd5984874e9f9eb,,,,,,,,,,,,,3,,,,,,,,,,,,,,,,,,,,,,,,,,,,,,,,,,,,,,,,,,,,,,,,,,,,,,,,,,,,,,,,,,,,,,,,,,,,,,,600,602.929,strongly disagree,0,2,2,2,1,I try to keep up with the current trends and fashions.,0,1,0,0,,
,,,,,,,,,671efcc199e22fc57bff41aa,Spanish,13 or older,"no, only English or Spanish",no,2025-08-12_15h18.26.593,empathy_intonation_perc,2024.2.4,Win32,60.0240096,671efcc199e22fc57bff41aa,687ed1b7e638a4cbf2f02089,689b936c0fd5984874e9f9eb,,,,,,,,,,,,,4,,,,,,,,,,,,,,,,,,,,,,,,,,,,,,,,,,,,,,,,,,,,,,,,,,,,,,,,,,,,,,,,,,,,,,,,,,,,,,,602.93,606.478,strongly agree,0,3,3,3,1,"I find it difficult to explain to others things that I understand easily,   when they don't understand it first time.",1,0,0,1,,
,,,,,,,,,671efcc199e22fc57bff41aa,Spanish,13 or older,"no, only English or Spanish",no,2025-08-12_15h18.26.593,empathy_intonation_perc,2024.2.4,Win32,60.0240096,671efcc199e22fc57bff41aa,687ed1b7e638a4cbf2f02089,689b936c0fd5984874e9f9eb,,,,,,,,,,,,,5,,,,,,,,,,,,,,,,,,,,,,,,,,,,,,,,,,,,,,,,,,,,,,,,,,,,,,,,,,,,,,,,,,,,,,,,,,,,,,,606.479,608.474,slightly agree,0,4,4,4,1,I dream most nights.,0,1,0,0,,
,,,,,,,,,671efcc199e22fc57bff41aa,Spanish,13 or older,"no, only English or Spanish",no,2025-08-12_15h18.26.593,empathy_intonation_perc,2024.2.4,Win32,60.0240096,671efcc199e22fc57bff41aa,687ed1b7e638a4cbf2f02089,689b936c0fd5984874e9f9eb,,,,,,,,,,,,,6,,,,,,,,,,,,,,,,,,,,,,,,,,,,,,,,,,,,,,,,,,,,,,,,,,,,,,,,,,,,,,,,,,,,,,,,,,,,,,,608.478,610.025,slightly agree,0,5,5,5,1,I really enjoy caring for other people.,1,0,1,0,,
,,,,,,,,,671efcc199e22fc57bff41aa,Spanish,13 or older,"no, only English or Spanish",no,2025-08-12_15h18.26.593,empathy_intonation_perc,2024.2.4,Win32,60.0240096,671efcc199e22fc57bff41aa,687ed1b7e638a4cbf2f02089,689b936c0fd5984874e9f9eb,,,,,,,,,,,,,7,,,,,,,,,,,,,,,,,,,,,,,,,,,,,,,,,,,,,,,,,,,,,,,,,,,,,,,,,,,,,,,,,,,,,,,,,,,,,,,610.027,612.129,strongly agree,0,6,6,6,1,I try to solve my own problems rather than discussing them with others.,0,1,0,0,,
,,,,,,,,,671efcc199e22fc57bff41aa,Spanish,13 or older,"no, only English or Spanish",no,2025-08-12_15h18.26.593,empathy_intonation_perc,2024.2.4,Win32,60.0240096,671efcc199e22fc57bff41aa,687ed1b7e638a4cbf2f02089,689b936c0fd5984874e9f9eb,,,,,,,,,,,,,8,,,,,,,,,,,,,,,,,,,,,,,,,,,,,,,,,,,,,,,,,,,,,,,,,,,,,,,,,,,,,,,,,,,,,,,,,,,,,,,612.13,614.991,strongly agree,0,7,7,7,1,I find it hard to know what to do in a social situation.,1,0,0,1,,
,,,,,,,,,671efcc199e22fc57bff41aa,Spanish,13 or older,"no, only English or Spanish",no,2025-08-12_15h18.26.593,empathy_intonation_perc,2024.2.4,Win32,60.0240096,671efcc199e22fc57bff41aa,687ed1b7e638a4cbf2f02089,689b936c0fd5984874e9f9eb,,,,,,,,,,,,,9,,,,,,,,,,,,,,,,,,,,,,,,,,,,,,,,,,,,,,,,,,,,,,,,,,,,,,,,,,,,,,,,,,,,,,,,,,,,,,,614.992,616.925,slightly agree,0,8,8,8,1,I am at my best first thing in the morning.,0,1,0,0,,
,,,,,,,,,671efcc199e22fc57bff41aa,Spanish,13 or older,"no, only English or Spanish",no,2025-08-12_15h18.26.593,empathy_intonation_perc,2024.2.4,Win32,60.0240096,671efcc199e22fc57bff41aa,687ed1b7e638a4cbf2f02089,689b936c0fd5984874e9f9eb,,,,,,,,,,,,,10,,,,,,,,,,,,,,,,,,,,,,,,,,,,,,,,,,,,,,,,,,,,,,,,,,,,,,,,,,,,,,,,,,,,,,,,,,,,,,,616.927,621.008,slightly agree,0,9,9,9,1,People often tell me that I went too far in driving my point home in a discussion.,1,0,0,1,,
,,,,,,,,,671efcc199e22fc57bff41aa,Spanish,13 or older,"no, only English or Spanish",no,2025-08-12_15h18.26.593,empathy_intonation_perc,2024.2.4,Win32,60.0240096,671efcc199e22fc57bff41aa,687ed1b7e638a4cbf2f02089,689b936c0fd5984874e9f9eb,,,,,,,,,,,,,11,,,,,,,,,,,,,,,,,,,,,,,,,,,,,,,,,,,,,,,,,,,,,,,,,,,,,,,,,,,,,,,,,,,,,,,,,,,,,,,621.01,623.908,strongly disagree,0,10,10,10,1,It doesn't bother me too much if I am late meeting a friend.,1,0,0,1,,
,,,,,,,,,671efcc199e22fc57bff41aa,Spanish,13 or older,"no, only English or Spanish",no,2025-08-12_15h18.26.593,empathy_intonation_perc,2024.2.4,Win32,60.0240096,671efcc199e22fc57bff41aa,687ed1b7e638a4cbf2f02089,689b936c0fd5984874e9f9eb,,,,,,,,,,,,,12,,,,,,,,,,,,,,,,,,,,,,,,,,,,,,,,,,,,,,,,,,,,,,,,,,,,,,,,,,,,,,,,,,,,,,,,,,,,,,,623.91,626.791,slightly agree,0,11,11,11,1,"Friendships and relationships are just too difficult, so I tend not to 
  bother with them.",1,0,0,1,,
