instructions_exposure.started,instructions_exposure.stopped,instructions_exposure_loop.thisRepN,instructions_exposure_loop.thisTrialN,instructions_exposure_loop.thisN,instructions_exposure_loop.thisIndex,instructions_exposure_loop.ran,instructions_text,continue_text,participant_id,"What variety of Spanish are you most familiar with? (e.g., Peruvian, Spanish, Mexican)",At what age did you begin learning Spanish?,Are you proficient in any languages other than English/Spanish?,"Are you familiar with Caribbean (e.g., Caribbean, Puerto Rican) or Galician Spanish?",date,expName,psychopyVersion,OS,frameRate,id,study_id,session,trial_exposure.started,trial_exposure.stopped,key_resp_exposure.keys,key_resp_exposure.corr,key_resp_exposure.rt,key_resp_exposure.duration,key_resp.keys,exposure_loop.thisRepN,exposure_loop.thisTrialN,exposure_loop.thisN,exposure_loop.thisIndex,exposure_loop.ran,item_num,correct_response,question,path,duration,instructions_2afc.started,instructions_2afc.stopped,instructions_2afc_loop.thisRepN,instructions_2afc_loop.thisTrialN,instructions_2afc_loop.thisN,instructions_2afc_loop.thisIndex,instructions_2afc_loop.ran,practice_2afc.started,practice_2afc.stopped,key_resp_2afc_practice.keys,key_resp_2afc_practice.corr,key_resp_2afc_practice.rt,key_resp_2afc_practice.duration,trials_2afc_practice_loop.thisRepN,trials_2afc_practice_loop.thisTrialN,trials_2afc_practice_loop.thisN,trials_2afc_practice_loop.thisIndex,trials_2afc_practice_loop.ran,check_2afc.started,check_2afc.stopped,trial_2afc.started,trial_2afc.stopped,key_resp_2afc_trial.keys,key_resp_2afc_trial.corr,key_resp_2afc_trial.rt,key_resp_2afc_trial.duration,trials_2afc_loop.thisRepN,trials_2afc_loop.thisTrialN,trials_2afc_loop.thisN,trials_2afc_loop.thisIndex,trials_2afc_loop.ran,target,variety,instructions_lextale.started,instructions_lextale.stopped,instructions_lextale_loop.thisRepN,instructions_lextale_loop.thisTrialN,instructions_lextale_loop.thisN,instructions_lextale_loop.thisIndex,instructions_lextale_loop.ran,practice_lextale.started,practice_lextale.stopped,key_resp_lextale_practice.keys,key_resp_lextale_practice.corr,key_resp_lextale_practice.rt,key_resp_lextale_practice.duration,practice_feedback_lextale.started,practice_feedback_lextale.stopped,trials_lextale_practice_loop.thisRepN,trials_lextale_practice_loop.thisTrialN,trials_lextale_practice_loop.thisN,trials_lextale_practice_loop.thisIndex,trials_lextale_practice_loop.ran,stim,word,prac_button_real,prac_button_false,check_lextale.started,check_lextale.stopped,trial_lextale.started,trial_lextale.stopped,key_resp_lextale_trial.keys,key_resp_lextale_trial.corr,key_resp_lextale_trial.rt,key_resp_lextale_trial.duration,trials_lextale_loop.thisRepN,trials_lextale_loop.thisTrialN,trials_lextale_loop.thisN,trials_lextale_loop.thisIndex,trials_lextale_loop.ran,button_real,button_false,instructions_eq.started,instructions_eq.stopped,trial_eq.started,trial_eq.stopped,slider_eq_trial.response,trials_eq_loop.thisRepN,trials_eq_loop.thisTrialN,trials_eq_loop.thisN,trials_eq_loop.thisIndex,trials_eq_loop.ran,item,is_test_item,is_distractor,is_agree_score,is_disagree_score,end_exp.started,end_exp.stopped
0.0472,3.1187,0,0,0,0,1,"In the following task, you are going to hear a series of conversations.", (press the space bar to continue),672193644fb3e4b721e16394,Spanish,13 or older,"no, only English or Spanish",no,2025-07-22_22h46.09.039,empathy_intonation_perc,2024.2.4,Win32,60.21557175,672193644fb3e4b721e16394,687ed1b7e638a4cbf2f02089,68804ca9079d9c266fa6d7cc,,,,,,,,,,,,,,,,,,,,,,,,,,,,,,,,,,,,,,,,,,,,,,,,,,,,,,,,,,,,,,,,,,,,,,,,,,,,,,,,,,,,,,,,,,,,,,,,,,,,,,,,,,
3.1196,5.5083,0,1,1,1,1,It is okay if you don't not 100% understand them!, (press the space bar to continue),672193644fb3e4b721e16394,Spanish,13 or older,"no, only English or Spanish",no,2025-07-22_22h46.09.039,empathy_intonation_perc,2024.2.4,Win32,60.21557175,672193644fb3e4b721e16394,687ed1b7e638a4cbf2f02089,68804ca9079d9c266fa6d7cc,,,,,,,,,,,,,,,,,,,,,,,,,,,,,,,,,,,,,,,,,,,,,,,,,,,,,,,,,,,,,,,,,,,,,,,,,,,,,,,,,,,,,,,,,,,,,,,,,,,,,,,,,,
5.5148,7.5426,0,2,2,2,1,"After, you will read a sentence about the conversation and decide if it's true or false.", (press the space bar to continue),672193644fb3e4b721e16394,Spanish,13 or older,"no, only English or Spanish",no,2025-07-22_22h46.09.039,empathy_intonation_perc,2024.2.4,Win32,60.21557175,672193644fb3e4b721e16394,687ed1b7e638a4cbf2f02089,68804ca9079d9c266fa6d7cc,,,,,,,,,,,,,,,,,,,,,,,,,,,,,,,,,,,,,,,,,,,,,,,,,,,,,,,,,,,,,,,,,,,,,,,,,,,,,,,,,,,,,,,,,,,,,,,,,,,,,,,,,,
7.5456,10.4785,0,3,3,3,1,"If it's true, press '1' (True) and if it's false press '0' (False).", (press the space bar to continue),672193644fb3e4b721e16394,Spanish,13 or older,"no, only English or Spanish",no,2025-07-22_22h46.09.039,empathy_intonation_perc,2024.2.4,Win32,60.21557175,672193644fb3e4b721e16394,687ed1b7e638a4cbf2f02089,68804ca9079d9c266fa6d7cc,,,,,,,,,,,,,,,,,,,,,,,,,,,,,,,,,,,,,,,,,,,,,,,,,,,,,,,,,,,,,,,,,,,,,,,,,,,,,,,,,,,,,,,,,,,,,,,,,,,,,,,,,,
,,,,,,,,,672193644fb3e4b721e16394,Spanish,13 or older,"no, only English or Spanish",no,2025-07-22_22h46.09.039,empathy_intonation_perc,2024.2.4,Win32,60.21557175,672193644fb3e4b721e16394,687ed1b7e638a4cbf2f02089,68804ca9079d9c266fa6d7cc,10.4992,60.3087,0,1,13.7553,,,0,0,0,2,1,3,0,The mom already has rice.,./stim/exposure_wavs/pr_stimuli_convo.wav,36,,,,,,,,,,,,,,,,,,,,,,,,,,,,,,,,,,,,,,,,,,,,,,,,,,,,,,,,,,,,,,,,,,,,,,,,,,,,,,,,,,,,,,,,,
,,,,,,,,,672193644fb3e4b721e16394,Spanish,13 or older,"no, only English or Spanish",no,2025-07-22_22h46.09.039,empathy_intonation_perc,2024.2.4,Win32,60.21557175,672193644fb3e4b721e16394,687ed1b7e638a4cbf2f02089,68804ca9079d9c266fa6d7cc,60.3173,125.3606,0,0,18.0307,,,0,1,1,0,1,1,1,The son asked the mom if Aunt Marina is okay.,./stim/exposure_wavs/ga_stimuli_convo.wav,47,,,,,,,,,,,,,,,,,,,,,,,,,,,,,,,,,,,,,,,,,,,,,,,,,,,,,,,,,,,,,,,,,,,,,,,,,,,,,,,,,,,,,,,,,
,,,,,,,,,672193644fb3e4b721e16394,Spanish,13 or older,"no, only English or Spanish",no,2025-07-22_22h46.09.039,empathy_intonation_perc,2024.2.4,Win32,60.21557175,672193644fb3e4b721e16394,687ed1b7e638a4cbf2f02089,68804ca9079d9c266fa6d7cc,125.3846,193.369,1,1,7.9524,,,0,2,2,1,1,2,1,The mom asked the daughter if she already went to the supermarket.,./stim/exposure_wavs/dr_stimuli_convo.wav,60,,,,,,,,,,,,,,,,,,,,,,,,,,,,,,,,,,,,,,,,,,,,,,,,,,,,,,,,,,,,,,,,,,,,,,,,,,,,,,,,,,,,,,,,,
,,,,,,,"In the following task you are going to hear a series of utterances. 

  You will decide if the utterances sound like questions or not using your keyboard.", (press the spacebar to continue),672193644fb3e4b721e16394,Spanish,13 or older,"no, only English or Spanish",no,2025-07-22_22h46.09.039,empathy_intonation_perc,2024.2.4,Win32,60.21557175,672193644fb3e4b721e16394,687ed1b7e638a4cbf2f02089,68804ca9079d9c266fa6d7cc,,,,,,,,,,,,,,,,,,193.4043,200.2097,0,0,0,0,1,,,,,,,,,,,,,,,,,,,,,,,,,,,,,,,,,,,,,,,,,,,,,,,,,,,,,,,,,,,,,,,,,,,,,,,,,,,,,,,,,,
,,,,,,,"If you believe the utterance is a question, type '1' (for 'yes') and if you do not 
  believe it is a question type '0' (for 'no').

  Let's practice a bit...", (press the spacebar to continue),672193644fb3e4b721e16394,Spanish,13 or older,"no, only English or Spanish",no,2025-07-22_22h46.09.039,empathy_intonation_perc,2024.2.4,Win32,60.21557175,672193644fb3e4b721e16394,687ed1b7e638a4cbf2f02089,68804ca9079d9c266fa6d7cc,,,,,,,,,,,,,,,,,,200.2331,208.0314,0,1,1,1,1,,,,,,,,,,,,,,,,,,,,,,,,,,,,,,,,,,,,,,,,,,,,,,,,,,,,,,,,,,,,,,,,,,,,,,,,,,,,,,,,,,
,,,,,,,,,672193644fb3e4b721e16394,Spanish,13 or older,"no, only English or Spanish",no,2025-07-22_22h46.09.039,empathy_intonation_perc,2024.2.4,Win32,60.21557175,672193644fb3e4b721e16394,687ed1b7e638a4cbf2f02089,68804ca9079d9c266fa6d7cc,,,,,,,,,,,,,,0,,./stim/wavs/puertorican_statement_filler_La-nina-pinta-con-su-amiga.wav,,,,,,,,,208.0718,213.2714,0,1,4.669400001,,0,0,0,7,1,,,,,,,,,,,,,,,,,,,,,,,,,,,,,,,,,,,,,,,,,,,,,,,,,,,,,,,,,,,,,,,,,,,,,,,
,,,,,,,,,672193644fb3e4b721e16394,Spanish,13 or older,"no, only English or Spanish",no,2025-07-22_22h46.09.039,empathy_intonation_perc,2024.2.4,Win32,60.21557175,672193644fb3e4b721e16394,687ed1b7e638a4cbf2f02089,68804ca9079d9c266fa6d7cc,,,,,,,,,,,,,,1,,./stim/wavs/castilian_question_filler_Mi-esposo-conoce-al-chico.wav,,,,,,,,,213.2925,218.124,1,1,4.3127,,0,1,1,0,1,,,,,,,,,,,,,,,,,,,,,,,,,,,,,,,,,,,,,,,,,,,,,,,,,,,,,,,,,,,,,,,,,,,,,,,
,,,,,,,,,672193644fb3e4b721e16394,Spanish,13 or older,"no, only English or Spanish",no,2025-07-22_22h46.09.039,empathy_intonation_perc,2024.2.4,Win32,60.21557175,672193644fb3e4b721e16394,687ed1b7e638a4cbf2f02089,68804ca9079d9c266fa6d7cc,,,,,,,,,,,,,,0,,./stim/wavs/andalusian_statement_filler_Alberto-nunca-se-afeita.wav,,,,,,,,,218.1417,222.811,0,1,4.1389,,0,2,2,5,1,,,,,,,,,,,,,,,,,,,,,,,,,,,,,,,,,,,,,,,,,,,,,,,,,,,,,,,,,,,,,,,,,,,,,,,
,,,,,,,,,672193644fb3e4b721e16394,Spanish,13 or older,"no, only English or Spanish",no,2025-07-22_22h46.09.039,empathy_intonation_perc,2024.2.4,Win32,60.21557175,672193644fb3e4b721e16394,687ed1b7e638a4cbf2f02089,68804ca9079d9c266fa6d7cc,,,,,,,,,,,,,,1,,./stim/wavs/mexican_question_filler_Felipe-no-tiene-contrasena.wav,,,,,,,,,222.8289,225.8969,1,1,2.5461,,0,3,3,3,1,,,,,,,,,,,,,,,,,,,,,,,,,,,,,,,,,,,,,,,,,,,,,,,,,,,,,,,,,,,,,,,,,,,,,,,
,,,,,,,,,672193644fb3e4b721e16394,Spanish,13 or older,"no, only English or Spanish",no,2025-07-22_22h46.09.039,empathy_intonation_perc,2024.2.4,Win32,60.21557175,672193644fb3e4b721e16394,687ed1b7e638a4cbf2f02089,68804ca9079d9c266fa6d7cc,,,,,,,,,,,,,,0,,./stim/wavs/cuban_statement_filler_Cocinabas-por-la-noche.wav,,,,,,,,,225.9145,229.4329,0,1,3.0059,,0,4,4,4,1,,,,,,,,,,,,,,,,,,,,,,,,,,,,,,,,,,,,,,,,,,,,,,,,,,,,,,,,,,,,,,,,,,,,,,,
,,,,,,,,,672193644fb3e4b721e16394,Spanish,13 or older,"no, only English or Spanish",no,2025-07-22_22h46.09.039,empathy_intonation_perc,2024.2.4,Win32,60.21557175,672193644fb3e4b721e16394,687ed1b7e638a4cbf2f02089,68804ca9079d9c266fa6d7cc,,,,,,,,,,,,,,1,,./stim/wavs/chilean_question_filler_Mi-padre-cantaba-bien.wav,,,,,,,,,229.4511,232.8529,0,0,2.884400001,,0,5,5,2,1,,,,,,,,,,,,,,,,,,,,,,,,,,,,,,,,,,,,,,,,,,,,,,,,,,,,,,,,,,,,,,,,,,,,,,,
,,,,,,,,,672193644fb3e4b721e16394,Spanish,13 or older,"no, only English or Spanish",no,2025-07-22_22h46.09.039,empathy_intonation_perc,2024.2.4,Win32,60.21557175,672193644fb3e4b721e16394,687ed1b7e638a4cbf2f02089,68804ca9079d9c266fa6d7cc,,,,,,,,,,,,,,0,,./stim/wavs/peruvian_statement_filler_El-nino-habla-con-su-madre.wav,,,,,,,,,232.8535,236.4392,0,1,3.0567,,0,6,6,6,1,,,,,,,,,,,,,,,,,,,,,,,,,,,,,,,,,,,,,,,,,,,,,,,,,,,,,,,,,,,,,,,,,,,,,,,
,,,,,,,,,672193644fb3e4b721e16394,Spanish,13 or older,"no, only English or Spanish",no,2025-07-22_22h46.09.039,empathy_intonation_perc,2024.2.4,Win32,60.21557175,672193644fb3e4b721e16394,687ed1b7e638a4cbf2f02089,68804ca9079d9c266fa6d7cc,,,,,,,,,,,,,,1,,./stim/wavs/argentine_question_filler_Mi-vecino-habla-mucho.wav,,,,,,,,,236.4586,238.9582,1,1,1.9661,,0,7,7,1,1,,,,,,,,,,,,,,,,,,,,,,,,,,,,,,,,,,,,,,,,,,,,,,,,,,,,,,,,,,,,,,,,,,,,,,,
,,,,,,,,,672193644fb3e4b721e16394,Spanish,13 or older,"no, only English or Spanish",no,2025-07-22_22h46.09.039,empathy_intonation_perc,2024.2.4,Win32,60.21557175,672193644fb3e4b721e16394,687ed1b7e638a4cbf2f02089,68804ca9079d9c266fa6d7cc,,,,,,,,,,,,,,,,,,,,,,,,,,,,,,,,,,,,238.9593,244.4302,,,,,,,,,,,,,,,,,,,,,,,,,,,,,,,,,,,,,,,,,,,,,,,,,,,,,,,,,,,,,,,,,,,,,
,,,,,,,,,672193644fb3e4b721e16394,Spanish,13 or older,"no, only English or Spanish",no,2025-07-22_22h46.09.039,empathy_intonation_perc,2024.2.4,Win32,60.21557175,672193644fb3e4b721e16394,687ed1b7e638a4cbf2f02089,68804ca9079d9c266fa6d7cc,,,,,,,,,,,,,9,1,,./stim/wavs/cuban_match_interrogative-total-yn_Manuela-vende-el-carro.wav,,,,,,,,,,,,,,,,,,,,,,244.4984,246.7371,0,0,1.7209,,0,0,0,8,1,1,cuban,,,,,,,,,,,,,,,,,,,,,,,,,,,,,,,,,,,,,,,,,,,,,,,,,,,,,,,,
,,,,,,,,,672193644fb3e4b721e16394,Spanish,13 or older,"no, only English or Spanish",no,2025-07-22_22h46.09.039,empathy_intonation_perc,2024.2.4,Win32,60.21557175,672193644fb3e4b721e16394,687ed1b7e638a4cbf2f02089,68804ca9079d9c266fa6d7cc,,,,,,,,,,,,,11,1,,./stim/wavs/cuban_match_interrogative-total-yn_Mariano-habla-del-tiempo.wav,,,,,,,,,,,,,,,,,,,,,,246.7384,249.2542,0,0,2.0018,,0,1,1,10,1,1,cuban,,,,,,,,,,,,,,,,,,,,,,,,,,,,,,,,,,,,,,,,,,,,,,,,,,,,,,,,
,,,,,,,,,672193644fb3e4b721e16394,Spanish,13 or older,"no, only English or Spanish",no,2025-07-22_22h46.09.039,empathy_intonation_perc,2024.2.4,Win32,60.21557175,672193644fb3e4b721e16394,687ed1b7e638a4cbf2f02089,68804ca9079d9c266fa6d7cc,,,,,,,,,,,,,63,0,,./stim/wavs/puertorican_match_declarative-broad-focus_Ana-lleva-el-abrigo.wav,,,,,,,,,,,,,,,,,,,,,,249.255,251.6356,0,1,1.8596,,0,2,2,62,1,0,puertorican,,,,,,,,,,,,,,,,,,,,,,,,,,,,,,,,,,,,,,,,,,,,,,,,,,,,,,,,
,,,,,,,,,672193644fb3e4b721e16394,Spanish,13 or older,"no, only English or Spanish",no,2025-07-22_22h46.09.039,empathy_intonation_perc,2024.2.4,Win32,60.21557175,672193644fb3e4b721e16394,687ed1b7e638a4cbf2f02089,68804ca9079d9c266fa6d7cc,,,,,,,,,,,,,61,0,,./stim/wavs/mexican_match_declarative-broad-focus_Mariano-habla-del-tiempo.wav,,,,,,,,,,,,,,,,,,,,,,251.6612,254.5401,0,1,2.3386,,0,3,3,60,1,0,mexican,,,,,,,,,,,,,,,,,,,,,,,,,,,,,,,,,,,,,,,,,,,,,,,,,,,,,,,,
,,,,,,,,,672193644fb3e4b721e16394,Spanish,13 or older,"no, only English or Spanish",no,2025-07-22_22h46.09.039,empathy_intonation_perc,2024.2.4,Win32,60.21557175,672193644fb3e4b721e16394,687ed1b7e638a4cbf2f02089,68804ca9079d9c266fa6d7cc,,,,,,,,,,,,,87,0,,./stim/wavs/puertorican_mismatch_declarative-broad-focus_La-maestra-vive-en-Paris.wav,,,,,,,,,,,,,,,,,,,,,,254.542,257.3576,0,1,2.2923,,0,4,4,86,1,0,puertorican,,,,,,,,,,,,,,,,,,,,,,,,,,,,,,,,,,,,,,,,,,,,,,,,,,,,,,,,
,,,,,,,,,672193644fb3e4b721e16394,Spanish,13 or older,"no, only English or Spanish",no,2025-07-22_22h46.09.039,empathy_intonation_perc,2024.2.4,Win32,60.21557175,672193644fb3e4b721e16394,687ed1b7e638a4cbf2f02089,68804ca9079d9c266fa6d7cc,,,,,,,,,,,,,66,0,,./stim/wavs/puertorican_match_declarative-broad-focus_Emilio-ama-la-marcha.wav,,,,,,,,,,,,,,,,,,,,,,257.3581,260.6643,0,1,2.7851,,0,5,5,65,1,0,puertorican,,,,,,,,,,,,,,,,,,,,,,,,,,,,,,,,,,,,,,,,,,,,,,,,,,,,,,,,
,,,,,,,,,672193644fb3e4b721e16394,Spanish,13 or older,"no, only English or Spanish",no,2025-07-22_22h46.09.039,empathy_intonation_perc,2024.2.4,Win32,60.21557175,672193644fb3e4b721e16394,687ed1b7e638a4cbf2f02089,68804ca9079d9c266fa6d7cc,,,,,,,,,,,,,22,1,,./stim/wavs/puertorican_match_interrogative-total-yn_Emilio-ama-la-marcha.wav,,,,,,,,,,,,,,,,,,,,,,260.6997,266.8992,0,0,5.6746,,0,6,6,21,1,1,puertorican,,,,,,,,,,,,,,,,,,,,,,,,,,,,,,,,,,,,,,,,,,,,,,,,,,,,,,,,
,,,,,,,,,672193644fb3e4b721e16394,Spanish,13 or older,"no, only English or Spanish",no,2025-07-22_22h46.09.039,empathy_intonation_perc,2024.2.4,Win32,60.21557175,672193644fb3e4b721e16394,687ed1b7e638a4cbf2f02089,68804ca9079d9c266fa6d7cc,,,,,,,,,,,,,2,1,,./stim/wavs/castilian_match_interrogative-total-yn_Emilio-ama-la-marcha.wav,,,,,,,,,,,,,,,,,,,,,,266.9225,270.1519,1,1,2.713799999,,0,7,7,1,1,0,castilian,,,,,,,,,,,,,,,,,,,,,,,,,,,,,,,,,,,,,,,,,,,,,,,,,,,,,,,,
,,,,,,,,,672193644fb3e4b721e16394,Spanish,13 or older,"no, only English or Spanish",no,2025-07-22_22h46.09.039,empathy_intonation_perc,2024.2.4,Win32,60.21557175,672193644fb3e4b721e16394,687ed1b7e638a4cbf2f02089,68804ca9079d9c266fa6d7cc,,,,,,,,,,,,,58,0,,./stim/wavs/mexican_match_declarative-broad-focus_Daniel-iba-a-Bolivia.wav,,,,,,,,,,,,,,,,,,,,,,270.1718,275.439,0,1,4.7425,,0,8,8,57,1,0,mexican,,,,,,,,,,,,,,,,,,,,,,,,,,,,,,,,,,,,,,,,,,,,,,,,,,,,,,,,
,,,,,,,,,672193644fb3e4b721e16394,Spanish,13 or older,"no, only English or Spanish",no,2025-07-22_22h46.09.039,empathy_intonation_perc,2024.2.4,Win32,60.21557175,672193644fb3e4b721e16394,687ed1b7e638a4cbf2f02089,68804ca9079d9c266fa6d7cc,,,,,,,,,,,,,73,0,,./stim/wavs/castilian_mismatch_declarative-broad-focus_Mi-tia-odia-la-lluvia.wav,,,,,,,,,,,,,,,,,,,,,,275.4538,277.9595,1,0,1.987,,0,9,9,72,1,0,castilian,,,,,,,,,,,,,,,,,,,,,,,,,,,,,,,,,,,,,,,,,,,,,,,,,,,,,,,,
,,,,,,,,,672193644fb3e4b721e16394,Spanish,13 or older,"no, only English or Spanish",no,2025-07-22_22h46.09.039,empathy_intonation_perc,2024.2.4,Win32,60.21557175,672193644fb3e4b721e16394,687ed1b7e638a4cbf2f02089,68804ca9079d9c266fa6d7cc,,,,,,,,,,,,,42,1,,./stim/wavs/puertorican_mismatch_interrogative-total-yn_La-maestra-vive-en-Paris.wav,,,,,,,,,,,,,,,,,,,,,,277.982,280.8782,0,0,2.3709,,0,10,10,41,1,1,puertorican,,,,,,,,,,,,,,,,,,,,,,,,,,,,,,,,,,,,,,,,,,,,,,,,,,,,,,,,
,,,,,,,,,672193644fb3e4b721e16394,Spanish,13 or older,"no, only English or Spanish",no,2025-07-22_22h46.09.039,empathy_intonation_perc,2024.2.4,Win32,60.21557175,672193644fb3e4b721e16394,687ed1b7e638a4cbf2f02089,68804ca9079d9c266fa6d7cc,,,,,,,,,,,,,82,0,,./stim/wavs/mexican_mismatch_declarative-broad-focus_Mi-novio-viene-del-lago.wav,,,,,,,,,,,,,,,,,,,,,,280.8788,283.2462,0,1,1.8417,,0,11,11,81,1,0,mexican,,,,,,,,,,,,,,,,,,,,,,,,,,,,,,,,,,,,,,,,,,,,,,,,,,,,,,,,
,,,,,,,,,672193644fb3e4b721e16394,Spanish,13 or older,"no, only English or Spanish",no,2025-07-22_22h46.09.039,empathy_intonation_perc,2024.2.4,Win32,60.21557175,672193644fb3e4b721e16394,687ed1b7e638a4cbf2f02089,68804ca9079d9c266fa6d7cc,,,,,,,,,,,,,48,0,,./stim/wavs/castilian_match_declarative-broad-focus_Maria-bebe-el-vino.wav,,,,,,,,,,,,,,,,,,,,,,283.2468,286.4493,0,1,2.6733,,0,12,12,47,1,0,castilian,,,,,,,,,,,,,,,,,,,,,,,,,,,,,,,,,,,,,,,,,,,,,,,,,,,,,,,,
,,,,,,,,,672193644fb3e4b721e16394,Spanish,13 or older,"no, only English or Spanish",no,2025-07-22_22h46.09.039,empathy_intonation_perc,2024.2.4,Win32,60.21557175,672193644fb3e4b721e16394,687ed1b7e638a4cbf2f02089,68804ca9079d9c266fa6d7cc,,,,,,,,,,,,,71,0,,./stim/wavs/castilian_mismatch_declarative-broad-focus_La-nina-lava-el-plato.wav,,,,,,,,,,,,,,,,,,,,,,286.4712,289.3514,0,1,2.3594,,0,13,13,70,1,0,castilian,,,,,,,,,,,,,,,,,,,,,,,,,,,,,,,,,,,,,,,,,,,,,,,,,,,,,,,,
,,,,,,,,,672193644fb3e4b721e16394,Spanish,13 or older,"no, only English or Spanish",no,2025-07-22_22h46.09.039,empathy_intonation_perc,2024.2.4,Win32,60.21557175,672193644fb3e4b721e16394,687ed1b7e638a4cbf2f02089,68804ca9079d9c266fa6d7cc,,,,,,,,,,,,,38,1,,./stim/wavs/mexican_mismatch_interrogative-total-yn_Mi-novio-viene-del-lago.wav,,,,,,,,,,,,,,,,,,,,,,289.3522,291.8535,1,1,1.9698,,0,14,14,37,1,0,mexican,,,,,,,,,,,,,,,,,,,,,,,,,,,,,,,,,,,,,,,,,,,,,,,,,,,,,,,,
,,,,,,,,,672193644fb3e4b721e16394,Spanish,13 or older,"no, only English or Spanish",no,2025-07-22_22h46.09.039,empathy_intonation_perc,2024.2.4,Win32,60.21557175,672193644fb3e4b721e16394,687ed1b7e638a4cbf2f02089,68804ca9079d9c266fa6d7cc,,,,,,,,,,,,,55,0,,./stim/wavs/cuban_match_declarative-broad-focus_Mariano-habla-del-tiempo.wav,,,,,,,,,,,,,,,,,,,,,,291.8735,294.4572,0,1,2.0579,,0,15,15,54,1,0,cuban,,,,,,,,,,,,,,,,,,,,,,,,,,,,,,,,,,,,,,,,,,,,,,,,,,,,,,,,
,,,,,,,,,672193644fb3e4b721e16394,Spanish,13 or older,"no, only English or Spanish",no,2025-07-22_22h46.09.039,empathy_intonation_perc,2024.2.4,Win32,60.21557175,672193644fb3e4b721e16394,687ed1b7e638a4cbf2f02089,68804ca9079d9c266fa6d7cc,,,,,,,,,,,,,46,0,,./stim/wavs/castilian_match_declarative-broad-focus_Emilio-ama-la-marcha.wav,,,,,,,,,,,,,,,,,,,,,,294.46,297.2806,0,1,2.3022,,0,16,16,45,1,0,castilian,,,,,,,,,,,,,,,,,,,,,,,,,,,,,,,,,,,,,,,,,,,,,,,,,,,,,,,,
,,,,,,,,,672193644fb3e4b721e16394,Spanish,13 or older,"no, only English or Spanish",no,2025-07-22_22h46.09.039,empathy_intonation_perc,2024.2.4,Win32,60.21557175,672193644fb3e4b721e16394,687ed1b7e638a4cbf2f02089,68804ca9079d9c266fa6d7cc,,,,,,,,,,,,,52,0,,./stim/wavs/cuban_match_declarative-broad-focus_Daniel-iba-a-Bolivia.wav,,,,,,,,,,,,,,,,,,,,,,297.2814,300.5283,0,1,2.726099999,,0,17,17,51,1,0,cuban,,,,,,,,,,,,,,,,,,,,,,,,,,,,,,,,,,,,,,,,,,,,,,,,,,,,,,,,
,,,,,,,,,672193644fb3e4b721e16394,Spanish,13 or older,"no, only English or Spanish",no,2025-07-22_22h46.09.039,empathy_intonation_perc,2024.2.4,Win32,60.21557175,672193644fb3e4b721e16394,687ed1b7e638a4cbf2f02089,68804ca9079d9c266fa6d7cc,,,,,,,,,,,,,3,1,,./stim/wavs/castilian_match_interrogative-total-yn_Manuela-vende-el-carro.wav,,,,,,,,,,,,,,,,,,,,,,300.5659,303.4023,0,0,2.318799999,,0,18,18,2,1,0,castilian,,,,,,,,,,,,,,,,,,,,,,,,,,,,,,,,,,,,,,,,,,,,,,,,,,,,,,,,
,,,,,,,,,672193644fb3e4b721e16394,Spanish,13 or older,"no, only English or Spanish",no,2025-07-22_22h46.09.039,empathy_intonation_perc,2024.2.4,Win32,60.21557175,672193644fb3e4b721e16394,687ed1b7e638a4cbf2f02089,68804ca9079d9c266fa6d7cc,,,,,,,,,,,,,76,0,,./stim/wavs/cuban_mismatch_declarative-broad-focus_La-nina-lava-el-plato.wav,,,,,,,,,,,,,,,,,,,,,,303.4036,306.0827,1,0,2.1362,,0,19,19,75,1,0,cuban,,,,,,,,,,,,,,,,,,,,,,,,,,,,,,,,,,,,,,,,,,,,,,,,,,,,,,,,
,,,,,,,,,672193644fb3e4b721e16394,Spanish,13 or older,"no, only English or Spanish",no,2025-07-22_22h46.09.039,empathy_intonation_perc,2024.2.4,Win32,60.21557175,672193644fb3e4b721e16394,687ed1b7e638a4cbf2f02089,68804ca9079d9c266fa6d7cc,,,,,,,,,,,,,78,0,,./stim/wavs/cuban_mismatch_declarative-broad-focus_Mi-tia-odia-la-lluvia.wav,,,,,,,,,,,,,,,,,,,,,,306.1034,308.5883,0,1,1.9683,,0,20,20,77,1,0,cuban,,,,,,,,,,,,,,,,,,,,,,,,,,,,,,,,,,,,,,,,,,,,,,,,,,,,,,,,
,,,,,,,,,672193644fb3e4b721e16394,Spanish,13 or older,"no, only English or Spanish",no,2025-07-22_22h46.09.039,empathy_intonation_perc,2024.2.4,Win32,60.21557175,672193644fb3e4b721e16394,687ed1b7e638a4cbf2f02089,68804ca9079d9c266fa6d7cc,,,,,,,,,,,,,27,1,,./stim/wavs/castilian_mismatch_interrogative-total-yn_Mi-madre-come-la-fruta.wav,,,,,,,,,,,,,,,,,,,,,,308.5889,311.2041,1,1,2.0858,,0,21,21,26,1,0,castilian,,,,,,,,,,,,,,,,,,,,,,,,,,,,,,,,,,,,,,,,,,,,,,,,,,,,,,,,
,,,,,,,,,672193644fb3e4b721e16394,Spanish,13 or older,"no, only English or Spanish",no,2025-07-22_22h46.09.039,empathy_intonation_perc,2024.2.4,Win32,60.21557175,672193644fb3e4b721e16394,687ed1b7e638a4cbf2f02089,68804ca9079d9c266fa6d7cc,,,,,,,,,,,,,57,0,,./stim/wavs/mexican_match_declarative-broad-focus_Ana-lleva-el-abrigo.wav,,,,,,,,,,,,,,,,,,,,,,311.2049,313.4391,0,1,1.705,,0,22,22,56,1,0,mexican,,,,,,,,,,,,,,,,,,,,,,,,,,,,,,,,,,,,,,,,,,,,,,,,,,,,,,,,
,,,,,,,,,672193644fb3e4b721e16394,Spanish,13 or older,"no, only English or Spanish",no,2025-07-22_22h46.09.039,empathy_intonation_perc,2024.2.4,Win32,60.21557175,672193644fb3e4b721e16394,687ed1b7e638a4cbf2f02089,68804ca9079d9c266fa6d7cc,,,,,,,,,,,,,20,1,,./stim/wavs/puertorican_match_interrogative-total-yn_Daniel-iba-a-Bolivia.wav,,,,,,,,,,,,,,,,,,,,,,313.4397,317.0955,0,0,3.135200001,,0,23,23,19,1,1,puertorican,,,,,,,,,,,,,,,,,,,,,,,,,,,,,,,,,,,,,,,,,,,,,,,,,,,,,,,,
,,,,,,,,,672193644fb3e4b721e16394,Spanish,13 or older,"no, only English or Spanish",no,2025-07-22_22h46.09.039,empathy_intonation_perc,2024.2.4,Win32,60.21557175,672193644fb3e4b721e16394,687ed1b7e638a4cbf2f02089,68804ca9079d9c266fa6d7cc,,,,,,,,,,,,,56,0,,./stim/wavs/cuban_match_declarative-broad-focus_Marta-abre-el-regalo.wav,,,,,,,,,,,,,,,,,,,,,,317.1183,320.6006,0,1,2.9538,,0,24,24,55,1,0,cuban,,,,,,,,,,,,,,,,,,,,,,,,,,,,,,,,,,,,,,,,,,,,,,,,,,,,,,,,
,,,,,,,,,672193644fb3e4b721e16394,Spanish,13 or older,"no, only English or Spanish",no,2025-07-22_22h46.09.039,empathy_intonation_perc,2024.2.4,Win32,60.21557175,672193644fb3e4b721e16394,687ed1b7e638a4cbf2f02089,68804ca9079d9c266fa6d7cc,,,,,,,,,,,,,50,0,,./stim/wavs/castilian_match_declarative-broad-focus_Marta-abre-el-regalo.wav,,,,,,,,,,,,,,,,,,,,,,320.6228,323.5976,0,1,2.436200001,,0,25,25,49,1,0,castilian,,,,,,,,,,,,,,,,,,,,,,,,,,,,,,,,,,,,,,,,,,,,,,,,,,,,,,,,
,,,,,,,,,672193644fb3e4b721e16394,Spanish,13 or older,"no, only English or Spanish",no,2025-07-22_22h46.09.039,empathy_intonation_perc,2024.2.4,Win32,60.21557175,672193644fb3e4b721e16394,687ed1b7e638a4cbf2f02089,68804ca9079d9c266fa6d7cc,,,,,,,,,,,,,67,0,,./stim/wavs/puertorican_match_declarative-broad-focus_Manuela-vende-el-carro.wav,,,,,,,,,,,,,,,,,,,,,,323.5991,325.8993,0,1,1.768400001,,0,26,26,66,1,0,puertorican,,,,,,,,,,,,,,,,,,,,,,,,,,,,,,,,,,,,,,,,,,,,,,,,,,,,,,,,
,,,,,,,,,672193644fb3e4b721e16394,Spanish,13 or older,"no, only English or Spanish",no,2025-07-22_22h46.09.039,empathy_intonation_perc,2024.2.4,Win32,60.21557175,672193644fb3e4b721e16394,687ed1b7e638a4cbf2f02089,68804ca9079d9c266fa6d7cc,,,,,,,,,,,,,34,1,,./stim/wavs/cuban_mismatch_interrogative-total-yn_Mi-tia-odia-la-lluvia.wav,,,,,,,,,,,,,,,,,,,,,,325.9148,328.4352,0,0,2.0118,,0,27,27,33,1,1,cuban,,,,,,,,,,,,,,,,,,,,,,,,,,,,,,,,,,,,,,,,,,,,,,,,,,,,,,,,
,,,,,,,,,672193644fb3e4b721e16394,Spanish,13 or older,"no, only English or Spanish",no,2025-07-22_22h46.09.039,empathy_intonation_perc,2024.2.4,Win32,60.21557175,672193644fb3e4b721e16394,687ed1b7e638a4cbf2f02089,68804ca9079d9c266fa6d7cc,,,,,,,,,,,,,37,1,,./stim/wavs/mexican_mismatch_interrogative-total-yn_La-maestra-vive-en-Paris.wav,,,,,,,,,,,,,,,,,,,,,,328.4359,330.4046,0,0,1.444,,0,28,28,36,1,0,mexican,,,,,,,,,,,,,,,,,,,,,,,,,,,,,,,,,,,,,,,,,,,,,,,,,,,,,,,,
,,,,,,,,,672193644fb3e4b721e16394,Spanish,13 or older,"no, only English or Spanish",no,2025-07-22_22h46.09.039,empathy_intonation_perc,2024.2.4,Win32,60.21557175,672193644fb3e4b721e16394,687ed1b7e638a4cbf2f02089,68804ca9079d9c266fa6d7cc,,,,,,,,,,,,,41,1,,./stim/wavs/puertorican_mismatch_interrogative-total-yn_El-nino-oye-el-rio.wav,,,,,,,,,,,,,,,,,,,,,,330.4056,332.7726,0,0,1.844299999,,0,29,29,40,1,1,puertorican,,,,,,,,,,,,,,,,,,,,,,,,,,,,,,,,,,,,,,,,,,,,,,,,,,,,,,,,
,,,,,,,,,672193644fb3e4b721e16394,Spanish,13 or older,"no, only English or Spanish",no,2025-07-22_22h46.09.039,empathy_intonation_perc,2024.2.4,Win32,60.21557175,672193644fb3e4b721e16394,687ed1b7e638a4cbf2f02089,68804ca9079d9c266fa6d7cc,,,,,,,,,,,,,80,0,,./stim/wavs/mexican_mismatch_declarative-broad-focus_El-hombre-mira-la-luna.wav,,,,,,,,,,,,,,,,,,,,,,332.7737,335.4244,0,1,2.1192,,0,30,30,79,1,0,mexican,,,,,,,,,,,,,,,,,,,,,,,,,,,,,,,,,,,,,,,,,,,,,,,,,,,,,,,,
,,,,,,,,,672193644fb3e4b721e16394,Spanish,13 or older,"no, only English or Spanish",no,2025-07-22_22h46.09.039,empathy_intonation_perc,2024.2.4,Win32,60.21557175,672193644fb3e4b721e16394,687ed1b7e638a4cbf2f02089,68804ca9079d9c266fa6d7cc,,,,,,,,,,,,,13,1,,./stim/wavs/mexican_match_interrogative-total-yn_Ana-lleva-el-abrigo.wav,,,,,,,,,,,,,,,,,,,,,,335.4251,337.9766,1,1,2.023,,0,31,31,12,1,0,mexican,,,,,,,,,,,,,,,,,,,,,,,,,,,,,,,,,,,,,,,,,,,,,,,,,,,,,,,,
,,,,,,,,,672193644fb3e4b721e16394,Spanish,13 or older,"no, only English or Spanish",no,2025-07-22_22h46.09.039,empathy_intonation_perc,2024.2.4,Win32,60.21557175,672193644fb3e4b721e16394,687ed1b7e638a4cbf2f02089,68804ca9079d9c266fa6d7cc,,,,,,,,,,,,,5,1,,./stim/wavs/castilian_match_interrogative-total-yn_Mariano-habla-del-tiempo.wav,,,,,,,,,,,,,,,,,,,,,,337.9968,340.7289,1,1,2.212,,0,32,32,4,1,0,castilian,,,,,,,,,,,,,,,,,,,,,,,,,,,,,,,,,,,,,,,,,,,,,,,,,,,,,,,,
,,,,,,,,,672193644fb3e4b721e16394,Spanish,13 or older,"no, only English or Spanish",no,2025-07-22_22h46.09.039,empathy_intonation_perc,2024.2.4,Win32,60.21557175,672193644fb3e4b721e16394,687ed1b7e638a4cbf2f02089,68804ca9079d9c266fa6d7cc,,,,,,,,,,,,,36,1,,./stim/wavs/mexican_mismatch_interrogative-total-yn_El-nino-oye-el-rio.wav,,,,,,,,,,,,,,,,,,,,,,340.7296,411.5563,0,0,70.3102,,0,33,33,35,1,0,mexican,,,,,,,,,,,,,,,,,,,,,,,,,,,,,,,,,,,,,,,,,,,,,,,,,,,,,,,,
,,,,,,,,,672193644fb3e4b721e16394,Spanish,13 or older,"no, only English or Spanish",no,2025-07-22_22h46.09.039,empathy_intonation_perc,2024.2.4,Win32,60.21557175,672193644fb3e4b721e16394,687ed1b7e638a4cbf2f02089,68804ca9079d9c266fa6d7cc,,,,,,,,,,,,,60,0,,./stim/wavs/mexican_match_declarative-broad-focus_Emilio-ama-la-marcha.wav,,,,,,,,,,,,,,,,,,,,,,411.5783,413.7105,0,1,1.6097,,0,34,34,59,1,0,mexican,,,,,,,,,,,,,,,,,,,,,,,,,,,,,,,,,,,,,,,,,,,,,,,,,,,,,,,,
,,,,,,,,,672193644fb3e4b721e16394,Spanish,13 or older,"no, only English or Spanish",no,2025-07-22_22h46.09.039,empathy_intonation_perc,2024.2.4,Win32,60.21557175,672193644fb3e4b721e16394,687ed1b7e638a4cbf2f02089,68804ca9079d9c266fa6d7cc,,,,,,,,,,,,,40,1,,./stim/wavs/puertorican_mismatch_interrogative-total-yn_El-hombre-mira-la-luna.wav,,,,,,,,,,,,,,,,,,,,,,413.7111,415.6438,1,1,1.4097,,0,35,35,39,1,1,puertorican,,,,,,,,,,,,,,,,,,,,,,,,,,,,,,,,,,,,,,,,,,,,,,,,,,,,,,,,
,,,,,,,,,672193644fb3e4b721e16394,Spanish,13 or older,"no, only English or Spanish",no,2025-07-22_22h46.09.039,empathy_intonation_perc,2024.2.4,Win32,60.21557175,672193644fb3e4b721e16394,687ed1b7e638a4cbf2f02089,68804ca9079d9c266fa6d7cc,,,,,,,,,,,,,35,1,,./stim/wavs/mexican_mismatch_interrogative-total-yn_El-hombre-mira-la-luna.wav,,,,,,,,,,,,,,,,,,,,,,415.6467,417.1946,0,0,1.0276,,0,36,36,34,1,0,mexican,,,,,,,,,,,,,,,,,,,,,,,,,,,,,,,,,,,,,,,,,,,,,,,,,,,,,,,,
,,,,,,,,,672193644fb3e4b721e16394,Spanish,13 or older,"no, only English or Spanish",no,2025-07-22_22h46.09.039,empathy_intonation_perc,2024.2.4,Win32,60.21557175,672193644fb3e4b721e16394,687ed1b7e638a4cbf2f02089,68804ca9079d9c266fa6d7cc,,,,,,,,,,,,,7,1,,./stim/wavs/cuban_match_interrogative-total-yn_Ana-lleva-el-abrigo.wav,,,,,,,,,,,,,,,,,,,,,,417.1951,418.9965,1,1,1.284,,0,37,37,6,1,1,cuban,,,,,,,,,,,,,,,,,,,,,,,,,,,,,,,,,,,,,,,,,,,,,,,,,,,,,,,,
,,,,,,,,,672193644fb3e4b721e16394,Spanish,13 or older,"no, only English or Spanish",no,2025-07-22_22h46.09.039,empathy_intonation_perc,2024.2.4,Win32,60.21557175,672193644fb3e4b721e16394,687ed1b7e638a4cbf2f02089,68804ca9079d9c266fa6d7cc,,,,,,,,,,,,,43,1,,./stim/wavs/puertorican_mismatch_interrogative-total-yn_La-nina-lava-el-plato.wav,,,,,,,,,,,,,,,,,,,,,,418.997,420.8983,0,0,1.395400001,,0,38,38,42,1,1,puertorican,,,,,,,,,,,,,,,,,,,,,,,,,,,,,,,,,,,,,,,,,,,,,,,,,,,,,,,,
,,,,,,,,,672193644fb3e4b721e16394,Spanish,13 or older,"no, only English or Spanish",no,2025-07-22_22h46.09.039,empathy_intonation_perc,2024.2.4,Win32,60.21557175,672193644fb3e4b721e16394,687ed1b7e638a4cbf2f02089,68804ca9079d9c266fa6d7cc,,,,,,,,,,,,,4,1,,./stim/wavs/castilian_match_interrogative-total-yn_Maria-bebe-el-vino.wav,,,,,,,,,,,,,,,,,,,,,,420.899,422.7998,1,1,1.371,,0,39,39,3,1,0,castilian,,,,,,,,,,,,,,,,,,,,,,,,,,,,,,,,,,,,,,,,,,,,,,,,,,,,,,,,
,,,,,,,,,672193644fb3e4b721e16394,Spanish,13 or older,"no, only English or Spanish",no,2025-07-22_22h46.09.039,empathy_intonation_perc,2024.2.4,Win32,60.21557175,672193644fb3e4b721e16394,687ed1b7e638a4cbf2f02089,68804ca9079d9c266fa6d7cc,,,,,,,,,,,,,1,1,,./stim/wavs/castilian_match_interrogative-total-yn_David-leia-el-libro.wav,,,,,,,,,,,,,,,,,,,,,,422.8003,424.6678,1,1,1.3338,,0,40,40,0,1,0,castilian,,,,,,,,,,,,,,,,,,,,,,,,,,,,,,,,,,,,,,,,,,,,,,,,,,,,,,,,
,,,,,,,,,672193644fb3e4b721e16394,Spanish,13 or older,"no, only English or Spanish",no,2025-07-22_22h46.09.039,empathy_intonation_perc,2024.2.4,Win32,60.21557175,672193644fb3e4b721e16394,687ed1b7e638a4cbf2f02089,68804ca9079d9c266fa6d7cc,,,,,,,,,,,,,19,1,,./stim/wavs/puertorican_match_interrogative-total-yn_Ana-lleva-el-abrigo.wav,,,,,,,,,,,,,,,,,,,,,,424.6683,426.6531,0,0,1.4667,,0,41,41,18,1,1,puertorican,,,,,,,,,,,,,,,,,,,,,,,,,,,,,,,,,,,,,,,,,,,,,,,,,,,,,,,,
,,,,,,,,,672193644fb3e4b721e16394,Spanish,13 or older,"no, only English or Spanish",no,2025-07-22_22h46.09.039,empathy_intonation_perc,2024.2.4,Win32,60.21557175,672193644fb3e4b721e16394,687ed1b7e638a4cbf2f02089,68804ca9079d9c266fa6d7cc,,,,,,,,,,,,,65,0,,./stim/wavs/puertorican_match_declarative-broad-focus_David-leia-el-libro.wav,,,,,,,,,,,,,,,,,,,,,,426.6549,428.9219,1,0,1.7374,,0,42,42,64,1,0,puertorican,,,,,,,,,,,,,,,,,,,,,,,,,,,,,,,,,,,,,,,,,,,,,,,,,,,,,,,,
,,,,,,,,,672193644fb3e4b721e16394,Spanish,13 or older,"no, only English or Spanish",no,2025-07-22_22h46.09.039,empathy_intonation_perc,2024.2.4,Win32,60.21557175,672193644fb3e4b721e16394,687ed1b7e638a4cbf2f02089,68804ca9079d9c266fa6d7cc,,,,,,,,,,,,,84,0,,./stim/wavs/puertorican_mismatch_declarative-broad-focus_El-bebe-comia-muy-bien.wav,,,,,,,,,,,,,,,,,,,,,,428.9226,431.0069,0,1,1.5557,,0,43,43,83,1,0,puertorican,,,,,,,,,,,,,,,,,,,,,,,,,,,,,,,,,,,,,,,,,,,,,,,,,,,,,,,,
,,,,,,,,,672193644fb3e4b721e16394,Spanish,13 or older,"no, only English or Spanish",no,2025-07-22_22h46.09.039,empathy_intonation_perc,2024.2.4,Win32,60.21557175,672193644fb3e4b721e16394,687ed1b7e638a4cbf2f02089,68804ca9079d9c266fa6d7cc,,,,,,,,,,,,,45,0,,./stim/wavs/castilian_match_declarative-broad-focus_David-leia-el-libro.wav,,,,,,,,,,,,,,,,,,,,,,431.0074,433.9932,0,1,2.456599999,,0,44,44,44,1,0,castilian,,,,,,,,,,,,,,,,,,,,,,,,,,,,,,,,,,,,,,,,,,,,,,,,,,,,,,,,
,,,,,,,,,672193644fb3e4b721e16394,Spanish,13 or older,"no, only English or Spanish",no,2025-07-22_22h46.09.039,empathy_intonation_perc,2024.2.4,Win32,60.21557175,672193644fb3e4b721e16394,687ed1b7e638a4cbf2f02089,68804ca9079d9c266fa6d7cc,,,,,,,,,,,,,74,0,,./stim/wavs/cuban_mismatch_declarative-broad-focus_El-bebe-comia-muy-bien.wav,,,,,,,,,,,,,,,,,,,,,,434.0146,436.428,0,1,1.8929,,0,45,45,73,1,0,cuban,,,,,,,,,,,,,,,,,,,,,,,,,,,,,,,,,,,,,,,,,,,,,,,,,,,,,,,,
,,,,,,,,,672193644fb3e4b721e16394,Spanish,13 or older,"no, only English or Spanish",no,2025-07-22_22h46.09.039,empathy_intonation_perc,2024.2.4,Win32,60.21557175,672193644fb3e4b721e16394,687ed1b7e638a4cbf2f02089,68804ca9079d9c266fa6d7cc,,,,,,,,,,,,,14,1,,./stim/wavs/mexican_match_interrogative-total-yn_Daniel-iba-a-Bolivia.wav,,,,,,,,,,,,,,,,,,,,,,436.4288,438.8802,1,1,1.9306,,0,46,46,13,1,0,mexican,,,,,,,,,,,,,,,,,,,,,,,,,,,,,,,,,,,,,,,,,,,,,,,,,,,,,,,,
,,,,,,,,,672193644fb3e4b721e16394,Spanish,13 or older,"no, only English or Spanish",no,2025-07-22_22h46.09.039,empathy_intonation_perc,2024.2.4,Win32,60.21557175,672193644fb3e4b721e16394,687ed1b7e638a4cbf2f02089,68804ca9079d9c266fa6d7cc,,,,,,,,,,,,,72,0,,./stim/wavs/castilian_mismatch_declarative-broad-focus_Mi-novio-viene-del-lago.wav,,,,,,,,,,,,,,,,,,,,,,438.881,441.0651,0,1,1.678900001,,0,47,47,71,1,0,castilian,,,,,,,,,,,,,,,,,,,,,,,,,,,,,,,,,,,,,,,,,,,,,,,,,,,,,,,,
,,,,,,,,,672193644fb3e4b721e16394,Spanish,13 or older,"no, only English or Spanish",no,2025-07-22_22h46.09.039,empathy_intonation_perc,2024.2.4,Win32,60.21557175,672193644fb3e4b721e16394,687ed1b7e638a4cbf2f02089,68804ca9079d9c266fa6d7cc,,,,,,,,,,,,,8,1,,./stim/wavs/cuban_match_interrogative-total-yn_Daniel-iba-a-Bolivia.wav,,,,,,,,,,,,,,,,,,,,,,441.0658,442.9512,0,0,1.3818,,0,48,48,7,1,1,cuban,,,,,,,,,,,,,,,,,,,,,,,,,,,,,,,,,,,,,,,,,,,,,,,,,,,,,,,,
,,,,,,,,,672193644fb3e4b721e16394,Spanish,13 or older,"no, only English or Spanish",no,2025-07-22_22h46.09.039,empathy_intonation_perc,2024.2.4,Win32,60.21557175,672193644fb3e4b721e16394,687ed1b7e638a4cbf2f02089,68804ca9079d9c266fa6d7cc,,,,,,,,,,,,,32,1,,./stim/wavs/cuban_mismatch_interrogative-total-yn_Mi-madre-come-la-fruta.wav,,,,,,,,,,,,,,,,,,,,,,442.9518,446.5702,0,0,3.089,,0,49,49,31,1,1,cuban,,,,,,,,,,,,,,,,,,,,,,,,,,,,,,,,,,,,,,,,,,,,,,,,,,,,,,,,
,,,,,,,,,672193644fb3e4b721e16394,Spanish,13 or older,"no, only English or Spanish",no,2025-07-22_22h46.09.039,empathy_intonation_perc,2024.2.4,Win32,60.21557175,672193644fb3e4b721e16394,687ed1b7e638a4cbf2f02089,68804ca9079d9c266fa6d7cc,,,,,,,,,,,,,24,1,,./stim/wavs/puertorican_match_interrogative-total-yn_Maria-bebe-el-vino.wav,,,,,,,,,,,,,,,,,,,,,,446.5926,449.8079,1,1,2.7001,,0,50,50,23,1,1,puertorican,,,,,,,,,,,,,,,,,,,,,,,,,,,,,,,,,,,,,,,,,,,,,,,,,,,,,,,,
,,,,,,,,,672193644fb3e4b721e16394,Spanish,13 or older,"no, only English or Spanish",no,2025-07-22_22h46.09.039,empathy_intonation_perc,2024.2.4,Win32,60.21557175,672193644fb3e4b721e16394,687ed1b7e638a4cbf2f02089,68804ca9079d9c266fa6d7cc,,,,,,,,,,,,,88,0,,./stim/wavs/puertorican_mismatch_declarative-broad-focus_La-nina-lava-el-plato.wav,,,,,,,,,,,,,,,,,,,,,,449.8327,452.9756,0,1,2.6216,,0,51,51,87,1,0,puertorican,,,,,,,,,,,,,,,,,,,,,,,,,,,,,,,,,,,,,,,,,,,,,,,,,,,,,,,,
,,,,,,,,,672193644fb3e4b721e16394,Spanish,13 or older,"no, only English or Spanish",no,2025-07-22_22h46.09.039,empathy_intonation_perc,2024.2.4,Win32,60.21557175,672193644fb3e4b721e16394,687ed1b7e638a4cbf2f02089,68804ca9079d9c266fa6d7cc,,,,,,,,,,,,,17,1,,./stim/wavs/mexican_match_interrogative-total-yn_Mariano-habla-del-tiempo.wav,,,,,,,,,,,,,,,,,,,,,,452.977,455.5776,1,1,2.0877,,0,52,52,16,1,0,mexican,,,,,,,,,,,,,,,,,,,,,,,,,,,,,,,,,,,,,,,,,,,,,,,,,,,,,,,,
,,,,,,,,,672193644fb3e4b721e16394,Spanish,13 or older,"no, only English or Spanish",no,2025-07-22_22h46.09.039,empathy_intonation_perc,2024.2.4,Win32,60.21557175,672193644fb3e4b721e16394,687ed1b7e638a4cbf2f02089,68804ca9079d9c266fa6d7cc,,,,,,,,,,,,,6,1,,./stim/wavs/castilian_match_interrogative-total-yn_Marta-abre-el-regalo.wav,,,,,,,,,,,,,,,,,,,,,,455.5782,458.2974,1,1,2.208299999,,0,53,53,5,1,0,castilian,,,,,,,,,,,,,,,,,,,,,,,,,,,,,,,,,,,,,,,,,,,,,,,,,,,,,,,,
,,,,,,,,,672193644fb3e4b721e16394,Spanish,13 or older,"no, only English or Spanish",no,2025-07-22_22h46.09.039,empathy_intonation_perc,2024.2.4,Win32,60.21557175,672193644fb3e4b721e16394,687ed1b7e638a4cbf2f02089,68804ca9079d9c266fa6d7cc,,,,,,,,,,,,,10,1,,./stim/wavs/cuban_match_interrogative-total-yn_Maria-bebe-el-vino.wav,,,,,,,,,,,,,,,,,,,,,,458.3187,461,0,0,2.1672,,0,54,54,9,1,1,cuban,,,,,,,,,,,,,,,,,,,,,,,,,,,,,,,,,,,,,,,,,,,,,,,,,,,,,,,,
,,,,,,,,,672193644fb3e4b721e16394,Spanish,13 or older,"no, only English or Spanish",no,2025-07-22_22h46.09.039,empathy_intonation_perc,2024.2.4,Win32,60.21557175,672193644fb3e4b721e16394,687ed1b7e638a4cbf2f02089,68804ca9079d9c266fa6d7cc,,,,,,,,,,,,,68,0,,./stim/wavs/puertorican_match_declarative-broad-focus_Maria-bebe-el-vino.wav,,,,,,,,,,,,,,,,,,,,,,461.0009,463.0888,0,1,1.5832,,0,55,55,67,1,0,puertorican,,,,,,,,,,,,,,,,,,,,,,,,,,,,,,,,,,,,,,,,,,,,,,,,,,,,,,,,
,,,,,,,,,672193644fb3e4b721e16394,Spanish,13 or older,"no, only English or Spanish",no,2025-07-22_22h46.09.039,empathy_intonation_perc,2024.2.4,Win32,60.21557175,672193644fb3e4b721e16394,687ed1b7e638a4cbf2f02089,68804ca9079d9c266fa6d7cc,,,,,,,,,,,,,54,0,,./stim/wavs/cuban_match_declarative-broad-focus_Maria-bebe-el-vino.wav,,,,,,,,,,,,,,,,,,,,,,463.0902,464.9699,0,1,1.3599,,0,56,56,53,1,0,cuban,,,,,,,,,,,,,,,,,,,,,,,,,,,,,,,,,,,,,,,,,,,,,,,,,,,,,,,,
,,,,,,,,,672193644fb3e4b721e16394,Spanish,13 or older,"no, only English or Spanish",no,2025-07-22_22h46.09.039,empathy_intonation_perc,2024.2.4,Win32,60.21557175,672193644fb3e4b721e16394,687ed1b7e638a4cbf2f02089,68804ca9079d9c266fa6d7cc,,,,,,,,,,,,,51,0,,./stim/wavs/cuban_match_declarative-broad-focus_Ana-lleva-el-abrigo.wav,,,,,,,,,,,,,,,,,,,,,,464.9705,466.6384,0,1,1.141,,0,57,57,50,1,0,cuban,,,,,,,,,,,,,,,,,,,,,,,,,,,,,,,,,,,,,,,,,,,,,,,,,,,,,,,,
,,,,,,,,,672193644fb3e4b721e16394,Spanish,13 or older,"no, only English or Spanish",no,2025-07-22_22h46.09.039,empathy_intonation_perc,2024.2.4,Win32,60.21557175,672193644fb3e4b721e16394,687ed1b7e638a4cbf2f02089,68804ca9079d9c266fa6d7cc,,,,,,,,,,,,,12,1,,./stim/wavs/cuban_match_interrogative-total-yn_Marta-abre-el-regalo.wav,,,,,,,,,,,,,,,,,,,,,,466.6388,467.8217,0,0,0.6562,,0,58,58,11,1,1,cuban,,,,,,,,,,,,,,,,,,,,,,,,,,,,,,,,,,,,,,,,,,,,,,,,,,,,,,,,
,,,,,,,,,672193644fb3e4b721e16394,Spanish,13 or older,"no, only English or Spanish",no,2025-07-22_22h46.09.039,empathy_intonation_perc,2024.2.4,Win32,60.21557175,672193644fb3e4b721e16394,687ed1b7e638a4cbf2f02089,68804ca9079d9c266fa6d7cc,,,,,,,,,,,,,31,1,,./stim/wavs/cuban_mismatch_interrogative-total-yn_El-nino-oye-el-rio.wav,,,,,,,,,,,,,,,,,,,,,,467.8223,469.7937,0,0,1.451700001,,0,59,59,30,1,1,cuban,,,,,,,,,,,,,,,,,,,,,,,,,,,,,,,,,,,,,,,,,,,,,,,,,,,,,,,,
,,,,,,,,,672193644fb3e4b721e16394,Spanish,13 or older,"no, only English or Spanish",no,2025-07-22_22h46.09.039,empathy_intonation_perc,2024.2.4,Win32,60.21557175,672193644fb3e4b721e16394,687ed1b7e638a4cbf2f02089,68804ca9079d9c266fa6d7cc,,,,,,,,,,,,,16,1,,./stim/wavs/mexican_match_interrogative-total-yn_Emilio-ama-la-marcha.wav,,,,,,,,,,,,,,,,,,,,,,469.7944,471.7592,0,0,1.439400001,,0,60,60,15,1,0,mexican,,,,,,,,,,,,,,,,,,,,,,,,,,,,,,,,,,,,,,,,,,,,,,,,,,,,,,,,
,,,,,,,,,672193644fb3e4b721e16394,Spanish,13 or older,"no, only English or Spanish",no,2025-07-22_22h46.09.039,empathy_intonation_perc,2024.2.4,Win32,60.21557175,672193644fb3e4b721e16394,687ed1b7e638a4cbf2f02089,68804ca9079d9c266fa6d7cc,,,,,,,,,,,,,39,1,,./stim/wavs/mexican_mismatch_interrogative-total-yn_Mi-tia-odia-la-lluvia.wav,,,,,,,,,,,,,,,,,,,,,,471.7602,473.6941,0,0,1.417099999,,0,61,61,38,1,0,mexican,,,,,,,,,,,,,,,,,,,,,,,,,,,,,,,,,,,,,,,,,,,,,,,,,,,,,,,,
,,,,,,,,,672193644fb3e4b721e16394,Spanish,13 or older,"no, only English or Spanish",no,2025-07-22_22h46.09.039,empathy_intonation_perc,2024.2.4,Win32,60.21557175,672193644fb3e4b721e16394,687ed1b7e638a4cbf2f02089,68804ca9079d9c266fa6d7cc,,,,,,,,,,,,,85,0,,./stim/wavs/puertorican_mismatch_declarative-broad-focus_El-hombre-mira-la-luna.wav,,,,,,,,,,,,,,,,,,,,,,473.6958,478.7024,0,1,4.471,,0,62,62,84,1,0,puertorican,,,,,,,,,,,,,,,,,,,,,,,,,,,,,,,,,,,,,,,,,,,,,,,,,,,,,,,,
,,,,,,,,,672193644fb3e4b721e16394,Spanish,13 or older,"no, only English or Spanish",no,2025-07-22_22h46.09.039,empathy_intonation_perc,2024.2.4,Win32,60.21557175,672193644fb3e4b721e16394,687ed1b7e638a4cbf2f02089,68804ca9079d9c266fa6d7cc,,,,,,,,,,,,,86,0,,./stim/wavs/puertorican_mismatch_declarative-broad-focus_El-nino-oye-el-rio.wav,,,,,,,,,,,,,,,,,,,,,,478.7313,480.6664,0,1,1.4315,,0,63,63,85,1,0,puertorican,,,,,,,,,,,,,,,,,,,,,,,,,,,,,,,,,,,,,,,,,,,,,,,,,,,,,,,,
,,,,,,,,,672193644fb3e4b721e16394,Spanish,13 or older,"no, only English or Spanish",no,2025-07-22_22h46.09.039,empathy_intonation_perc,2024.2.4,Win32,60.21557175,672193644fb3e4b721e16394,687ed1b7e638a4cbf2f02089,68804ca9079d9c266fa6d7cc,,,,,,,,,,,,,83,0,,./stim/wavs/mexican_mismatch_declarative-broad-focus_Mi-tia-odia-la-lluvia.wav,,,,,,,,,,,,,,,,,,,,,,480.6678,482.6381,0,1,1.450599999,,0,64,64,82,1,0,mexican,,,,,,,,,,,,,,,,,,,,,,,,,,,,,,,,,,,,,,,,,,,,,,,,,,,,,,,,
,,,,,,,,,672193644fb3e4b721e16394,Spanish,13 or older,"no, only English or Spanish",no,2025-07-22_22h46.09.039,empathy_intonation_perc,2024.2.4,Win32,60.21557175,672193644fb3e4b721e16394,687ed1b7e638a4cbf2f02089,68804ca9079d9c266fa6d7cc,,,,,,,,,,,,,59,0,,./stim/wavs/mexican_match_declarative-broad-focus_David-leia-el-libro.wav,,,,,,,,,,,,,,,,,,,,,,482.6386,484.4565,0,1,1.2831,,0,65,65,58,1,0,mexican,,,,,,,,,,,,,,,,,,,,,,,,,,,,,,,,,,,,,,,,,,,,,,,,,,,,,,,,
,,,,,,,,,672193644fb3e4b721e16394,Spanish,13 or older,"no, only English or Spanish",no,2025-07-22_22h46.09.039,empathy_intonation_perc,2024.2.4,Win32,60.21557175,672193644fb3e4b721e16394,687ed1b7e638a4cbf2f02089,68804ca9079d9c266fa6d7cc,,,,,,,,,,,,,21,1,,./stim/wavs/puertorican_match_interrogative-total-yn_David-leia-el-libro.wav,,,,,,,,,,,,,,,,,,,,,,484.4574,486.2242,0,0,1.2341,,0,66,66,20,1,1,puertorican,,,,,,,,,,,,,,,,,,,,,,,,,,,,,,,,,,,,,,,,,,,,,,,,,,,,,,,,
,,,,,,,,,672193644fb3e4b721e16394,Spanish,13 or older,"no, only English or Spanish",no,2025-07-22_22h46.09.039,empathy_intonation_perc,2024.2.4,Win32,60.21557175,672193644fb3e4b721e16394,687ed1b7e638a4cbf2f02089,68804ca9079d9c266fa6d7cc,,,,,,,,,,,,,29,1,,./stim/wavs/castilian_mismatch_interrogative-total-yn_Mi-tia-odia-la-lluvia.wav,,,,,,,,,,,,,,,,,,,,,,486.2247,488.3932,1,1,1.65,,0,67,67,28,1,0,castilian,,,,,,,,,,,,,,,,,,,,,,,,,,,,,,,,,,,,,,,,,,,,,,,,,,,,,,,,
,,,,,,,,,672193644fb3e4b721e16394,Spanish,13 or older,"no, only English or Spanish",no,2025-07-22_22h46.09.039,empathy_intonation_perc,2024.2.4,Win32,60.21557175,672193644fb3e4b721e16394,687ed1b7e638a4cbf2f02089,68804ca9079d9c266fa6d7cc,,,,,,,,,,,,,23,1,,./stim/wavs/puertorican_match_interrogative-total-yn_Manuela-vende-el-carro.wav,,,,,,,,,,,,,,,,,,,,,,488.3937,490.8454,0,0,1.9358,,0,68,68,22,1,1,puertorican,,,,,,,,,,,,,,,,,,,,,,,,,,,,,,,,,,,,,,,,,,,,,,,,,,,,,,,,
,,,,,,,,,672193644fb3e4b721e16394,Spanish,13 or older,"no, only English or Spanish",no,2025-07-22_22h46.09.039,empathy_intonation_perc,2024.2.4,Win32,60.21557175,672193644fb3e4b721e16394,687ed1b7e638a4cbf2f02089,68804ca9079d9c266fa6d7cc,,,,,,,,,,,,,79,0,,./stim/wavs/mexican_mismatch_declarative-broad-focus_El-bebe-comia-muy-bien.wav,,,,,,,,,,,,,,,,,,,,,,490.846,492.7307,0,1,1.3521,,0,69,69,78,1,0,mexican,,,,,,,,,,,,,,,,,,,,,,,,,,,,,,,,,,,,,,,,,,,,,,,,,,,,,,,,
,,,,,,,,,672193644fb3e4b721e16394,Spanish,13 or older,"no, only English or Spanish",no,2025-07-22_22h46.09.039,empathy_intonation_perc,2024.2.4,Win32,60.21557175,672193644fb3e4b721e16394,687ed1b7e638a4cbf2f02089,68804ca9079d9c266fa6d7cc,,,,,,,,,,,,,53,0,,./stim/wavs/cuban_match_declarative-broad-focus_Manuela-vende-el-carro.wav,,,,,,,,,,,,,,,,,,,,,,492.7313,496.6518,0,1,3.388599999,,0,70,70,52,1,0,cuban,,,,,,,,,,,,,,,,,,,,,,,,,,,,,,,,,,,,,,,,,,,,,,,,,,,,,,,,
,,,,,,,,,672193644fb3e4b721e16394,Spanish,13 or older,"no, only English or Spanish",no,2025-07-22_22h46.09.039,empathy_intonation_perc,2024.2.4,Win32,60.21557175,672193644fb3e4b721e16394,687ed1b7e638a4cbf2f02089,68804ca9079d9c266fa6d7cc,,,,,,,,,,,,,26,1,,./stim/wavs/castilian_mismatch_interrogative-total-yn_La-nina-lava-el-plato.wav,,,,,,,,,,,,,,,,,,,,,,496.6715,527.2441,0,0,30.043,,0,71,71,25,1,0,castilian,,,,,,,,,,,,,,,,,,,,,,,,,,,,,,,,,,,,,,,,,,,,,,,,,,,,,,,,
,,,,,,,,,672193644fb3e4b721e16394,Spanish,13 or older,"no, only English or Spanish",no,2025-07-22_22h46.09.039,empathy_intonation_perc,2024.2.4,Win32,60.21557175,672193644fb3e4b721e16394,687ed1b7e638a4cbf2f02089,68804ca9079d9c266fa6d7cc,,,,,,,,,,,,,64,0,,./stim/wavs/puertorican_match_declarative-broad-focus_Daniel-iba-a-Bolivia.wav,,,,,,,,,,,,,,,,,,,,,,527.2608,530.1256,0,1,2.3329,,0,72,72,63,1,0,puertorican,,,,,,,,,,,,,,,,,,,,,,,,,,,,,,,,,,,,,,,,,,,,,,,,,,,,,,,,
,,,,,,,,,672193644fb3e4b721e16394,Spanish,13 or older,"no, only English or Spanish",no,2025-07-22_22h46.09.039,empathy_intonation_perc,2024.2.4,Win32,60.21557175,672193644fb3e4b721e16394,687ed1b7e638a4cbf2f02089,68804ca9079d9c266fa6d7cc,,,,,,,,,,,,,49,0,,./stim/wavs/castilian_match_declarative-broad-focus_Mariano-habla-del-tiempo.wav,,,,,,,,,,,,,,,,,,,,,,530.1267,532.6275,0,1,1.9837,,0,73,73,48,1,0,castilian,,,,,,,,,,,,,,,,,,,,,,,,,,,,,,,,,,,,,,,,,,,,,,,,,,,,,,,,
,,,,,,,,,672193644fb3e4b721e16394,Spanish,13 or older,"no, only English or Spanish",no,2025-07-22_22h46.09.039,empathy_intonation_perc,2024.2.4,Win32,60.21557175,672193644fb3e4b721e16394,687ed1b7e638a4cbf2f02089,68804ca9079d9c266fa6d7cc,,,,,,,,,,,,,62,0,,./stim/wavs/mexican_match_declarative-broad-focus_Marta-abre-el-regalo.wav,,,,,,,,,,,,,,,,,,,,,,532.6285,534.1626,0,1,1.0197,,0,74,74,61,1,0,mexican,,,,,,,,,,,,,,,,,,,,,,,,,,,,,,,,,,,,,,,,,,,,,,,,,,,,,,,,
,,,,,,,,,672193644fb3e4b721e16394,Spanish,13 or older,"no, only English or Spanish",no,2025-07-22_22h46.09.039,empathy_intonation_perc,2024.2.4,Win32,60.21557175,672193644fb3e4b721e16394,687ed1b7e638a4cbf2f02089,68804ca9079d9c266fa6d7cc,,,,,,,,,,,,,69,0,,./stim/wavs/castilian_mismatch_declarative-broad-focus_El-nino-oye-el-rio.wav,,,,,,,,,,,,,,,,,,,,,,534.1642,536.2979,0,1,1.6128,,0,75,75,68,1,0,castilian,,,,,,,,,,,,,,,,,,,,,,,,,,,,,,,,,,,,,,,,,,,,,,,,,,,,,,,,
,,,,,,,,,672193644fb3e4b721e16394,Spanish,13 or older,"no, only English or Spanish",no,2025-07-22_22h46.09.039,empathy_intonation_perc,2024.2.4,Win32,60.21557175,672193644fb3e4b721e16394,687ed1b7e638a4cbf2f02089,68804ca9079d9c266fa6d7cc,,,,,,,,,,,,,81,0,,./stim/wavs/mexican_mismatch_declarative-broad-focus_La-maestra-vive-en-Paris.wav,,,,,,,,,,,,,,,,,,,,,,536.2987,538.2998,0,1,1.478599999,,0,76,76,80,1,0,mexican,,,,,,,,,,,,,,,,,,,,,,,,,,,,,,,,,,,,,,,,,,,,,,,,,,,,,,,,
,,,,,,,,,672193644fb3e4b721e16394,Spanish,13 or older,"no, only English or Spanish",no,2025-07-22_22h46.09.039,empathy_intonation_perc,2024.2.4,Win32,60.21557175,672193644fb3e4b721e16394,687ed1b7e638a4cbf2f02089,68804ca9079d9c266fa6d7cc,,,,,,,,,,,,,30,1,,./stim/wavs/cuban_mismatch_interrogative-total-yn_El-hombre-mira-la-luna.wav,,,,,,,,,,,,,,,,,,,,,,538.3008,540.4346,0,0,1.594599999,,0,77,77,29,1,1,cuban,,,,,,,,,,,,,,,,,,,,,,,,,,,,,,,,,,,,,,,,,,,,,,,,,,,,,,,,
,,,,,,,,,672193644fb3e4b721e16394,Spanish,13 or older,"no, only English or Spanish",no,2025-07-22_22h46.09.039,empathy_intonation_perc,2024.2.4,Win32,60.21557175,672193644fb3e4b721e16394,687ed1b7e638a4cbf2f02089,68804ca9079d9c266fa6d7cc,,,,,,,,,,,,,25,1,,./stim/wavs/castilian_mismatch_interrogative-total-yn_La-maestra-vive-en-Paris.wav,,,,,,,,,,,,,,,,,,,,,,540.435,542.6365,1,1,1.676099999,,0,78,78,24,1,0,castilian,,,,,,,,,,,,,,,,,,,,,,,,,,,,,,,,,,,,,,,,,,,,,,,,,,,,,,,,
,,,,,,,,,672193644fb3e4b721e16394,Spanish,13 or older,"no, only English or Spanish",no,2025-07-22_22h46.09.039,empathy_intonation_perc,2024.2.4,Win32,60.21557175,672193644fb3e4b721e16394,687ed1b7e638a4cbf2f02089,68804ca9079d9c266fa6d7cc,,,,,,,,,,,,,77,0,,./stim/wavs/cuban_mismatch_declarative-broad-focus_Mi-novio-viene-del-lago.wav,,,,,,,,,,,,,,,,,,,,,,542.6371,544.6879,0,1,1.513599999,,0,79,79,76,1,0,cuban,,,,,,,,,,,,,,,,,,,,,,,,,,,,,,,,,,,,,,,,,,,,,,,,,,,,,,,,
,,,,,,,,,672193644fb3e4b721e16394,Spanish,13 or older,"no, only English or Spanish",no,2025-07-22_22h46.09.039,empathy_intonation_perc,2024.2.4,Win32,60.21557175,672193644fb3e4b721e16394,687ed1b7e638a4cbf2f02089,68804ca9079d9c266fa6d7cc,,,,,,,,,,,,,15,1,,./stim/wavs/mexican_match_interrogative-total-yn_David-leia-el-libro.wav,,,,,,,,,,,,,,,,,,,,,,544.6885,546.6571,0,0,1.4648,,0,80,80,14,1,0,mexican,,,,,,,,,,,,,,,,,,,,,,,,,,,,,,,,,,,,,,,,,,,,,,,,,,,,,,,,
,,,,,,,,,672193644fb3e4b721e16394,Spanish,13 or older,"no, only English or Spanish",no,2025-07-22_22h46.09.039,empathy_intonation_perc,2024.2.4,Win32,60.21557175,672193644fb3e4b721e16394,687ed1b7e638a4cbf2f02089,68804ca9079d9c266fa6d7cc,,,,,,,,,,,,,75,0,,./stim/wavs/cuban_mismatch_declarative-broad-focus_El-hombre-mira-la-luna.wav,,,,,,,,,,,,,,,,,,,,,,546.658,548.725,0,1,1.5433,,0,81,81,74,1,0,cuban,,,,,,,,,,,,,,,,,,,,,,,,,,,,,,,,,,,,,,,,,,,,,,,,,,,,,,,,
,,,,,,,,,672193644fb3e4b721e16394,Spanish,13 or older,"no, only English or Spanish",no,2025-07-22_22h46.09.039,empathy_intonation_perc,2024.2.4,Win32,60.21557175,672193644fb3e4b721e16394,687ed1b7e638a4cbf2f02089,68804ca9079d9c266fa6d7cc,,,,,,,,,,,,,47,0,,./stim/wavs/castilian_match_declarative-broad-focus_Manuela-vende-el-carro.wav,,,,,,,,,,,,,,,,,,,,,,548.7258,550.9267,0,1,1.6738,,0,82,82,46,1,0,castilian,,,,,,,,,,,,,,,,,,,,,,,,,,,,,,,,,,,,,,,,,,,,,,,,,,,,,,,,
,,,,,,,,,672193644fb3e4b721e16394,Spanish,13 or older,"no, only English or Spanish",no,2025-07-22_22h46.09.039,empathy_intonation_perc,2024.2.4,Win32,60.21557175,672193644fb3e4b721e16394,687ed1b7e638a4cbf2f02089,68804ca9079d9c266fa6d7cc,,,,,,,,,,,,,28,1,,./stim/wavs/castilian_mismatch_interrogative-total-yn_Mi-novio-viene-del-lago.wav,,,,,,,,,,,,,,,,,,,,,,550.9272,553.0978,0,0,1.6671,,0,83,83,27,1,0,castilian,,,,,,,,,,,,,,,,,,,,,,,,,,,,,,,,,,,,,,,,,,,,,,,,,,,,,,,,
,,,,,,,,,672193644fb3e4b721e16394,Spanish,13 or older,"no, only English or Spanish",no,2025-07-22_22h46.09.039,empathy_intonation_perc,2024.2.4,Win32,60.21557175,672193644fb3e4b721e16394,687ed1b7e638a4cbf2f02089,68804ca9079d9c266fa6d7cc,,,,,,,,,,,,,33,1,,./stim/wavs/cuban_mismatch_interrogative-total-yn_Mi-novio-viene-del-lago.wav,,,,,,,,,,,,,,,,,,,,,,553.0983,554.8672,0,0,1.2501,,0,84,84,32,1,1,cuban,,,,,,,,,,,,,,,,,,,,,,,,,,,,,,,,,,,,,,,,,,,,,,,,,,,,,,,,
,,,,,,,,,672193644fb3e4b721e16394,Spanish,13 or older,"no, only English or Spanish",no,2025-07-22_22h46.09.039,empathy_intonation_perc,2024.2.4,Win32,60.21557175,672193644fb3e4b721e16394,687ed1b7e638a4cbf2f02089,68804ca9079d9c266fa6d7cc,,,,,,,,,,,,,18,1,,./stim/wavs/mexican_match_interrogative-total-yn_Marta-abre-el-regalo.wav,,,,,,,,,,,,,,,,,,,,,,554.8683,556.682,0,0,1.2705,,0,85,85,17,1,0,mexican,,,,,,,,,,,,,,,,,,,,,,,,,,,,,,,,,,,,,,,,,,,,,,,,,,,,,,,,
,,,,,,,,,672193644fb3e4b721e16394,Spanish,13 or older,"no, only English or Spanish",no,2025-07-22_22h46.09.039,empathy_intonation_perc,2024.2.4,Win32,60.21557175,672193644fb3e4b721e16394,687ed1b7e638a4cbf2f02089,68804ca9079d9c266fa6d7cc,,,,,,,,,,,,,70,0,,./stim/wavs/castilian_mismatch_declarative-broad-focus_La-maestra-vive-en-Paris.wav,,,,,,,,,,,,,,,,,,,,,,556.6827,558.216,0,1,1.0197,,0,86,86,69,1,0,castilian,,,,,,,,,,,,,,,,,,,,,,,,,,,,,,,,,,,,,,,,,,,,,,,,,,,,,,,,
,,,,,,,,,672193644fb3e4b721e16394,Spanish,13 or older,"no, only English or Spanish",no,2025-07-22_22h46.09.039,empathy_intonation_perc,2024.2.4,Win32,60.21557175,672193644fb3e4b721e16394,687ed1b7e638a4cbf2f02089,68804ca9079d9c266fa6d7cc,,,,,,,,,,,,,44,1,,./stim/wavs/puertorican_mismatch_interrogative-total-yn_Mi-madre-come-la-fruta.wav,,,,,,,,,,,,,,,,,,,,,,558.2169,560.1385,0,0,1.4167,,0,87,87,43,1,1,puertorican,,,,,,,,,,,,,,,,,,,,,,,,,,,,,,,,,,,,,,,,,,,,,,,,,,,,,,,,
,,,,,,,"Great! Now we will move on. The next task consists of about 60 trials, in each of which you will see a string of letters. 
  
  Your task is to decide whether this is a real Spanish word or not.", (press the spacebar to continue),672193644fb3e4b721e16394,Spanish,13 or older,"no, only English or Spanish",no,2025-07-22_22h46.09.039,empathy_intonation_perc,2024.2.4,Win32,60.21557175,672193644fb3e4b721e16394,687ed1b7e638a4cbf2f02089,68804ca9079d9c266fa6d7cc,,,,,,,,,,,,,,,,,,,,,,,,,,,,,,,,,,,,,,,,,,,,,,,,,,,560.1537,567.7955,0,0,0,0,1,,,,,,,,,,,,,,,,,,,,,,,,,,,,,,,,,,,,,,,,,,,,,,,,,
,,,,,,,"If you think it is an existing Spanish word, you type '1' (for 'REAL'), and if you think it is not an existing Spanish word, you type '0' (for 'FAKE').", (press the spacebar to continue),672193644fb3e4b721e16394,Spanish,13 or older,"no, only English or Spanish",no,2025-07-22_22h46.09.039,empathy_intonation_perc,2024.2.4,Win32,60.21557175,672193644fb3e4b721e16394,687ed1b7e638a4cbf2f02089,68804ca9079d9c266fa6d7cc,,,,,,,,,,,,,,,,,,,,,,,,,,,,,,,,,,,,,,,,,,,,,,,,,,,567.812,571.6446,0,1,1,1,1,,,,,,,,,,,,,,,,,,,,,,,,,,,,,,,,,,,,,,,,,,,,,,,,,
,,,,,,,"If you are sure that the word exists, even though you don’t know its exact meaning, you may still respond '1' (REAL). 
  
  But if you are not sure if it is an existing word, you should respond '0' (FAKE).
  
  Let's do a practice round...", (press the spacebar to continue),672193644fb3e4b721e16394,Spanish,13 or older,"no, only English or Spanish",no,2025-07-22_22h46.09.039,empathy_intonation_perc,2024.2.4,Win32,60.21557175,672193644fb3e4b721e16394,687ed1b7e638a4cbf2f02089,68804ca9079d9c266fa6d7cc,,,,,,,,,,,,,,,,,,,,,,,,,,,,,,,,,,,,,,,,,,,,,,,,,,,571.6685,581.7038,0,2,2,2,1,,,,,,,,,,,,,,,,,,,,,,,,,,,,,,,,,,,,,,,,,,,,,,,,,
,,,,,,,,,672193644fb3e4b721e16394,Spanish,13 or older,"no, only English or Spanish",no,2025-07-22_22h46.09.039,empathy_intonation_perc,2024.2.4,Win32,60.21557175,672193644fb3e4b721e16394,687ed1b7e638a4cbf2f02089,68804ca9079d9c266fa6d7cc,,,,,,,,,,,,,,0,,,,,,,,,,,,,,,,,,,,,,,,,,,,,,,,,,,,,,,,,,,,581.7308,587.4089,1,0,5.1581,,587.4252,588.4092,0,0,0,0,1,0,depiste,REAL,FAKE,,,,,,,,,,,,,,,,,,,,,,,,,,,,,,,,
,,,,,,,,,672193644fb3e4b721e16394,Spanish,13 or older,"no, only English or Spanish",no,2025-07-22_22h46.09.039,empathy_intonation_perc,2024.2.4,Win32,60.21557175,672193644fb3e4b721e16394,687ed1b7e638a4cbf2f02089,68804ca9079d9c266fa6d7cc,,,,,,,,,,,,,,1,,,,,,,,,,,,,,,,,,,,,,,,,,,,,,,,,,,,,,,,,,,,588.4115,591.4948,1,1,2.5626,,591.4954,592.496,0,1,1,1,1,0,sí,REAL,FAKE,,,,,,,,,,,,,,,,,,,,,,,,,,,,,,,,
,,,,,,,,,672193644fb3e4b721e16394,Spanish,13 or older,"no, only English or Spanish",no,2025-07-22_22h46.09.039,empathy_intonation_perc,2024.2.4,Win32,60.21557175,672193644fb3e4b721e16394,687ed1b7e638a4cbf2f02089,68804ca9079d9c266fa6d7cc,,,,,,,,,,,,,,0,,,,,,,,,,,,,,,,,,,,,,,,,,,,,,,,,,,,,,,,,,,,592.5134,598.1028,0,1,5.0785,,598.1029,599.0995,0,2,2,2,1,0,coné,REAL,FAKE,,,,,,,,,,,,,,,,,,,,,,,,,,,,,,,,
,,,,,,,,,672193644fb3e4b721e16394,Spanish,13 or older,"no, only English or Spanish",no,2025-07-22_22h46.09.039,empathy_intonation_perc,2024.2.4,Win32,60.21557175,672193644fb3e4b721e16394,687ed1b7e638a4cbf2f02089,68804ca9079d9c266fa6d7cc,,,,,,,,,,,,,,0,,,,,,,,,,,,,,,,,,,,,,,,,,,,,,,,,,,,,,,,,,,,599.164,601.7203,1,0,2.039400001,,601.722,602.7219,0,3,3,3,1,0,calpar,REAL,FAKE,,,,,,,,,,,,,,,,,,,,,,,,,,,,,,,,
,,,,,,,,,672193644fb3e4b721e16394,Spanish,13 or older,"no, only English or Spanish",no,2025-07-22_22h46.09.039,empathy_intonation_perc,2024.2.4,Win32,60.21557175,672193644fb3e4b721e16394,687ed1b7e638a4cbf2f02089,68804ca9079d9c266fa6d7cc,,,,,,,,,,,,,,0,,,,,,,,,,,,,,,,,,,,,,,,,,,,,,,,,,,,,,,,,,,,602.7496,605.0408,0,1,1.7772,,605.0418,606.0428,0,4,4,4,1,0,joten,REAL,FAKE,,,,,,,,,,,,,,,,,,,,,,,,,,,,,,,,
,,,,,,,,,672193644fb3e4b721e16394,Spanish,13 or older,"no, only English or Spanish",no,2025-07-22_22h46.09.039,empathy_intonation_perc,2024.2.4,Win32,60.21557175,672193644fb3e4b721e16394,687ed1b7e638a4cbf2f02089,68804ca9079d9c266fa6d7cc,,,,,,,,,,,,,,1,,,,,,,,,,,,,,,,,,,,,,,,,,,,,,,,,,,,,,,,,,,,606.0766,607.8923,0,0,1.2911,,607.8933,608.8931,0,5,5,5,1,0,sacapuntas,REAL,FAKE,,,,,,,,,,,,,,,,,,,,,,,,,,,,,,,,
,,,,,,,,,672193644fb3e4b721e16394,Spanish,13 or older,"no, only English or Spanish",no,2025-07-22_22h46.09.039,empathy_intonation_perc,2024.2.4,Win32,60.21557175,672193644fb3e4b721e16394,687ed1b7e638a4cbf2f02089,68804ca9079d9c266fa6d7cc,,,,,,,,,,,,,,0,,,,,,,,,,,,,,,,,,,,,,,,,,,,,,,,,,,,,,,,,,,,608.8944,612.2979,0,1,2.8887,,612.2996,613.2977,0,6,6,6,1,0,priba,REAL,FAKE,,,,,,,,,,,,,,,,,,,,,,,,,,,,,,,,
,,,,,,,,,672193644fb3e4b721e16394,Spanish,13 or older,"no, only English or Spanish",no,2025-07-22_22h46.09.039,empathy_intonation_perc,2024.2.4,Win32,60.21557175,672193644fb3e4b721e16394,687ed1b7e638a4cbf2f02089,68804ca9079d9c266fa6d7cc,,,,,,,,,,,,,,0,,,,,,,,,,,,,,,,,,,,,,,,,,,,,,,,,,,,,,,,,,,,613.3343,616.2833,1,0,2.4171,,616.284,617.2836,0,7,7,7,1,0,pelasula,REAL,FAKE,,,,,,,,,,,,,,,,,,,,,,,,,,,,,,,,
,,,,,,,,,672193644fb3e4b721e16394,Spanish,13 or older,"no, only English or Spanish",no,2025-07-22_22h46.09.039,empathy_intonation_perc,2024.2.4,Win32,60.21557175,672193644fb3e4b721e16394,687ed1b7e638a4cbf2f02089,68804ca9079d9c266fa6d7cc,,,,,,,,,,,,,,1,,,,,,,,,,,,,,,,,,,,,,,,,,,,,,,,,,,,,,,,,,,,617.3064,618.6185,1,1,0.7711,,618.6194,619.6196,0,8,8,8,1,0,bien,REAL,FAKE,,,,,,,,,,,,,,,,,,,,,,,,,,,,,,,,
,,,,,,,,,672193644fb3e4b721e16394,Spanish,13 or older,"no, only English or Spanish",no,2025-07-22_22h46.09.039,empathy_intonation_perc,2024.2.4,Win32,60.21557175,672193644fb3e4b721e16394,687ed1b7e638a4cbf2f02089,68804ca9079d9c266fa6d7cc,,,,,,,,,,,,,,1,,,,,,,,,,,,,,,,,,,,,,,,,,,,,,,,,,,,,,,,,,,,619.6208,620.9535,1,1,0.8016,,620.9536,621.9546,0,9,9,9,1,0,casa,REAL,FAKE,,,,,,,,,,,,,,,,,,,,,,,,,,,,,,,,
,,,,,,,,,672193644fb3e4b721e16394,Spanish,13 or older,"no, only English or Spanish",no,2025-07-22_22h46.09.039,empathy_intonation_perc,2024.2.4,Win32,60.21557175,672193644fb3e4b721e16394,687ed1b7e638a4cbf2f02089,68804ca9079d9c266fa6d7cc,,,,,,,,,,,,,,0,,,,,,,,,,,,,,,,,,,,,,,,,,,,,,,,,,,,,,,,,,,,621.9806,623.4226,1,0,0.914799999,,623.4232,624.4241,0,10,10,10,1,0,lejo,REAL,FAKE,,,,,,,,,,,,,,,,,,,,,,,,,,,,,,,,
,,,,,,,,,672193644fb3e4b721e16394,Spanish,13 or older,"no, only English or Spanish",no,2025-07-22_22h46.09.039,empathy_intonation_perc,2024.2.4,Win32,60.21557175,672193644fb3e4b721e16394,687ed1b7e638a4cbf2f02089,68804ca9079d9c266fa6d7cc,,,,,,,,,,,,,,0,,,,,,,,,,,,,,,,,,,,,,,,,,,,,,,,,,,,,,,,,,,,624.4252,626.6088,0,1,1.654,,626.61,627.6111,0,11,11,11,1,0,pretantas,REAL,FAKE,,,,,,,,,,,,,,,,,,,,,,,,,,,,,,,,
,,,,,,,,,672193644fb3e4b721e16394,Spanish,13 or older,"no, only English or Spanish",no,2025-07-22_22h46.09.039,empathy_intonation_perc,2024.2.4,Win32,60.21557175,672193644fb3e4b721e16394,687ed1b7e638a4cbf2f02089,68804ca9079d9c266fa6d7cc,,,,,,,,,,,,,,,,,,,,,,,,,,,,,,,,,,,,,,,,,,,,,,,,,,,,,,,,,,,,,,,,,,,,,,,,,,,627.6143,629.8353,,,,,,,,,,,,,,,,,,,,,,,,,,,,,,
,,,,,,,,,672193644fb3e4b721e16394,Spanish,13 or older,"no, only English or Spanish",no,2025-07-22_22h46.09.039,empathy_intonation_perc,2024.2.4,Win32,60.21557175,672193644fb3e4b721e16394,687ed1b7e638a4cbf2f02089,68804ca9079d9c266fa6d7cc,,,,,,,,,,,,,,1,,,,,,,,,,,,,,,,,,,,,,,,,,,,,,,,,,,,,,,,,,,,,,,,,,,,,,,,,20,ávido,,,,,629.9255,633.968,1,1,3.4996,,0,0,0,19,1,REAL,FAKE,,,,,,,,,,,,,,,,,
,,,,,,,,,672193644fb3e4b721e16394,Spanish,13 or older,"no, only English or Spanish",no,2025-07-22_22h46.09.039,empathy_intonation_perc,2024.2.4,Win32,60.21557175,672193644fb3e4b721e16394,687ed1b7e638a4cbf2f02089,68804ca9079d9c266fa6d7cc,,,,,,,,,,,,,,0,,,,,,,,,,,,,,,,,,,,,,,,,,,,,,,,,,,,,,,,,,,,,,,,,,,,,,,,,79,tropaje,,,,,633.9982,636.0002,0,1,1.488099999,,0,1,1,78,1,REAL,FAKE,,,,,,,,,,,,,,,,,
,,,,,,,,,672193644fb3e4b721e16394,Spanish,13 or older,"no, only English or Spanish",no,2025-07-22_22h46.09.039,empathy_intonation_perc,2024.2.4,Win32,60.21557175,672193644fb3e4b721e16394,687ed1b7e638a4cbf2f02089,68804ca9079d9c266fa6d7cc,,,,,,,,,,,,,,1,,,,,,,,,,,,,,,,,,,,,,,,,,,,,,,,,,,,,,,,,,,,,,,,,,,,,,,,,71,polvoriento,,,,,636.0014,638.0184,0,0,1.505599999,,0,2,2,70,1,REAL,FAKE,,,,,,,,,,,,,,,,,
,,,,,,,,,672193644fb3e4b721e16394,Spanish,13 or older,"no, only English or Spanish",no,2025-07-22_22h46.09.039,empathy_intonation_perc,2024.2.4,Win32,60.21557175,672193644fb3e4b721e16394,687ed1b7e638a4cbf2f02089,68804ca9079d9c266fa6d7cc,,,,,,,,,,,,,,0,,,,,,,,,,,,,,,,,,,,,,,,,,,,,,,,,,,,,,,,,,,,,,,,,,,,,,,,,33,pauca,,,,,638.0201,639.5029,0,1,0.9488,,0,3,3,32,1,REAL,FAKE,,,,,,,,,,,,,,,,,
,,,,,,,,,672193644fb3e4b721e16394,Spanish,13 or older,"no, only English or Spanish",no,2025-07-22_22h46.09.039,empathy_intonation_perc,2024.2.4,Win32,60.21557175,672193644fb3e4b721e16394,687ed1b7e638a4cbf2f02089,68804ca9079d9c266fa6d7cc,,,,,,,,,,,,,,1,,,,,,,,,,,,,,,,,,,,,,,,,,,,,,,,,,,,,,,,,,,,,,,,,,,,,,,,,44,cuchara,,,,,639.5039,640.8255,1,1,0.8014,,0,4,4,43,1,REAL,FAKE,,,,,,,,,,,,,,,,,
,,,,,,,,,672193644fb3e4b721e16394,Spanish,13 or older,"no, only English or Spanish",no,2025-07-22_22h46.09.039,empathy_intonation_perc,2024.2.4,Win32,60.21557175,672193644fb3e4b721e16394,687ed1b7e638a4cbf2f02089,68804ca9079d9c266fa6d7cc,,,,,,,,,,,,,,1,,,,,,,,,,,,,,,,,,,,,,,,,,,,,,,,,,,,,,,,,,,,,,,,,,,,,,,,,56,musgo,,,,,640.8277,643.4933,0,0,2.132400001,,0,5,5,55,1,REAL,FAKE,,,,,,,,,,,,,,,,,
,,,,,,,,,672193644fb3e4b721e16394,Spanish,13 or older,"no, only English or Spanish",no,2025-07-22_22h46.09.039,empathy_intonation_perc,2024.2.4,Win32,60.21557175,672193644fb3e4b721e16394,687ed1b7e638a4cbf2f02089,68804ca9079d9c266fa6d7cc,,,,,,,,,,,,,,1,,,,,,,,,,,,,,,,,,,,,,,,,,,,,,,,,,,,,,,,,,,,,,,,,,,,,,,,,55,nevar,,,,,643.4944,644.8614,1,1,0.8345,,0,6,6,54,1,REAL,FAKE,,,,,,,,,,,,,,,,,
,,,,,,,,,672193644fb3e4b721e16394,Spanish,13 or older,"no, only English or Spanish",no,2025-07-22_22h46.09.039,empathy_intonation_perc,2024.2.4,Win32,60.21557175,672193644fb3e4b721e16394,687ed1b7e638a4cbf2f02089,68804ca9079d9c266fa6d7cc,,,,,,,,,,,,,,0,,,,,,,,,,,,,,,,,,,,,,,,,,,,,,,,,,,,,,,,,,,,,,,,,,,,,,,,,63,esposante,,,,,644.8628,646.4956,1,0,1.100599999,,0,7,7,62,1,REAL,FAKE,,,,,,,,,,,,,,,,,
,,,,,,,,,672193644fb3e4b721e16394,Spanish,13 or older,"no, only English or Spanish",no,2025-07-22_22h46.09.039,empathy_intonation_perc,2024.2.4,Win32,60.21557175,672193644fb3e4b721e16394,687ed1b7e638a4cbf2f02089,68804ca9079d9c266fa6d7cc,,,,,,,,,,,,,,1,,,,,,,,,,,,,,,,,,,,,,,,,,,,,,,,,,,,,,,,,,,,,,,,,,,,,,,,,9,hacha,,,,,646.4966,647.8474,1,1,0.8165,,0,8,8,8,1,REAL,FAKE,,,,,,,,,,,,,,,,,
,,,,,,,,,672193644fb3e4b721e16394,Spanish,13 or older,"no, only English or Spanish",no,2025-07-22_22h46.09.039,empathy_intonation_perc,2024.2.4,Win32,60.21557175,672193644fb3e4b721e16394,687ed1b7e638a4cbf2f02089,68804ca9079d9c266fa6d7cc,,,,,,,,,,,,,,0,,,,,,,,,,,,,,,,,,,,,,,,,,,,,,,,,,,,,,,,,,,,,,,,,,,,,,,,,35,rompido,,,,,647.8486,649.3785,1,0,0.9935,,0,9,9,34,1,REAL,FAKE,,,,,,,,,,,,,,,,,
,,,,,,,,,672193644fb3e4b721e16394,Spanish,13 or older,"no, only English or Spanish",no,2025-07-22_22h46.09.039,empathy_intonation_perc,2024.2.4,Win32,60.21557175,672193644fb3e4b721e16394,687ed1b7e638a4cbf2f02089,68804ca9079d9c266fa6d7cc,,,,,,,,,,,,,,0,,,,,,,,,,,,,,,,,,,,,,,,,,,,,,,,,,,,,,,,,,,,,,,,,,,,,,,,,84,escuto,,,,,649.3795,650.7123,1,0,0.8031,,0,10,10,83,1,REAL,FAKE,,,,,,,,,,,,,,,,,
,,,,,,,,,672193644fb3e4b721e16394,Spanish,13 or older,"no, only English or Spanish",no,2025-07-22_22h46.09.039,empathy_intonation_perc,2024.2.4,Win32,60.21557175,672193644fb3e4b721e16394,687ed1b7e638a4cbf2f02089,68804ca9079d9c266fa6d7cc,,,,,,,,,,,,,,0,,,,,,,,,,,,,,,,,,,,,,,,,,,,,,,,,,,,,,,,,,,,,,,,,,,,,,,,,21,capillo,,,,,650.7133,651.8974,1,0,0.6598,,0,11,11,20,1,REAL,FAKE,,,,,,,,,,,,,,,,,
,,,,,,,,,672193644fb3e4b721e16394,Spanish,13 or older,"no, only English or Spanish",no,2025-07-22_22h46.09.039,empathy_intonation_perc,2024.2.4,Win32,60.21557175,672193644fb3e4b721e16394,687ed1b7e638a4cbf2f02089,68804ca9079d9c266fa6d7cc,,,,,,,,,,,,,,1,,,,,,,,,,,,,,,,,,,,,,,,,,,,,,,,,,,,,,,,,,,,,,,,,,,,,,,,,68,alegre,,,,,651.8985,653.6521,0,0,1.217900001,,0,12,12,67,1,REAL,FAKE,,,,,,,,,,,,,,,,,
,,,,,,,,,672193644fb3e4b721e16394,Spanish,13 or older,"no, only English or Spanish",no,2025-07-22_22h46.09.039,empathy_intonation_perc,2024.2.4,Win32,60.21557175,672193644fb3e4b721e16394,687ed1b7e638a4cbf2f02089,68804ca9079d9c266fa6d7cc,,,,,,,,,,,,,,1,,,,,,,,,,,,,,,,,,,,,,,,,,,,,,,,,,,,,,,,,,,,,,,,,,,,,,,,,64,orgulloso,,,,,653.6538,656.5694,0,0,2.3746,,0,13,13,63,1,REAL,FAKE,,,,,,,,,,,,,,,,,
,,,,,,,,,672193644fb3e4b721e16394,Spanish,13 or older,"no, only English or Spanish",no,2025-07-22_22h46.09.039,empathy_intonation_perc,2024.2.4,Win32,60.21557175,672193644fb3e4b721e16394,687ed1b7e638a4cbf2f02089,68804ca9079d9c266fa6d7cc,,,,,,,,,,,,,,1,,,,,,,,,,,,,,,,,,,,,,,,,,,,,,,,,,,,,,,,,,,,,,,,,,,,,,,,,85,laúd,,,,,656.6038,658.5527,0,0,1.417099999,,0,14,14,84,1,REAL,FAKE,,,,,,,,,,,,,,,,,
,,,,,,,,,672193644fb3e4b721e16394,Spanish,13 or older,"no, only English or Spanish",no,2025-07-22_22h46.09.039,empathy_intonation_perc,2024.2.4,Win32,60.21557175,672193644fb3e4b721e16394,687ed1b7e638a4cbf2f02089,68804ca9079d9c266fa6d7cc,,,,,,,,,,,,,,0,,,,,,,,,,,,,,,,,,,,,,,,,,,,,,,,,,,,,,,,,,,,,,,,,,,,,,,,,87,grodo,,,,,658.554,661.7384,0,1,2.6632,,0,15,15,86,1,REAL,FAKE,,,,,,,,,,,,,,,,,
,,,,,,,,,672193644fb3e4b721e16394,Spanish,13 or older,"no, only English or Spanish",no,2025-07-22_22h46.09.039,empathy_intonation_perc,2024.2.4,Win32,60.21557175,672193644fb3e4b721e16394,687ed1b7e638a4cbf2f02089,68804ca9079d9c266fa6d7cc,,,,,,,,,,,,,,0,,,,,,,,,,,,,,,,,,,,,,,,,,,,,,,,,,,,,,,,,,,,,,,,,,,,,,,,,1,terzo,,,,,661.7397,664.2407,0,1,1.9943,,0,16,16,0,1,REAL,FAKE,,,,,,,,,,,,,,,,,
,,,,,,,,,672193644fb3e4b721e16394,Spanish,13 or older,"no, only English or Spanish",no,2025-07-22_22h46.09.039,empathy_intonation_perc,2024.2.4,Win32,60.21557175,672193644fb3e4b721e16394,687ed1b7e638a4cbf2f02089,68804ca9079d9c266fa6d7cc,,,,,,,,,,,,,,0,,,,,,,,,,,,,,,,,,,,,,,,,,,,,,,,,,,,,,,,,,,,,,,,,,,,,,,,,47,cartinar,,,,,664.2562,665.7429,0,1,0.9719,,0,17,17,46,1,REAL,FAKE,,,,,,,,,,,,,,,,,
,,,,,,,,,672193644fb3e4b721e16394,Spanish,13 or older,"no, only English or Spanish",no,2025-07-22_22h46.09.039,empathy_intonation_perc,2024.2.4,Win32,60.21557175,672193644fb3e4b721e16394,687ed1b7e638a4cbf2f02089,68804ca9079d9c266fa6d7cc,,,,,,,,,,,,,,1,,,,,,,,,,,,,,,,,,,,,,,,,,,,,,,,,,,,,,,,,,,,,,,,,,,,,,,,,80,hormiga,,,,,665.7446,668.1115,0,0,1.8397,,0,18,18,79,1,REAL,FAKE,,,,,,,,,,,,,,,,,
,,,,,,,,,672193644fb3e4b721e16394,Spanish,13 or older,"no, only English or Spanish",no,2025-07-22_22h46.09.039,empathy_intonation_perc,2024.2.4,Win32,60.21557175,672193644fb3e4b721e16394,687ed1b7e638a4cbf2f02089,68804ca9079d9c266fa6d7cc,,,,,,,,,,,,,,0,,,,,,,,,,,,,,,,,,,,,,,,,,,,,,,,,,,,,,,,,,,,,,,,,,,,,,,,,92,click the 0 key.,,,,,668.1135,671.5641,0,1,2.927700001,,0,19,19,91,1,REAL,FAKE,,,,,,,,,,,,,,,,,
,,,,,,,,,672193644fb3e4b721e16394,Spanish,13 or older,"no, only English or Spanish",no,2025-07-22_22h46.09.039,empathy_intonation_perc,2024.2.4,Win32,60.21557175,672193644fb3e4b721e16394,687ed1b7e638a4cbf2f02089,68804ca9079d9c266fa6d7cc,,,,,,,,,,,,,,1,,,,,,,,,,,,,,,,,,,,,,,,,,,,,,,,,,,,,,,,,,,,,,,,,,,,,,,,,57,tacaño,,,,,671.6025,673.6162,1,1,1.3656,,0,20,20,56,1,REAL,FAKE,,,,,,,,,,,,,,,,,
,,,,,,,,,672193644fb3e4b721e16394,Spanish,13 or older,"no, only English or Spanish",no,2025-07-22_22h46.09.039,empathy_intonation_perc,2024.2.4,Win32,60.21557175,672193644fb3e4b721e16394,687ed1b7e638a4cbf2f02089,68804ca9079d9c266fa6d7cc,,,,,,,,,,,,,,1,,,,,,,,,,,,,,,,,,,,,,,,,,,,,,,,,,,,,,,,,,,,,,,,,,,,,,,,,45,jilguero,,,,,673.6177,675.4169,1,1,1.2617,,0,21,21,44,1,REAL,FAKE,,,,,,,,,,,,,,,,,
,,,,,,,,,672193644fb3e4b721e16394,Spanish,13 or older,"no, only English or Spanish",no,2025-07-22_22h46.09.039,empathy_intonation_perc,2024.2.4,Win32,60.21557175,672193644fb3e4b721e16394,687ed1b7e638a4cbf2f02089,68804ca9079d9c266fa6d7cc,,,,,,,,,,,,,,1,,,,,,,,,,,,,,,,,,,,,,,,,,,,,,,,,,,,,,,,,,,,,,,,,,,,,,,,,11,cenefa,,,,,675.4178,676.7849,0,0,0.8442,,0,22,22,10,1,REAL,FAKE,,,,,,,,,,,,,,,,,
,,,,,,,,,672193644fb3e4b721e16394,Spanish,13 or older,"no, only English or Spanish",no,2025-07-22_22h46.09.039,empathy_intonation_perc,2024.2.4,Win32,60.21557175,672193644fb3e4b721e16394,687ed1b7e638a4cbf2f02089,68804ca9079d9c266fa6d7cc,,,,,,,,,,,,,,0,,,,,,,,,,,,,,,,,,,,,,,,,,,,,,,,,,,,,,,,,,,,,,,,,,,,,,,,,18,arsa,,,,,676.7859,678.4529,1,0,1.1416,,0,23,23,17,1,REAL,FAKE,,,,,,,,,,,,,,,,,
,,,,,,,,,672193644fb3e4b721e16394,Spanish,13 or older,"no, only English or Spanish",no,2025-07-22_22h46.09.039,empathy_intonation_perc,2024.2.4,Win32,60.21557175,672193644fb3e4b721e16394,687ed1b7e638a4cbf2f02089,68804ca9079d9c266fa6d7cc,,,,,,,,,,,,,,1,,,,,,,,,,,,,,,,,,,,,,,,,,,,,,,,,,,,,,,,,,,,,,,,,,,,,,,,,73,hervidor,,,,,678.4539,679.7379,1,1,0.7537,,0,24,24,72,1,REAL,FAKE,,,,,,,,,,,,,,,,,
,,,,,,,,,672193644fb3e4b721e16394,Spanish,13 or older,"no, only English or Spanish",no,2025-07-22_22h46.09.039,empathy_intonation_perc,2024.2.4,Win32,60.21557175,672193644fb3e4b721e16394,687ed1b7e638a4cbf2f02089,68804ca9079d9c266fa6d7cc,,,,,,,,,,,,,,1,,,,,,,,,,,,,,,,,,,,,,,,,,,,,,,,,,,,,,,,,,,,,,,,,,,,,,,,,59,besar,,,,,679.7389,680.955,1,1,0.6751,,0,25,25,58,1,REAL,FAKE,,,,,,,,,,,,,,,,,
,,,,,,,,,672193644fb3e4b721e16394,Spanish,13 or older,"no, only English or Spanish",no,2025-07-22_22h46.09.039,empathy_intonation_perc,2024.2.4,Win32,60.21557175,672193644fb3e4b721e16394,687ed1b7e638a4cbf2f02089,68804ca9079d9c266fa6d7cc,,,,,,,,,,,,,,0,,,,,,,,,,,,,,,,,,,,,,,,,,,,,,,,,,,,,,,,,,,,,,,,,,,,,,,,,29,decar,,,,,680.956,682.073,1,0,0.595,,0,26,26,28,1,REAL,FAKE,,,,,,,,,,,,,,,,,
,,,,,,,,,672193644fb3e4b721e16394,Spanish,13 or older,"no, only English or Spanish",no,2025-07-22_22h46.09.039,empathy_intonation_perc,2024.2.4,Win32,60.21557175,672193644fb3e4b721e16394,687ed1b7e638a4cbf2f02089,68804ca9079d9c266fa6d7cc,,,,,,,,,,,,,,1,,,,,,,,,,,,,,,,,,,,,,,,,,,,,,,,,,,,,,,,,,,,,,,,,,,,,,,,,43,canela,,,,,682.0741,683.5252,0,0,0.9158,,0,27,27,42,1,REAL,FAKE,,,,,,,,,,,,,,,,,
,,,,,,,,,672193644fb3e4b721e16394,Spanish,13 or older,"no, only English or Spanish",no,2025-07-22_22h46.09.039,empathy_intonation_perc,2024.2.4,Win32,60.21557175,672193644fb3e4b721e16394,687ed1b7e638a4cbf2f02089,68804ca9079d9c266fa6d7cc,,,,,,,,,,,,,,1,,,,,,,,,,,,,,,,,,,,,,,,,,,,,,,,,,,,,,,,,,,,,,,,,,,,,,,,,46,martillo,,,,,683.5269,685.4923,0,0,1.4397,,0,28,28,45,1,REAL,FAKE,,,,,,,,,,,,,,,,,
,,,,,,,,,672193644fb3e4b721e16394,Spanish,13 or older,"no, only English or Spanish",no,2025-07-22_22h46.09.039,empathy_intonation_perc,2024.2.4,Win32,60.21557175,672193644fb3e4b721e16394,687ed1b7e638a4cbf2f02089,68804ca9079d9c266fa6d7cc,,,,,,,,,,,,,,1,,,,,,,,,,,,,,,,,,,,,,,,,,,,,,,,,,,,,,,,,,,,,,,,,,,,,,,,,65,bizcocho,,,,,685.4936,687.1104,1,1,1.101,,0,29,29,64,1,REAL,FAKE,,,,,,,,,,,,,,,,,
,,,,,,,,,672193644fb3e4b721e16394,Spanish,13 or older,"no, only English or Spanish",no,2025-07-22_22h46.09.039,empathy_intonation_perc,2024.2.4,Win32,60.21557175,672193644fb3e4b721e16394,687ed1b7e638a4cbf2f02089,68804ca9079d9c266fa6d7cc,,,,,,,,,,,,,,1,,,,,,,,,,,,,,,,,,,,,,,,,,,,,,,,,,,,,,,,,,,,,,,,,,,,,,,,,6,tergiversar,,,,,687.1114,688.9121,0,0,1.2885,,0,30,30,5,1,REAL,FAKE,,,,,,,,,,,,,,,,,
,,,,,,,,,672193644fb3e4b721e16394,Spanish,13 or older,"no, only English or Spanish",no,2025-07-22_22h46.09.039,empathy_intonation_perc,2024.2.4,Win32,60.21557175,672193644fb3e4b721e16394,687ed1b7e638a4cbf2f02089,68804ca9079d9c266fa6d7cc,,,,,,,,,,,,,,0,,,,,,,,,,,,,,,,,,,,,,,,,,,,,,,,,,,,,,,,,,,,,,,,,,,,,,,,,82,empirador,,,,,688.9131,690.4973,1,0,1.0686,,0,31,31,81,1,REAL,FAKE,,,,,,,,,,,,,,,,,
,,,,,,,,,672193644fb3e4b721e16394,Spanish,13 or older,"no, only English or Spanish",no,2025-07-22_22h46.09.039,empathy_intonation_perc,2024.2.4,Win32,60.21557175,672193644fb3e4b721e16394,687ed1b7e638a4cbf2f02089,68804ca9079d9c266fa6d7cc,,,,,,,,,,,,,,0,,,,,,,,,,,,,,,,,,,,,,,,,,,,,,,,,,,,,,,,,,,,,,,,,,,,,,,,,70,temblo,,,,,690.4983,691.9313,1,0,0.9012,,0,32,32,69,1,REAL,FAKE,,,,,,,,,,,,,,,,,
,,,,,,,,,672193644fb3e4b721e16394,Spanish,13 or older,"no, only English or Spanish",no,2025-07-22_22h46.09.039,empathy_intonation_perc,2024.2.4,Win32,60.21557175,672193644fb3e4b721e16394,687ed1b7e638a4cbf2f02089,68804ca9079d9c266fa6d7cc,,,,,,,,,,,,,,0,,,,,,,,,,,,,,,,,,,,,,,,,,,,,,,,,,,,,,,,,,,,,,,,,,,,,,,,,74,cintro,,,,,691.9324,693.8002,0,1,1.344,,0,33,33,73,1,REAL,FAKE,,,,,,,,,,,,,,,,,
,,,,,,,,,672193644fb3e4b721e16394,Spanish,13 or older,"no, only English or Spanish",no,2025-07-22_22h46.09.039,empathy_intonation_perc,2024.2.4,Win32,60.21557175,672193644fb3e4b721e16394,687ed1b7e638a4cbf2f02089,68804ca9079d9c266fa6d7cc,,,,,,,,,,,,,,1,,,,,,,,,,,,,,,,,,,,,,,,,,,,,,,,,,,,,,,,,,,,,,,,,,,,,,,,,3,pulmones,,,,,693.8012,695.2013,1,1,0.8773,,0,34,34,2,1,REAL,FAKE,,,,,,,,,,,,,,,,,
,,,,,,,,,672193644fb3e4b721e16394,Spanish,13 or older,"no, only English or Spanish",no,2025-07-22_22h46.09.039,empathy_intonation_perc,2024.2.4,Win32,60.21557175,672193644fb3e4b721e16394,687ed1b7e638a4cbf2f02089,68804ca9079d9c266fa6d7cc,,,,,,,,,,,,,,1,,,,,,,,,,,,,,,,,,,,,,,,,,,,,,,,,,,,,,,,,,,,,,,,,,,,,,,,,51,candado,,,,,695.2028,697.3524,1,1,1.6273,,0,35,35,50,1,REAL,FAKE,,,,,,,,,,,,,,,,,
,,,,,,,,,672193644fb3e4b721e16394,Spanish,13 or older,"no, only English or Spanish",no,2025-07-22_22h46.09.039,empathy_intonation_perc,2024.2.4,Win32,60.21557175,672193644fb3e4b721e16394,687ed1b7e638a4cbf2f02089,68804ca9079d9c266fa6d7cc,,,,,,,,,,,,,,0,,,,,,,,,,,,,,,,,,,,,,,,,,,,,,,,,,,,,,,,,,,,,,,,,,,,,,,,,16,abracer,,,,,697.3537,698.8707,1,0,1.0108,,0,36,36,15,1,REAL,FAKE,,,,,,,,,,,,,,,,,
,,,,,,,,,672193644fb3e4b721e16394,Spanish,13 or older,"no, only English or Spanish",no,2025-07-22_22h46.09.039,empathy_intonation_perc,2024.2.4,Win32,60.21557175,672193644fb3e4b721e16394,687ed1b7e638a4cbf2f02089,68804ca9079d9c266fa6d7cc,,,,,,,,,,,,,,0,,,,,,,,,,,,,,,,,,,,,,,,,,,,,,,,,,,,,,,,,,,,,,,,,,,,,,,,,32,fatacidad,,,,,698.8716,700.2066,1,0,0.8232,,0,37,37,31,1,REAL,FAKE,,,,,,,,,,,,,,,,,
,,,,,,,,,672193644fb3e4b721e16394,Spanish,13 or older,"no, only English or Spanish",no,2025-07-22_22h46.09.039,empathy_intonation_perc,2024.2.4,Win32,60.21557175,672193644fb3e4b721e16394,687ed1b7e638a4cbf2f02089,68804ca9079d9c266fa6d7cc,,,,,,,,,,,,,,1,,,,,,,,,,,,,,,,,,,,,,,,,,,,,,,,,,,,,,,,,,,,,,,,,,,,,,,,,75,yacer,,,,,700.2077,702.1405,1,1,1.4066,,0,38,38,74,1,REAL,FAKE,,,,,,,,,,,,,,,,,
,,,,,,,,,672193644fb3e4b721e16394,Spanish,13 or older,"no, only English or Spanish",no,2025-07-22_22h46.09.039,empathy_intonation_perc,2024.2.4,Win32,60.21557175,672193644fb3e4b721e16394,687ed1b7e638a4cbf2f02089,68804ca9079d9c266fa6d7cc,,,,,,,,,,,,,,1,,,,,,,,,,,,,,,,,,,,,,,,,,,,,,,,,,,,,,,,,,,,,,,,,,,,,,,,,86,barato,,,,,702.1416,704.1419,1,1,1.4718,,0,39,39,85,1,REAL,FAKE,,,,,,,,,,,,,,,,,
,,,,,,,,,672193644fb3e4b721e16394,Spanish,13 or older,"no, only English or Spanish",no,2025-07-22_22h46.09.039,empathy_intonation_perc,2024.2.4,Win32,60.21557175,672193644fb3e4b721e16394,687ed1b7e638a4cbf2f02089,68804ca9079d9c266fa6d7cc,,,,,,,,,,,,,,1,,,,,,,,,,,,,,,,,,,,,,,,,,,,,,,,,,,,,,,,,,,,,,,,,,,,,,,,,31,pandilla,,,,,704.1429,705.61,1,1,0.9582,,0,40,40,30,1,REAL,FAKE,,,,,,,,,,,,,,,,,
,,,,,,,,,672193644fb3e4b721e16394,Spanish,13 or older,"no, only English or Spanish",no,2025-07-22_22h46.09.039,empathy_intonation_perc,2024.2.4,Win32,60.21557175,672193644fb3e4b721e16394,687ed1b7e638a4cbf2f02089,68804ca9079d9c266fa6d7cc,,,,,,,,,,,,,,1,,,,,,,,,,,,,,,,,,,,,,,,,,,,,,,,,,,,,,,,,,,,,,,,,,,,,,,,,89,prisa,,,,,705.6116,706.7608,0,0,0.6265,,0,41,41,88,1,REAL,FAKE,,,,,,,,,,,,,,,,,
,,,,,,,,,672193644fb3e4b721e16394,Spanish,13 or older,"no, only English or Spanish",no,2025-07-22_22h46.09.039,empathy_intonation_perc,2024.2.4,Win32,60.21557175,672193644fb3e4b721e16394,687ed1b7e638a4cbf2f02089,68804ca9079d9c266fa6d7cc,,,,,,,,,,,,,,1,,,,,,,,,,,,,,,,,,,,,,,,,,,,,,,,,,,,,,,,,,,,,,,,,,,,,,,,,37,granuja,,,,,706.7627,707.9457,1,1,0.6634,,0,42,42,36,1,REAL,FAKE,,,,,,,,,,,,,,,,,
,,,,,,,,,672193644fb3e4b721e16394,Spanish,13 or older,"no, only English or Spanish",no,2025-07-22_22h46.09.039,empathy_intonation_perc,2024.2.4,Win32,60.21557175,672193644fb3e4b721e16394,687ed1b7e638a4cbf2f02089,68804ca9079d9c266fa6d7cc,,,,,,,,,,,,,,1,,,,,,,,,,,,,,,,,,,,,,,,,,,,,,,,,,,,,,,,,,,,,,,,,,,,,,,,,14,yunque,,,,,707.9465,709.5641,0,0,1.0836,,0,43,43,13,1,REAL,FAKE,,,,,,,,,,,,,,,,,
,,,,,,,,,672193644fb3e4b721e16394,Spanish,13 or older,"no, only English or Spanish",no,2025-07-22_22h46.09.039,empathy_intonation_perc,2024.2.4,Win32,60.21557175,672193644fb3e4b721e16394,687ed1b7e638a4cbf2f02089,68804ca9079d9c266fa6d7cc,,,,,,,,,,,,,,1,,,,,,,,,,,,,,,,,,,,,,,,,,,,,,,,,,,,,,,,,,,,,,,,,,,,,,,,,28,merodear,,,,,709.5659,711.3148,1,1,1.226900001,,0,44,44,27,1,REAL,FAKE,,,,,,,,,,,,,,,,,
,,,,,,,,,672193644fb3e4b721e16394,Spanish,13 or older,"no, only English or Spanish",no,2025-07-22_22h46.09.039,empathy_intonation_perc,2024.2.4,Win32,60.21557175,672193644fb3e4b721e16394,687ed1b7e638a4cbf2f02089,68804ca9079d9c266fa6d7cc,,,,,,,,,,,,,,1,,,,,,,,,,,,,,,,,,,,,,,,,,,,,,,,,,,,,,,,,,,,,,,,,,,,,,,,,81,pozo,,,,,711.316,712.4159,1,1,0.5717,,0,45,45,80,1,REAL,FAKE,,,,,,,,,,,,,,,,,
,,,,,,,,,672193644fb3e4b721e16394,Spanish,13 or older,"no, only English or Spanish",no,2025-07-22_22h46.09.039,empathy_intonation_perc,2024.2.4,Win32,60.21557175,672193644fb3e4b721e16394,687ed1b7e638a4cbf2f02089,68804ca9079d9c266fa6d7cc,,,,,,,,,,,,,,0,,,,,,,,,,,,,,,,,,,,,,,,,,,,,,,,,,,,,,,,,,,,,,,,,,,,,,,,,58,plaudir,,,,,712.4171,713.568,1,0,0.6295,,0,46,46,57,1,REAL,FAKE,,,,,,,,,,,,,,,,,
,,,,,,,,,672193644fb3e4b721e16394,Spanish,13 or older,"no, only English or Spanish",no,2025-07-22_22h46.09.039,empathy_intonation_perc,2024.2.4,Win32,60.21557175,672193644fb3e4b721e16394,687ed1b7e638a4cbf2f02089,68804ca9079d9c266fa6d7cc,,,,,,,,,,,,,,1,,,,,,,,,,,,,,,,,,,,,,,,,,,,,,,,,,,,,,,,,,,,,,,,,,,,,,,,,60,matar,,,,,713.5692,714.768,0,0,0.6712,,0,47,47,59,1,REAL,FAKE,,,,,,,,,,,,,,,,,
,,,,,,,,,672193644fb3e4b721e16394,Spanish,13 or older,"no, only English or Spanish",no,2025-07-22_22h46.09.039,empathy_intonation_perc,2024.2.4,Win32,60.21557175,672193644fb3e4b721e16394,687ed1b7e638a4cbf2f02089,68804ca9079d9c266fa6d7cc,,,,,,,,,,,,,,1,,,,,,,,,,,,,,,,,,,,,,,,,,,,,,,,,,,,,,,,,,,,,,,,,,,,,,,,,91,click the 1 key.,,,,,714.7698,716.953,1,1,1.6632,,0,48,48,90,1,REAL,FAKE,,,,,,,,,,,,,,,,,
,,,,,,,,,672193644fb3e4b721e16394,Spanish,13 or older,"no, only English or Spanish",no,2025-07-22_22h46.09.039,empathy_intonation_perc,2024.2.4,Win32,60.21557175,672193644fb3e4b721e16394,687ed1b7e638a4cbf2f02089,68804ca9079d9c266fa6d7cc,,,,,,,,,,,,,,1,,,,,,,,,,,,,,,,,,,,,,,,,,,,,,,,,,,,,,,,,,,,,,,,,,,,,,,,,7,pésimo,,,,,716.9543,724.1091,1,1,6.629,,0,49,49,6,1,REAL,FAKE,,,,,,,,,,,,,,,,,
,,,,,,,,,672193644fb3e4b721e16394,Spanish,13 or older,"no, only English or Spanish",no,2025-07-22_22h46.09.039,empathy_intonation_perc,2024.2.4,Win32,60.21557175,672193644fb3e4b721e16394,687ed1b7e638a4cbf2f02089,68804ca9079d9c266fa6d7cc,,,,,,,,,,,,,,0,,,,,,,,,,,,,,,,,,,,,,,,,,,,,,,,,,,,,,,,,,,,,,,,,,,,,,,,,19,brecedad,,,,,724.1256,725.3616,0,1,0.720700001,,0,50,50,18,1,REAL,FAKE,,,,,,,,,,,,,,,,,
,,,,,,,,,672193644fb3e4b721e16394,Spanish,13 or older,"no, only English or Spanish",no,2025-07-22_22h46.09.039,empathy_intonation_perc,2024.2.4,Win32,60.21557175,672193644fb3e4b721e16394,687ed1b7e638a4cbf2f02089,68804ca9079d9c266fa6d7cc,,,,,,,,,,,,,,1,,,,,,,,,,,,,,,,,,,,,,,,,,,,,,,,,,,,,,,,,,,,,,,,,,,,,,,,,76,atar,,,,,725.3631,726.1782,1,1,0.2917,,0,51,51,75,1,REAL,FAKE,,,,,,,,,,,,,,,,,
,,,,,,,,,672193644fb3e4b721e16394,Spanish,13 or older,"no, only English or Spanish",no,2025-07-22_22h46.09.039,empathy_intonation_perc,2024.2.4,Win32,60.21557175,672193644fb3e4b721e16394,687ed1b7e638a4cbf2f02089,68804ca9079d9c266fa6d7cc,,,,,,,,,,,,,,0,,,,,,,,,,,,,,,,,,,,,,,,,,,,,,,,,,,,,,,,,,,,,,,,,,,,,,,,,10,antar,,,,,726.1794,726.9783,0,1,0.276,,0,52,52,9,1,REAL,FAKE,,,,,,,,,,,,,,,,,
,,,,,,,,,672193644fb3e4b721e16394,Spanish,13 or older,"no, only English or Spanish",no,2025-07-22_22h46.09.039,empathy_intonation_perc,2024.2.4,Win32,60.21557175,672193644fb3e4b721e16394,687ed1b7e638a4cbf2f02089,68804ca9079d9c266fa6d7cc,,,,,,,,,,,,,,0,,,,,,,,,,,,,,,,,,,,,,,,,,,,,,,,,,,,,,,,,,,,,,,,,,,,,,,,,42,cadallo,,,,,726.9794,727.8793,1,0,0.381599999,,0,53,53,41,1,REAL,FAKE,,,,,,,,,,,,,,,,,
,,,,,,,,,672193644fb3e4b721e16394,Spanish,13 or older,"no, only English or Spanish",no,2025-07-22_22h46.09.039,empathy_intonation_perc,2024.2.4,Win32,60.21557175,672193644fb3e4b721e16394,687ed1b7e638a4cbf2f02089,68804ca9079d9c266fa6d7cc,,,,,,,,,,,,,,1,,,,,,,,,,,,,,,,,,,,,,,,,,,,,,,,,,,,,,,,,,,,,,,,,,,,,,,,,25,bisagra,,,,,727.8805,728.7966,0,0,0.3883,,0,54,54,24,1,REAL,FAKE,,,,,,,,,,,,,,,,,
,,,,,,,,,672193644fb3e4b721e16394,Spanish,13 or older,"no, only English or Spanish",no,2025-07-22_22h46.09.039,empathy_intonation_perc,2024.2.4,Win32,60.21557175,672193644fb3e4b721e16394,687ed1b7e638a4cbf2f02089,68804ca9079d9c266fa6d7cc,,,,,,,,,,,,,,1,,,,,,,,,,,,,,,,,,,,,,,,,,,,,,,,,,,,,,,,,,,,,,,,,,,,,,,,,22,lacayo,,,,,728.7979,729.6474,0,0,0.3332,,0,55,55,21,1,REAL,FAKE,,,,,,,,,,,,,,,,,
,,,,,,,,,672193644fb3e4b721e16394,Spanish,13 or older,"no, only English or Spanish",no,2025-07-22_22h46.09.039,empathy_intonation_perc,2024.2.4,Win32,60.21557175,672193644fb3e4b721e16394,687ed1b7e638a4cbf2f02089,68804ca9079d9c266fa6d7cc,,,,,,,,,,,,,,1,,,,,,,,,,,,,,,,,,,,,,,,,,,,,,,,,,,,,,,,,,,,,,,,,,,,,,,,,40,alfombra,,,,,729.6493,730.3312,1,1,0.1562,,0,56,56,39,1,REAL,FAKE,,,,,,,,,,,,,,,,,
,,,,,,,,,672193644fb3e4b721e16394,Spanish,13 or older,"no, only English or Spanish",no,2025-07-22_22h46.09.039,empathy_intonation_perc,2024.2.4,Win32,60.21557175,672193644fb3e4b721e16394,687ed1b7e638a4cbf2f02089,68804ca9079d9c266fa6d7cc,,,,,,,,,,,,,,0,,,,,,,,,,,,,,,,,,,,,,,,,,,,,,,,,,,,,,,,,,,,,,,,,,,,,,,,,50,flamida,,,,,730.3324,731.0982,0,1,0.2322,,0,57,57,49,1,REAL,FAKE,,,,,,,,,,,,,,,,,
,,,,,,,,,672193644fb3e4b721e16394,Spanish,13 or older,"no, only English or Spanish",no,2025-07-22_22h46.09.039,empathy_intonation_perc,2024.2.4,Win32,60.21557175,672193644fb3e4b721e16394,687ed1b7e638a4cbf2f02089,68804ca9079d9c266fa6d7cc,,,,,,,,,,,,,,1,,,,,,,,,,,,,,,,,,,,,,,,,,,,,,,,,,,,,,,,,,,,,,,,,,,,,,,,,69,engatusar,,,,,731.0994,731.8833,0,0,0.2656,,0,58,58,68,1,REAL,FAKE,,,,,,,,,,,,,,,,,
,,,,,,,,,672193644fb3e4b721e16394,Spanish,13 or older,"no, only English or Spanish",no,2025-07-22_22h46.09.039,empathy_intonation_perc,2024.2.4,Win32,60.21557175,672193644fb3e4b721e16394,687ed1b7e638a4cbf2f02089,68804ca9079d9c266fa6d7cc,,,,,,,,,,,,,,0,,,,,,,,,,,,,,,,,,,,,,,,,,,,,,,,,,,,,,,,,,,,,,,,,,,,,,,,,66,hacido,,,,,731.8857,732.7332,1,0,0.3153,,0,59,59,65,1,REAL,FAKE,,,,,,,,,,,,,,,,,
,,,,,,,,,672193644fb3e4b721e16394,Spanish,13 or older,"no, only English or Spanish",no,2025-07-22_22h46.09.039,empathy_intonation_perc,2024.2.4,Win32,60.21557175,672193644fb3e4b721e16394,687ed1b7e638a4cbf2f02089,68804ca9079d9c266fa6d7cc,,,,,,,,,,,,,,1,,,,,,,,,,,,,,,,,,,,,,,,,,,,,,,,,,,,,,,,,,,,,,,,,,,,,,,,,39,torpe,,,,,732.7341,733.5959,0,0,0.3413,,0,60,60,38,1,REAL,FAKE,,,,,,,,,,,,,,,,,
,,,,,,,,,672193644fb3e4b721e16394,Spanish,13 or older,"no, only English or Spanish",no,2025-07-22_22h46.09.039,empathy_intonation_perc,2024.2.4,Win32,60.21557175,672193644fb3e4b721e16394,687ed1b7e638a4cbf2f02089,68804ca9079d9c266fa6d7cc,,,,,,,,,,,,,,1,,,,,,,,,,,,,,,,,,,,,,,,,,,,,,,,,,,,,,,,,,,,,,,,,,,,,,,,,77,tiburón,,,,,733.5978,734.5682,0,0,0.4489,,0,61,61,76,1,REAL,FAKE,,,,,,,,,,,,,,,,,
,,,,,,,,,672193644fb3e4b721e16394,Spanish,13 or older,"no, only English or Spanish",no,2025-07-22_22h46.09.039,empathy_intonation_perc,2024.2.4,Win32,60.21557175,672193644fb3e4b721e16394,687ed1b7e638a4cbf2f02089,68804ca9079d9c266fa6d7cc,,,,,,,,,,,,,,1,,,,,,,,,,,,,,,,,,,,,,,,,,,,,,,,,,,,,,,,,,,,,,,,,,,,,,,,,12,asesinato,,,,,734.5691,735.3854,1,1,0.293,,0,62,62,11,1,REAL,FAKE,,,,,,,,,,,,,,,,,
,,,,,,,,,672193644fb3e4b721e16394,Spanish,13 or older,"no, only English or Spanish",no,2025-07-22_22h46.09.039,empathy_intonation_perc,2024.2.4,Win32,60.21557175,672193644fb3e4b721e16394,687ed1b7e638a4cbf2f02089,68804ca9079d9c266fa6d7cc,,,,,,,,,,,,,,1,,,,,,,,,,,,,,,,,,,,,,,,,,,,,,,,,,,,,,,,,,,,,,,,,,,,,,,,,78,frondoso,,,,,735.3866,736.2525,0,0,0.355,,0,63,63,77,1,REAL,FAKE,,,,,,,,,,,,,,,,,
,,,,,,,,,672193644fb3e4b721e16394,Spanish,13 or older,"no, only English or Spanish",no,2025-07-22_22h46.09.039,empathy_intonation_perc,2024.2.4,Win32,60.21557175,672193644fb3e4b721e16394,687ed1b7e638a4cbf2f02089,68804ca9079d9c266fa6d7cc,,,,,,,,,,,,,,1,,,,,,,,,,,,,,,,,,,,,,,,,,,,,,,,,,,,,,,,,,,,,,,,,,,,,,,,,15,regar,,,,,736.2535,737.1873,0,0,0.4257,,0,64,64,14,1,REAL,FAKE,,,,,,,,,,,,,,,,,
,,,,,,,,,672193644fb3e4b721e16394,Spanish,13 or older,"no, only English or Spanish",no,2025-07-22_22h46.09.039,empathy_intonation_perc,2024.2.4,Win32,60.21557175,672193644fb3e4b721e16394,687ed1b7e638a4cbf2f02089,68804ca9079d9c266fa6d7cc,,,,,,,,,,,,,,0,,,,,,,,,,,,,,,,,,,,,,,,,,,,,,,,,,,,,,,,,,,,,,,,,,,,,,,,,27,acutación,,,,,737.1883,738.0046,1,0,0.2916,,0,65,65,26,1,REAL,FAKE,,,,,,,,,,,,,,,,,
,,,,,,,,,672193644fb3e4b721e16394,Spanish,13 or older,"no, only English or Spanish",no,2025-07-22_22h46.09.039,empathy_intonation_perc,2024.2.4,Win32,60.21557175,672193644fb3e4b721e16394,687ed1b7e638a4cbf2f02089,68804ca9079d9c266fa6d7cc,,,,,,,,,,,,,,0,,,,,,,,,,,,,,,,,,,,,,,,,,,,,,,,,,,,,,,,,,,,,,,,,,,,,,,,,30,alardio,,,,,738.0059,739.022,1,0,0.4828,,0,66,66,29,1,REAL,FAKE,,,,,,,,,,,,,,,,,
,,,,,,,,,672193644fb3e4b721e16394,Spanish,13 or older,"no, only English or Spanish",no,2025-07-22_22h46.09.039,empathy_intonation_perc,2024.2.4,Win32,60.21557175,672193644fb3e4b721e16394,687ed1b7e638a4cbf2f02089,68804ca9079d9c266fa6d7cc,,,,,,,,,,,,,,1,,,,,,,,,,,,,,,,,,,,,,,,,,,,,,,,,,,,,,,,,,,,,,,,,,,,,,,,,88,acantilado,,,,,739.0234,740.4895,1,1,0.935,,0,67,67,87,1,REAL,FAKE,,,,,,,,,,,,,,,,,
,,,,,,,,,672193644fb3e4b721e16394,Spanish,13 or older,"no, only English or Spanish",no,2025-07-22_22h46.09.039,empathy_intonation_perc,2024.2.4,Win32,60.21557175,672193644fb3e4b721e16394,687ed1b7e638a4cbf2f02089,68804ca9079d9c266fa6d7cc,,,,,,,,,,,,,,0,,,,,,,,,,,,,,,,,,,,,,,,,,,,,,,,,,,,,,,,,,,,,,,,,,,,,,,,,4,batillón,,,,,740.4905,741.7245,1,0,0.7197,,0,68,68,3,1,REAL,FAKE,,,,,,,,,,,,,,,,,
,,,,,,,,,672193644fb3e4b721e16394,Spanish,13 or older,"no, only English or Spanish",no,2025-07-22_22h46.09.039,empathy_intonation_perc,2024.2.4,Win32,60.21557175,672193644fb3e4b721e16394,687ed1b7e638a4cbf2f02089,68804ca9079d9c266fa6d7cc,,,,,,,,,,,,,,1,,,,,,,,,,,,,,,,,,,,,,,,,,,,,,,,,,,,,,,,,,,,,,,,,,,,,,,,,49,ganar,,,,,741.7255,742.6926,0,0,0.4412,,0,69,69,48,1,REAL,FAKE,,,,,,,,,,,,,,,,,
,,,,,,,,,672193644fb3e4b721e16394,Spanish,13 or older,"no, only English or Spanish",no,2025-07-22_22h46.09.039,empathy_intonation_perc,2024.2.4,Win32,60.21557175,672193644fb3e4b721e16394,687ed1b7e638a4cbf2f02089,68804ca9079d9c266fa6d7cc,,,,,,,,,,,,,,1,,,,,,,,,,,,,,,,,,,,,,,,,,,,,,,,,,,,,,,,,,,,,,,,,,,,,,,,,61,seda,,,,,742.6941,743.4759,0,0,0.25,,0,70,70,60,1,REAL,FAKE,,,,,,,,,,,,,,,,,
,,,,,,,,,672193644fb3e4b721e16394,Spanish,13 or older,"no, only English or Spanish",no,2025-07-22_22h46.09.039,empathy_intonation_perc,2024.2.4,Win32,60.21557175,672193644fb3e4b721e16394,687ed1b7e638a4cbf2f02089,68804ca9079d9c266fa6d7cc,,,,,,,,,,,,,,1,,,,,,,,,,,,,,,,,,,,,,,,,,,,,,,,,,,,,,,,,,,,,,,,,,,,,,,,,36,loro,,,,,743.4774,744.2266,0,0,0.2173,,0,71,71,35,1,REAL,FAKE,,,,,,,,,,,,,,,,,
,,,,,,,,,672193644fb3e4b721e16394,Spanish,13 or older,"no, only English or Spanish",no,2025-07-22_22h46.09.039,empathy_intonation_perc,2024.2.4,Win32,60.21557175,672193644fb3e4b721e16394,687ed1b7e638a4cbf2f02089,68804ca9079d9c266fa6d7cc,,,,,,,,,,,,,,1,,,,,,,,,,,,,,,,,,,,,,,,,,,,,,,,,,,,,,,,,,,,,,,,,,,,,,,,,5,zapato,,,,,744.2276,745.0607,0,0,0.3059,,0,72,72,4,1,REAL,FAKE,,,,,,,,,,,,,,,,,
,,,,,,,,,672193644fb3e4b721e16394,Spanish,13 or older,"no, only English or Spanish",no,2025-07-22_22h46.09.039,empathy_intonation_perc,2024.2.4,Win32,60.21557175,672193644fb3e4b721e16394,687ed1b7e638a4cbf2f02089,68804ca9079d9c266fa6d7cc,,,,,,,,,,,,,,0,,,,,,,,,,,,,,,,,,,,,,,,,,,,,,,,,,,,,,,,,,,,,,,,,,,,,,,,,8,cadeña,,,,,745.0621,745.6778,0,1,0.0878,,0,73,73,7,1,REAL,FAKE,,,,,,,,,,,,,,,,,
,,,,,,,,,672193644fb3e4b721e16394,Spanish,13 or older,"no, only English or Spanish",no,2025-07-22_22h46.09.039,empathy_intonation_perc,2024.2.4,Win32,60.21557175,672193644fb3e4b721e16394,687ed1b7e638a4cbf2f02089,68804ca9079d9c266fa6d7cc,,,,,,,,,,,,,,1,,,,,,,,,,,,,,,,,,,,,,,,,,,,,,,,,,,,,,,,,,,,,,,,,,,,,,,,,83,guante,,,,,745.6788,746.8457,1,1,0.6455,,0,74,74,82,1,REAL,FAKE,,,,,,,,,,,,,,,,,
,,,,,,,,,672193644fb3e4b721e16394,Spanish,13 or older,"no, only English or Spanish",no,2025-07-22_22h46.09.039,empathy_intonation_perc,2024.2.4,Win32,60.21557175,672193644fb3e4b721e16394,687ed1b7e638a4cbf2f02089,68804ca9079d9c266fa6d7cc,,,,,,,,,,,,,,1,,,,,,,,,,,,,,,,,,,,,,,,,,,,,,,,,,,,,,,,,,,,,,,,,,,,,,,,,90,clavel,,,,,746.8466,747.5958,1,1,0.2155,,0,75,75,89,1,REAL,FAKE,,,,,,,,,,,,,,,,,
,,,,,,,,,672193644fb3e4b721e16394,Spanish,13 or older,"no, only English or Spanish",no,2025-07-22_22h46.09.039,empathy_intonation_perc,2024.2.4,Win32,60.21557175,672193644fb3e4b721e16394,687ed1b7e638a4cbf2f02089,68804ca9079d9c266fa6d7cc,,,,,,,,,,,,,,1,,,,,,,,,,,,,,,,,,,,,,,,,,,,,,,,,,,,,,,,,,,,,,,,,,,,,,,,,26,secuestro,,,,,747.5969,748.4136,1,1,0.301900001,,0,76,76,25,1,REAL,FAKE,,,,,,,,,,,,,,,,,
,,,,,,,,,672193644fb3e4b721e16394,Spanish,13 or older,"no, only English or Spanish",no,2025-07-22_22h46.09.039,empathy_intonation_perc,2024.2.4,Win32,60.21557175,672193644fb3e4b721e16394,687ed1b7e638a4cbf2f02089,68804ca9079d9c266fa6d7cc,,,,,,,,,,,,,,1,,,,,,,,,,,,,,,,,,,,,,,,,,,,,,,,,,,,,,,,,,,,,,,,,,,,,,,,,41,rebuscar,,,,,748.4145,749.6814,1,1,0.7352,,0,77,77,40,1,REAL,FAKE,,,,,,,,,,,,,,,,,
,,,,,,,,,672193644fb3e4b721e16394,Spanish,13 or older,"no, only English or Spanish",no,2025-07-22_22h46.09.039,empathy_intonation_perc,2024.2.4,Win32,60.21557175,672193644fb3e4b721e16394,687ed1b7e638a4cbf2f02089,68804ca9079d9c266fa6d7cc,,,,,,,,,,,,,,1,,,,,,,,,,,,,,,,,,,,,,,,,,,,,,,,,,,,,,,,,,,,,,,,,,,,,,,,,24,látigo,,,,,749.6835,750.8157,1,1,0.6087,,0,78,78,23,1,REAL,FAKE,,,,,,,,,,,,,,,,,
,,,,,,,,,672193644fb3e4b721e16394,Spanish,13 or older,"no, only English or Spanish",no,2025-07-22_22h46.09.039,empathy_intonation_perc,2024.2.4,Win32,60.21557175,672193644fb3e4b721e16394,687ed1b7e638a4cbf2f02089,68804ca9079d9c266fa6d7cc,,,,,,,,,,,,,,1,,,,,,,,,,,,,,,,,,,,,,,,,,,,,,,,,,,,,,,,,,,,,,,,,,,,,,,,,67,cabello,,,,,750.8168,751.886,1,1,0.5479,,0,79,79,66,1,REAL,FAKE,,,,,,,,,,,,,,,,,
,,,,,,,,,672193644fb3e4b721e16394,Spanish,13 or older,"no, only English or Spanish",no,2025-07-22_22h46.09.039,empathy_intonation_perc,2024.2.4,Win32,60.21557175,672193644fb3e4b721e16394,687ed1b7e638a4cbf2f02089,68804ca9079d9c266fa6d7cc,,,,,,,,,,,,,,1,,,,,,,,,,,,,,,,,,,,,,,,,,,,,,,,,,,,,,,,,,,,,,,,,,,,,,,,,48,ladrón,,,,,751.8868,753.1515,1,1,0.7188,,0,80,80,47,1,REAL,FAKE,,,,,,,,,,,,,,,,,
,,,,,,,,,672193644fb3e4b721e16394,Spanish,13 or older,"no, only English or Spanish",no,2025-07-22_22h46.09.039,empathy_intonation_perc,2024.2.4,Win32,60.21557175,672193644fb3e4b721e16394,687ed1b7e638a4cbf2f02089,68804ca9079d9c266fa6d7cc,,,,,,,,,,,,,,1,,,,,,,,,,,,,,,,,,,,,,,,,,,,,,,,,,,,,,,,,,,,,,,,,,,,,,,,,52,camisa,,,,,753.153,754.2399,1,1,0.5675,,0,81,81,51,1,REAL,FAKE,,,,,,,,,,,,,,,,,
,,,,,,,,,672193644fb3e4b721e16394,Spanish,13 or older,"no, only English or Spanish",no,2025-07-22_22h46.09.039,empathy_intonation_perc,2024.2.4,Win32,60.21557175,672193644fb3e4b721e16394,687ed1b7e638a4cbf2f02089,68804ca9079d9c266fa6d7cc,,,,,,,,,,,,,,0,,,,,,,,,,,,,,,,,,,,,,,,,,,,,,,,,,,,,,,,,,,,,,,,,,,,,,,,,17,floroso,,,,,754.2418,755.1899,1,0,0.4151,,0,82,82,16,1,REAL,FAKE,,,,,,,,,,,,,,,,,
,,,,,,,,,672193644fb3e4b721e16394,Spanish,13 or older,"no, only English or Spanish",no,2025-07-22_22h46.09.039,empathy_intonation_perc,2024.2.4,Win32,60.21557175,672193644fb3e4b721e16394,687ed1b7e638a4cbf2f02089,68804ca9079d9c266fa6d7cc,,,,,,,,,,,,,,1,,,,,,,,,,,,,,,,,,,,,,,,,,,,,,,,,,,,,,,,,,,,,,,,,,,,,,,,,34,aviso,,,,,755.1911,756.1255,1,1,0.4012,,0,83,83,33,1,REAL,FAKE,,,,,,,,,,,,,,,,,
,,,,,,,,,672193644fb3e4b721e16394,Spanish,13 or older,"no, only English or Spanish",no,2025-07-22_22h46.09.039,empathy_intonation_perc,2024.2.4,Win32,60.21557175,672193644fb3e4b721e16394,687ed1b7e638a4cbf2f02089,68804ca9079d9c266fa6d7cc,,,,,,,,,,,,,,1,,,,,,,,,,,,,,,,,,,,,,,,,,,,,,,,,,,,,,,,,,,,,,,,,,,,,,,,,2,pellizcar,,,,,756.1266,756.9763,1,1,0.3189,,0,84,84,1,1,REAL,FAKE,,,,,,,,,,,,,,,,,
,,,,,,,,,672193644fb3e4b721e16394,Spanish,13 or older,"no, only English or Spanish",no,2025-07-22_22h46.09.039,empathy_intonation_perc,2024.2.4,Win32,60.21557175,672193644fb3e4b721e16394,687ed1b7e638a4cbf2f02089,68804ca9079d9c266fa6d7cc,,,,,,,,,,,,,,1,,,,,,,,,,,,,,,,,,,,,,,,,,,,,,,,,,,,,,,,,,,,,,,,,,,,,,,,,38,estornudar,,,,,756.9774,757.8253,1,1,0.3172,,0,85,85,37,1,REAL,FAKE,,,,,,,,,,,,,,,,,
,,,,,,,,,672193644fb3e4b721e16394,Spanish,13 or older,"no, only English or Spanish",no,2025-07-22_22h46.09.039,empathy_intonation_perc,2024.2.4,Win32,60.21557175,672193644fb3e4b721e16394,687ed1b7e638a4cbf2f02089,68804ca9079d9c266fa6d7cc,,,,,,,,,,,,,,0,,,,,,,,,,,,,,,,,,,,,,,,,,,,,,,,,,,,,,,,,,,,,,,,,,,,,,,,,53,vegada,,,,,757.8263,758.6389,0,1,0.288200001,,0,86,86,52,1,REAL,FAKE,,,,,,,,,,,,,,,,,
,,,,,,,,,672193644fb3e4b721e16394,Spanish,13 or older,"no, only English or Spanish",no,2025-07-22_22h46.09.039,empathy_intonation_perc,2024.2.4,Win32,60.21557175,672193644fb3e4b721e16394,687ed1b7e638a4cbf2f02089,68804ca9079d9c266fa6d7cc,,,,,,,,,,,,,,0,,,,,,,,,,,,,,,,,,,,,,,,,,,,,,,,,,,,,,,,,,,,,,,,,,,,,,,,,72,pemición,,,,,758.64,759.6277,1,0,0.4505,,0,87,87,71,1,REAL,FAKE,,,,,,,,,,,,,,,,,
,,,,,,,,,672193644fb3e4b721e16394,Spanish,13 or older,"no, only English or Spanish",no,2025-07-22_22h46.09.039,empathy_intonation_perc,2024.2.4,Win32,60.21557175,672193644fb3e4b721e16394,687ed1b7e638a4cbf2f02089,68804ca9079d9c266fa6d7cc,,,,,,,,,,,,,,0,,,,,,,,,,,,,,,,,,,,,,,,,,,,,,,,,,,,,,,,,,,,,,,,,,,,,,,,,23,lampera,,,,,759.6288,760.49,0,1,0.317099999,,0,88,88,22,1,REAL,FAKE,,,,,,,,,,,,,,,,,
,,,,,,,,,672193644fb3e4b721e16394,Spanish,13 or older,"no, only English or Spanish",no,2025-07-22_22h46.09.039,empathy_intonation_perc,2024.2.4,Win32,60.21557175,672193644fb3e4b721e16394,687ed1b7e638a4cbf2f02089,68804ca9079d9c266fa6d7cc,,,,,,,,,,,,,,1,,,,,,,,,,,,,,,,,,,,,,,,,,,,,,,,,,,,,,,,,,,,,,,,,,,,,,,,,13,helar,,,,,760.4913,761.3099,1,1,0.2841,,0,89,89,12,1,REAL,FAKE,,,,,,,,,,,,,,,,,
,,,,,,,,,672193644fb3e4b721e16394,Spanish,13 or older,"no, only English or Spanish",no,2025-07-22_22h46.09.039,empathy_intonation_perc,2024.2.4,Win32,60.21557175,672193644fb3e4b721e16394,687ed1b7e638a4cbf2f02089,68804ca9079d9c266fa6d7cc,,,,,,,,,,,,,,1,,,,,,,,,,,,,,,,,,,,,,,,,,,,,,,,,,,,,,,,,,,,,,,,,,,,,,,,,54,fomentar,,,,,761.312,763.4444,1,1,1.6104,,0,90,90,53,1,REAL,FAKE,,,,,,,,,,,,,,,,,
,,,,,,,,,672193644fb3e4b721e16394,Spanish,13 or older,"no, only English or Spanish",no,2025-07-22_22h46.09.039,empathy_intonation_perc,2024.2.4,Win32,60.21557175,672193644fb3e4b721e16394,687ed1b7e638a4cbf2f02089,68804ca9079d9c266fa6d7cc,,,,,,,,,,,,,,1,,,,,,,,,,,,,,,,,,,,,,,,,,,,,,,,,,,,,,,,,,,,,,,,,,,,,,,,,62,flaco,,,,,763.446,764.7809,1,1,0.8163,,0,91,91,61,1,REAL,FAKE,,,,,,,,,,,,,,,,,
,,,,,,,,,672193644fb3e4b721e16394,Spanish,13 or older,"no, only English or Spanish",no,2025-07-22_22h46.09.039,empathy_intonation_perc,2024.2.4,Win32,60.21557175,672193644fb3e4b721e16394,687ed1b7e638a4cbf2f02089,68804ca9079d9c266fa6d7cc,,,,,,,,,,,,,,,,,,,,,,,,,,,,,,,,,,,,,,,,,,,,,,,,,,,,,,,,,,,,,,,,,,,,,,,,,,,,,,,,,,,,,,,,,,764.7821,770.1671,,,,,,,,,,,,,,,
,,,,,,,,,672193644fb3e4b721e16394,Spanish,13 or older,"no, only English or Spanish",no,2025-07-22_22h46.09.039,empathy_intonation_perc,2024.2.4,Win32,60.21557175,672193644fb3e4b721e16394,687ed1b7e638a4cbf2f02089,68804ca9079d9c266fa6d7cc,,,,,,,,,,,,,1,,,,,,,,,,,,,,,,,,,,,,,,,,,,,,,,,,,,,,,,,,,,,,,,,,,,,,,,,,,,,,,,,,,,,,,,,,,,,,,770.2236,778.5908,strongly agree,0,0,0,0,1,I can easily tell if someone else wants to enter a conversation.,1,0,1,0,,
,,,,,,,,,672193644fb3e4b721e16394,Spanish,13 or older,"no, only English or Spanish",no,2025-07-22_22h46.09.039,empathy_intonation_perc,2024.2.4,Win32,60.21557175,672193644fb3e4b721e16394,687ed1b7e638a4cbf2f02089,68804ca9079d9c266fa6d7cc,,,,,,,,,,,,,2,,,,,,,,,,,,,,,,,,,,,,,,,,,,,,,,,,,,,,,,,,,,,,,,,,,,,,,,,,,,,,,,,,,,,,,,,,,,,,,778.5937,782.2677,slightly agree,0,1,1,1,1,I prefer animals to humans.,0,1,0,0,,
,,,,,,,,,672193644fb3e4b721e16394,Spanish,13 or older,"no, only English or Spanish",no,2025-07-22_22h46.09.039,empathy_intonation_perc,2024.2.4,Win32,60.21557175,672193644fb3e4b721e16394,687ed1b7e638a4cbf2f02089,68804ca9079d9c266fa6d7cc,,,,,,,,,,,,,3,,,,,,,,,,,,,,,,,,,,,,,,,,,,,,,,,,,,,,,,,,,,,,,,,,,,,,,,,,,,,,,,,,,,,,,,,,,,,,,782.2702,784.7319,slightly agree,0,2,2,2,1,I try to keep up with the current trends and fashions.,0,1,0,0,,
,,,,,,,,,672193644fb3e4b721e16394,Spanish,13 or older,"no, only English or Spanish",no,2025-07-22_22h46.09.039,empathy_intonation_perc,2024.2.4,Win32,60.21557175,672193644fb3e4b721e16394,687ed1b7e638a4cbf2f02089,68804ca9079d9c266fa6d7cc,,,,,,,,,,,,,4,,,,,,,,,,,,,,,,,,,,,,,,,,,,,,,,,,,,,,,,,,,,,,,,,,,,,,,,,,,,,,,,,,,,,,,,,,,,,,,784.7343,794.5699,slightly agree,0,3,3,3,1,"I find it difficult to explain to others things that I understand easily,   when they don't understand it first time.",1,0,0,1,,
,,,,,,,,,672193644fb3e4b721e16394,Spanish,13 or older,"no, only English or Spanish",no,2025-07-22_22h46.09.039,empathy_intonation_perc,2024.2.4,Win32,60.21557175,672193644fb3e4b721e16394,687ed1b7e638a4cbf2f02089,68804ca9079d9c266fa6d7cc,,,,,,,,,,,,,5,,,,,,,,,,,,,,,,,,,,,,,,,,,,,,,,,,,,,,,,,,,,,,,,,,,,,,,,,,,,,,,,,,,,,,,,,,,,,,,794.5725,798.9239,slightly disagree,0,4,4,4,1,I dream most nights.,0,1,0,0,,
,,,,,,,,,672193644fb3e4b721e16394,Spanish,13 or older,"no, only English or Spanish",no,2025-07-22_22h46.09.039,empathy_intonation_perc,2024.2.4,Win32,60.21557175,672193644fb3e4b721e16394,687ed1b7e638a4cbf2f02089,68804ca9079d9c266fa6d7cc,,,,,,,,,,,,,6,,,,,,,,,,,,,,,,,,,,,,,,,,,,,,,,,,,,,,,,,,,,,,,,,,,,,,,,,,,,,,,,,,,,,,,,,,,,,,,798.9255,801.8264,strongly agree,0,5,5,5,1,I really enjoy caring for other people.,1,0,1,0,,
,,,,,,,,,672193644fb3e4b721e16394,Spanish,13 or older,"no, only English or Spanish",no,2025-07-22_22h46.09.039,empathy_intonation_perc,2024.2.4,Win32,60.21557175,672193644fb3e4b721e16394,687ed1b7e638a4cbf2f02089,68804ca9079d9c266fa6d7cc,,,,,,,,,,,,,7,,,,,,,,,,,,,,,,,,,,,,,,,,,,,,,,,,,,,,,,,,,,,,,,,,,,,,,,,,,,,,,,,,,,,,,,,,,,,,,801.829,806.1636,slightly agree,0,6,6,6,1,I try to solve my own problems rather than discussing them with others.,0,1,0,0,,
,,,,,,,,,672193644fb3e4b721e16394,Spanish,13 or older,"no, only English or Spanish",no,2025-07-22_22h46.09.039,empathy_intonation_perc,2024.2.4,Win32,60.21557175,672193644fb3e4b721e16394,687ed1b7e638a4cbf2f02089,68804ca9079d9c266fa6d7cc,,,,,,,,,,,,,8,,,,,,,,,,,,,,,,,,,,,,,,,,,,,,,,,,,,,,,,,,,,,,,,,,,,,,,,,,,,,,,,,,,,,,,,,,,,,,,806.1649,810.5331,slightly disagree,0,7,7,7,1,I find it hard to know what to do in a social situation.,1,0,0,1,,
,,,,,,,,,672193644fb3e4b721e16394,Spanish,13 or older,"no, only English or Spanish",no,2025-07-22_22h46.09.039,empathy_intonation_perc,2024.2.4,Win32,60.21557175,672193644fb3e4b721e16394,687ed1b7e638a4cbf2f02089,68804ca9079d9c266fa6d7cc,,,,,,,,,,,,,9,,,,,,,,,,,,,,,,,,,,,,,,,,,,,,,,,,,,,,,,,,,,,,,,,,,,,,,,,,,,,,,,,,,,,,,,,,,,,,,810.5344,813.9033,slightly agree,0,8,8,8,1,I am at my best first thing in the morning.,0,1,0,0,,
