instructions_exposure.started,instructions_exposure.stopped,instructions_exposure_loop.thisRepN,instructions_exposure_loop.thisTrialN,instructions_exposure_loop.thisN,instructions_exposure_loop.thisIndex,instructions_exposure_loop.ran,instructions_text,continue_text,participant_id,"What variety of Spanish are you most familiar with? (e.g., Peruvian, Spanish, Mexican)",At what age did you begin learning Spanish?,Are you proficient in any languages other than English/Spanish?,"Are you familiar with Caribbean (e.g., Caribbean, Puerto Rican) or Galician Spanish?",date,expName,psychopyVersion,OS,frameRate,id,study_id,session,trial_exposure.started,trial_exposure.stopped,key_resp_exposure.keys,key_resp_exposure.corr,key_resp_exposure.rt,key_resp_exposure.duration,key_resp.keys,exposure_loop.thisRepN,exposure_loop.thisTrialN,exposure_loop.thisN,exposure_loop.thisIndex,exposure_loop.ran,item_num,correct_response,question,path,duration,instructions_2afc.started,instructions_2afc.stopped,instructions_2afc_loop.thisRepN,instructions_2afc_loop.thisTrialN,instructions_2afc_loop.thisN,instructions_2afc_loop.thisIndex,instructions_2afc_loop.ran,practice_2afc.started,practice_2afc.stopped,key_resp_2afc_practice.keys,key_resp_2afc_practice.corr,key_resp_2afc_practice.rt,key_resp_2afc_practice.duration,trials_2afc_practice_loop.thisRepN,trials_2afc_practice_loop.thisTrialN,trials_2afc_practice_loop.thisN,trials_2afc_practice_loop.thisIndex,trials_2afc_practice_loop.ran,check_2afc.started,check_2afc.stopped,trial_2afc.started,trial_2afc.stopped,key_resp_2afc_trial.keys,key_resp_2afc_trial.corr,key_resp_2afc_trial.rt,key_resp_2afc_trial.duration,trials_2afc_loop.thisRepN,trials_2afc_loop.thisTrialN,trials_2afc_loop.thisN,trials_2afc_loop.thisIndex,trials_2afc_loop.ran,target,variety,instructions_lextale.started,instructions_lextale.stopped,instructions_lextale_loop.thisRepN,instructions_lextale_loop.thisTrialN,instructions_lextale_loop.thisN,instructions_lextale_loop.thisIndex,instructions_lextale_loop.ran,practice_lextale.started,practice_lextale.stopped,key_resp_lextale_practice.keys,key_resp_lextale_practice.corr,key_resp_lextale_practice.rt,key_resp_lextale_practice.duration,practice_feedback_lextale.started,practice_feedback_lextale.stopped,trials_lextale_practice_loop.thisRepN,trials_lextale_practice_loop.thisTrialN,trials_lextale_practice_loop.thisN,trials_lextale_practice_loop.thisIndex,trials_lextale_practice_loop.ran,stim,word,prac_button_real,prac_button_false,check_lextale.started,check_lextale.stopped,trial_lextale.started,trial_lextale.stopped,key_resp_lextale_trial.keys,key_resp_lextale_trial.corr,key_resp_lextale_trial.rt,key_resp_lextale_trial.duration,trials_lextale_loop.thisRepN,trials_lextale_loop.thisTrialN,trials_lextale_loop.thisN,trials_lextale_loop.thisIndex,trials_lextale_loop.ran,button_real,button_false,instructions_eq.started,instructions_eq.stopped,trial_eq.started,trial_eq.stopped,slider_eq_trial.response,trials_eq_loop.thisRepN,trials_eq_loop.thisTrialN,trials_eq_loop.thisN,trials_eq_loop.thisIndex,trials_eq_loop.ran,item,is_test_item,is_distractor,is_agree_score,is_disagree_score,end_exp.started,end_exp.stopped
0.0178,1.8341,0,0,0,0,1,"In the following task, you are going to hear a series of conversations.", (press the space bar to continue),672bb5dadc26d7849dc27b55,Spanish,13 or older,"no, only English or Spanish",no,2025-08-12_14h52.42.410,empathy_intonation_perc,2024.2.4,MacIntel,60.0024001,672bb5dadc26d7849dc27b55,687ed1b7e638a4cbf2f02089,689b8d61eef9c041c27f2aad,,,,,,,,,,,,,,,,,,,,,,,,,,,,,,,,,,,,,,,,,,,,,,,,,,,,,,,,,,,,,,,,,,,,,,,,,,,,,,,,,,,,,,,,,,,,,,,,,,,,,,,,,,
1.8349,6.1485,0,1,1,1,1,It is okay if you don't not 100% understand them!, (press the space bar to continue),672bb5dadc26d7849dc27b55,Spanish,13 or older,"no, only English or Spanish",no,2025-08-12_14h52.42.410,empathy_intonation_perc,2024.2.4,MacIntel,60.0024001,672bb5dadc26d7849dc27b55,687ed1b7e638a4cbf2f02089,689b8d61eef9c041c27f2aad,,,,,,,,,,,,,,,,,,,,,,,,,,,,,,,,,,,,,,,,,,,,,,,,,,,,,,,,,,,,,,,,,,,,,,,,,,,,,,,,,,,,,,,,,,,,,,,,,,,,,,,,,,
6.1518,7.9474,0,2,2,2,1,"After, you will read a sentence about the conversation and decide if it's true or false.", (press the space bar to continue),672bb5dadc26d7849dc27b55,Spanish,13 or older,"no, only English or Spanish",no,2025-08-12_14h52.42.410,empathy_intonation_perc,2024.2.4,MacIntel,60.0024001,672bb5dadc26d7849dc27b55,687ed1b7e638a4cbf2f02089,689b8d61eef9c041c27f2aad,,,,,,,,,,,,,,,,,,,,,,,,,,,,,,,,,,,,,,,,,,,,,,,,,,,,,,,,,,,,,,,,,,,,,,,,,,,,,,,,,,,,,,,,,,,,,,,,,,,,,,,,,,
7.9482,9.4483,0,3,3,3,1,"If it's true, press '1' (True) and if it's false press '0' (False).", (press the space bar to continue),672bb5dadc26d7849dc27b55,Spanish,13 or older,"no, only English or Spanish",no,2025-08-12_14h52.42.410,empathy_intonation_perc,2024.2.4,MacIntel,60.0024001,672bb5dadc26d7849dc27b55,687ed1b7e638a4cbf2f02089,689b8d61eef9c041c27f2aad,,,,,,,,,,,,,,,,,,,,,,,,,,,,,,,,,,,,,,,,,,,,,,,,,,,,,,,,,,,,,,,,,,,,,,,,,,,,,,,,,,,,,,,,,,,,,,,,,,,,,,,,,,
,,,,,,,,,672bb5dadc26d7849dc27b55,Spanish,13 or older,"no, only English or Spanish",no,2025-08-12_14h52.42.410,empathy_intonation_perc,2024.2.4,MacIntel,60.0024001,672bb5dadc26d7849dc27b55,687ed1b7e638a4cbf2f02089,689b8d61eef9c041c27f2aad,9.4571,76.6302,1,1,7.0956,,,0,0,0,1,1,2,1,The mom asked the daughter if she already went to the supermarket.,./stim/exposure_wavs/dr_stimuli_convo.wav,60,,,,,,,,,,,,,,,,,,,,,,,,,,,,,,,,,,,,,,,,,,,,,,,,,,,,,,,,,,,,,,,,,,,,,,,,,,,,,,,,,,,,,,,,,
,,,,,,,,,672bb5dadc26d7849dc27b55,Spanish,13 or older,"no, only English or Spanish",no,2025-08-12_14h52.42.410,empathy_intonation_perc,2024.2.4,MacIntel,60.0024001,672bb5dadc26d7849dc27b55,687ed1b7e638a4cbf2f02089,689b8d61eef9c041c27f2aad,76.632,127.6091,0,0,3.9317,,,0,1,1,0,1,1,1,The son asked the mom if Aunt Marina is okay.,./stim/exposure_wavs/ga_stimuli_convo.wav,47,,,,,,,,,,,,,,,,,,,,,,,,,,,,,,,,,,,,,,,,,,,,,,,,,,,,,,,,,,,,,,,,,,,,,,,,,,,,,,,,,,,,,,,,,
,,,,,,,,,672bb5dadc26d7849dc27b55,Spanish,13 or older,"no, only English or Spanish",no,2025-08-12_14h52.42.410,empathy_intonation_perc,2024.2.4,MacIntel,60.0024001,672bb5dadc26d7849dc27b55,687ed1b7e638a4cbf2f02089,689b8d61eef9c041c27f2aad,127.6098,167.8962,0,1,4.2671,,,0,2,2,2,1,3,0,The mom already has rice.,./stim/exposure_wavs/pr_stimuli_convo.wav,36,,,,,,,,,,,,,,,,,,,,,,,,,,,,,,,,,,,,,,,,,,,,,,,,,,,,,,,,,,,,,,,,,,,,,,,,,,,,,,,,,,,,,,,,,
,,,,,,,"In the following task you are going to hear a series of utterances. 

  You will decide if the utterances sound like questions or not using your keyboard.", (press the spacebar to continue),672bb5dadc26d7849dc27b55,Spanish,13 or older,"no, only English or Spanish",no,2025-08-12_14h52.42.410,empathy_intonation_perc,2024.2.4,MacIntel,60.0024001,672bb5dadc26d7849dc27b55,687ed1b7e638a4cbf2f02089,689b8d61eef9c041c27f2aad,,,,,,,,,,,,,,,,,,167.9072,172.0133,0,0,0,0,1,,,,,,,,,,,,,,,,,,,,,,,,,,,,,,,,,,,,,,,,,,,,,,,,,,,,,,,,,,,,,,,,,,,,,,,,,,,,,,,,,,
,,,,,,,"If you believe the utterance is a question, type '1' (for 'yes') and if you do not 
  believe it is a question type '0' (for 'no').

  Let's practice a bit...", (press the spacebar to continue),672bb5dadc26d7849dc27b55,Spanish,13 or older,"no, only English or Spanish",no,2025-08-12_14h52.42.410,empathy_intonation_perc,2024.2.4,MacIntel,60.0024001,672bb5dadc26d7849dc27b55,687ed1b7e638a4cbf2f02089,689b8d61eef9c041c27f2aad,,,,,,,,,,,,,,,,,,172.0145,173.1793,0,1,1,1,1,,,,,,,,,,,,,,,,,,,,,,,,,,,,,,,,,,,,,,,,,,,,,,,,,,,,,,,,,,,,,,,,,,,,,,,,,,,,,,,,,,
,,,,,,,,,672bb5dadc26d7849dc27b55,Spanish,13 or older,"no, only English or Spanish",no,2025-08-12_14h52.42.410,empathy_intonation_perc,2024.2.4,MacIntel,60.0024001,672bb5dadc26d7849dc27b55,687ed1b7e638a4cbf2f02089,689b8d61eef9c041c27f2aad,,,,,,,,,,,,,,1,,./stim/wavs/castilian_question_filler_Mi-esposo-conoce-al-chico.wav,,,,,,,,,173.187,175.7133,1,1,2.0092,,0,0,0,0,1,,,,,,,,,,,,,,,,,,,,,,,,,,,,,,,,,,,,,,,,,,,,,,,,,,,,,,,,,,,,,,,,,,,,,,,
,,,,,,,,,672bb5dadc26d7849dc27b55,Spanish,13 or older,"no, only English or Spanish",no,2025-08-12_14h52.42.410,empathy_intonation_perc,2024.2.4,MacIntel,60.0024001,672bb5dadc26d7849dc27b55,687ed1b7e638a4cbf2f02089,689b8d61eef9c041c27f2aad,,,,,,,,,,,,,,0,,./stim/wavs/cuban_statement_filler_Cocinabas-por-la-noche.wav,,,,,,,,,175.7142,178.1948,0,1,1.9402,,0,1,1,4,1,,,,,,,,,,,,,,,,,,,,,,,,,,,,,,,,,,,,,,,,,,,,,,,,,,,,,,,,,,,,,,,,,,,,,,,
,,,,,,,,,672bb5dadc26d7849dc27b55,Spanish,13 or older,"no, only English or Spanish",no,2025-08-12_14h52.42.410,empathy_intonation_perc,2024.2.4,MacIntel,60.0024001,672bb5dadc26d7849dc27b55,687ed1b7e638a4cbf2f02089,689b8d61eef9c041c27f2aad,,,,,,,,,,,,,,1,,./stim/wavs/chilean_question_filler_Mi-padre-cantaba-bien.wav,,,,,,,,,178.1952,180.4965,1,1,1.7811,,0,2,2,2,1,,,,,,,,,,,,,,,,,,,,,,,,,,,,,,,,,,,,,,,,,,,,,,,,,,,,,,,,,,,,,,,,,,,,,,,
,,,,,,,,,672bb5dadc26d7849dc27b55,Spanish,13 or older,"no, only English or Spanish",no,2025-08-12_14h52.42.410,empathy_intonation_perc,2024.2.4,MacIntel,60.0024001,672bb5dadc26d7849dc27b55,687ed1b7e638a4cbf2f02089,689b8d61eef9c041c27f2aad,,,,,,,,,,,,,,0,,./stim/wavs/puertorican_statement_filler_La-nina-pinta-con-su-amiga.wav,,,,,,,,,180.4975,183.2949,0,1,2.2619,,0,3,3,7,1,,,,,,,,,,,,,,,,,,,,,,,,,,,,,,,,,,,,,,,,,,,,,,,,,,,,,,,,,,,,,,,,,,,,,,,
,,,,,,,,,672bb5dadc26d7849dc27b55,Spanish,13 or older,"no, only English or Spanish",no,2025-08-12_14h52.42.410,empathy_intonation_perc,2024.2.4,MacIntel,60.0024001,672bb5dadc26d7849dc27b55,687ed1b7e638a4cbf2f02089,689b8d61eef9c041c27f2aad,,,,,,,,,,,,,,0,,./stim/wavs/andalusian_statement_filler_Alberto-nunca-se-afeita.wav,,,,,,,,,183.2955,186.3473,0,1,2.5209,,0,4,4,5,1,,,,,,,,,,,,,,,,,,,,,,,,,,,,,,,,,,,,,,,,,,,,,,,,,,,,,,,,,,,,,,,,,,,,,,,
,,,,,,,,,672bb5dadc26d7849dc27b55,Spanish,13 or older,"no, only English or Spanish",no,2025-08-12_14h52.42.410,empathy_intonation_perc,2024.2.4,MacIntel,60.0024001,672bb5dadc26d7849dc27b55,687ed1b7e638a4cbf2f02089,689b8d61eef9c041c27f2aad,,,,,,,,,,,,,,0,,./stim/wavs/peruvian_statement_filler_El-nino-habla-con-su-madre.wav,,,,,,,,,186.3478,189.6115,0,1,2.7396,,0,5,5,6,1,,,,,,,,,,,,,,,,,,,,,,,,,,,,,,,,,,,,,,,,,,,,,,,,,,,,,,,,,,,,,,,,,,,,,,,
,,,,,,,,,672bb5dadc26d7849dc27b55,Spanish,13 or older,"no, only English or Spanish",no,2025-08-12_14h52.42.410,empathy_intonation_perc,2024.2.4,MacIntel,60.0024001,672bb5dadc26d7849dc27b55,687ed1b7e638a4cbf2f02089,689b8d61eef9c041c27f2aad,,,,,,,,,,,,,,1,,./stim/wavs/argentine_question_filler_Mi-vecino-habla-mucho.wav,,,,,,,,,189.612,191.6619,1,1,1.5407,,0,6,6,1,1,,,,,,,,,,,,,,,,,,,,,,,,,,,,,,,,,,,,,,,,,,,,,,,,,,,,,,,,,,,,,,,,,,,,,,,
,,,,,,,,,672bb5dadc26d7849dc27b55,Spanish,13 or older,"no, only English or Spanish",no,2025-08-12_14h52.42.410,empathy_intonation_perc,2024.2.4,MacIntel,60.0024001,672bb5dadc26d7849dc27b55,687ed1b7e638a4cbf2f02089,689b8d61eef9c041c27f2aad,,,,,,,,,,,,,,1,,./stim/wavs/mexican_question_filler_Felipe-no-tiene-contrasena.wav,,,,,,,,,191.6622,194.1286,1,1,1.9324,,0,7,7,3,1,,,,,,,,,,,,,,,,,,,,,,,,,,,,,,,,,,,,,,,,,,,,,,,,,,,,,,,,,,,,,,,,,,,,,,,
,,,,,,,,,672bb5dadc26d7849dc27b55,Spanish,13 or older,"no, only English or Spanish",no,2025-08-12_14h52.42.410,empathy_intonation_perc,2024.2.4,MacIntel,60.0024001,672bb5dadc26d7849dc27b55,687ed1b7e638a4cbf2f02089,689b8d61eef9c041c27f2aad,,,,,,,,,,,,,,,,,,,,,,,,,,,,,,,,,,,,194.1349,406.976,,,,,,,,,,,,,,,,,,,,,,,,,,,,,,,,,,,,,,,,,,,,,,,,,,,,,,,,,,,,,,,,,,,,,
,,,,,,,,,672bb5dadc26d7849dc27b55,Spanish,13 or older,"no, only English or Spanish",no,2025-08-12_14h52.42.410,empathy_intonation_perc,2024.2.4,MacIntel,60.0024001,672bb5dadc26d7849dc27b55,687ed1b7e638a4cbf2f02089,689b8d61eef9c041c27f2aad,,,,,,,,,,,,,60,0,,./stim/wavs/mexican_match_declarative-broad-focus_Emilio-ama-la-marcha.wav,,,,,,,,,,,,,,,,,,,,,,406.9856,409.5955,0,1,2.0851,,0,0,0,59,1,0,mexican,,,,,,,,,,,,,,,,,,,,,,,,,,,,,,,,,,,,,,,,,,,,,,,,,,,,,,,,
,,,,,,,,,672bb5dadc26d7849dc27b55,Spanish,13 or older,"no, only English or Spanish",no,2025-08-12_14h52.42.410,empathy_intonation_perc,2024.2.4,MacIntel,60.0024001,672bb5dadc26d7849dc27b55,687ed1b7e638a4cbf2f02089,689b8d61eef9c041c27f2aad,,,,,,,,,,,,,86,0,,./stim/wavs/puertorican_mismatch_declarative-broad-focus_El-nino-oye-el-rio.wav,,,,,,,,,,,,,,,,,,,,,,409.5964,411.8418,0,1,1.7168,,0,1,1,85,1,0,puertorican,,,,,,,,,,,,,,,,,,,,,,,,,,,,,,,,,,,,,,,,,,,,,,,,,,,,,,,,
,,,,,,,,,672bb5dadc26d7849dc27b55,Spanish,13 or older,"no, only English or Spanish",no,2025-08-12_14h52.42.410,empathy_intonation_perc,2024.2.4,MacIntel,60.0024001,672bb5dadc26d7849dc27b55,687ed1b7e638a4cbf2f02089,689b8d61eef9c041c27f2aad,,,,,,,,,,,,,58,0,,./stim/wavs/mexican_match_declarative-broad-focus_Daniel-iba-a-Bolivia.wav,,,,,,,,,,,,,,,,,,,,,,411.8423,414.0419,0,1,1.6828,,0,2,2,57,1,0,mexican,,,,,,,,,,,,,,,,,,,,,,,,,,,,,,,,,,,,,,,,,,,,,,,,,,,,,,,,
,,,,,,,,,672bb5dadc26d7849dc27b55,Spanish,13 or older,"no, only English or Spanish",no,2025-08-12_14h52.42.410,empathy_intonation_perc,2024.2.4,MacIntel,60.0024001,672bb5dadc26d7849dc27b55,687ed1b7e638a4cbf2f02089,689b8d61eef9c041c27f2aad,,,,,,,,,,,,,14,1,,./stim/wavs/mexican_match_interrogative-total-yn_Daniel-iba-a-Bolivia.wav,,,,,,,,,,,,,,,,,,,,,,414.0422,416.1608,1,1,1.579,,0,3,3,13,1,0,mexican,,,,,,,,,,,,,,,,,,,,,,,,,,,,,,,,,,,,,,,,,,,,,,,,,,,,,,,,
,,,,,,,,,672bb5dadc26d7849dc27b55,Spanish,13 or older,"no, only English or Spanish",no,2025-08-12_14h52.42.410,empathy_intonation_perc,2024.2.4,MacIntel,60.0024001,672bb5dadc26d7849dc27b55,687ed1b7e638a4cbf2f02089,689b8d61eef9c041c27f2aad,,,,,,,,,,,,,1,1,,./stim/wavs/castilian_match_interrogative-total-yn_David-leia-el-libro.wav,,,,,,,,,,,,,,,,,,,,,,416.1611,418.2256,1,1,1.5344,,0,4,4,0,1,0,castilian,,,,,,,,,,,,,,,,,,,,,,,,,,,,,,,,,,,,,,,,,,,,,,,,,,,,,,,,
,,,,,,,,,672bb5dadc26d7849dc27b55,Spanish,13 or older,"no, only English or Spanish",no,2025-08-12_14h52.42.410,empathy_intonation_perc,2024.2.4,MacIntel,60.0024001,672bb5dadc26d7849dc27b55,687ed1b7e638a4cbf2f02089,689b8d61eef9c041c27f2aad,,,,,,,,,,,,,70,0,,./stim/wavs/castilian_mismatch_declarative-broad-focus_La-maestra-vive-en-Paris.wav,,,,,,,,,,,,,,,,,,,,,,418.2259,421.2754,0,1,2.5115,,0,5,5,69,1,0,castilian,,,,,,,,,,,,,,,,,,,,,,,,,,,,,,,,,,,,,,,,,,,,,,,,,,,,,,,,
,,,,,,,,,672bb5dadc26d7849dc27b55,Spanish,13 or older,"no, only English or Spanish",no,2025-08-12_14h52.42.410,empathy_intonation_perc,2024.2.4,MacIntel,60.0024001,672bb5dadc26d7849dc27b55,687ed1b7e638a4cbf2f02089,689b8d61eef9c041c27f2aad,,,,,,,,,,,,,56,0,,./stim/wavs/cuban_match_declarative-broad-focus_Marta-abre-el-regalo.wav,,,,,,,,,,,,,,,,,,,,,,421.2759,423.4433,0,1,1.6502,,0,6,6,55,1,0,cuban,,,,,,,,,,,,,,,,,,,,,,,,,,,,,,,,,,,,,,,,,,,,,,,,,,,,,,,,
,,,,,,,,,672bb5dadc26d7849dc27b55,Spanish,13 or older,"no, only English or Spanish",no,2025-08-12_14h52.42.410,empathy_intonation_perc,2024.2.4,MacIntel,60.0024001,672bb5dadc26d7849dc27b55,687ed1b7e638a4cbf2f02089,689b8d61eef9c041c27f2aad,,,,,,,,,,,,,8,1,,./stim/wavs/cuban_match_interrogative-total-yn_Daniel-iba-a-Bolivia.wav,,,,,,,,,,,,,,,,,,,,,,423.4436,426.4419,0,0,2.4736,,0,7,7,7,1,1,cuban,,,,,,,,,,,,,,,,,,,,,,,,,,,,,,,,,,,,,,,,,,,,,,,,,,,,,,,,
,,,,,,,,,672bb5dadc26d7849dc27b55,Spanish,13 or older,"no, only English or Spanish",no,2025-08-12_14h52.42.410,empathy_intonation_perc,2024.2.4,MacIntel,60.0024001,672bb5dadc26d7849dc27b55,687ed1b7e638a4cbf2f02089,689b8d61eef9c041c27f2aad,,,,,,,,,,,,,10,1,,./stim/wavs/cuban_match_interrogative-total-yn_Maria-bebe-el-vino.wav,,,,,,,,,,,,,,,,,,,,,,426.4423,428.726,0,0,1.7663,,0,8,8,9,1,1,cuban,,,,,,,,,,,,,,,,,,,,,,,,,,,,,,,,,,,,,,,,,,,,,,,,,,,,,,,,
,,,,,,,,,672bb5dadc26d7849dc27b55,Spanish,13 or older,"no, only English or Spanish",no,2025-08-12_14h52.42.410,empathy_intonation_perc,2024.2.4,MacIntel,60.0024001,672bb5dadc26d7849dc27b55,687ed1b7e638a4cbf2f02089,689b8d61eef9c041c27f2aad,,,,,,,,,,,,,39,1,,./stim/wavs/mexican_mismatch_interrogative-total-yn_Mi-tia-odia-la-lluvia.wav,,,,,,,,,,,,,,,,,,,,,,428.7263,431.6421,1,1,2.3824,,0,9,9,38,1,0,mexican,,,,,,,,,,,,,,,,,,,,,,,,,,,,,,,,,,,,,,,,,,,,,,,,,,,,,,,,
,,,,,,,,,672bb5dadc26d7849dc27b55,Spanish,13 or older,"no, only English or Spanish",no,2025-08-12_14h52.42.410,empathy_intonation_perc,2024.2.4,MacIntel,60.0024001,672bb5dadc26d7849dc27b55,687ed1b7e638a4cbf2f02089,689b8d61eef9c041c27f2aad,,,,,,,,,,,,,67,0,,./stim/wavs/puertorican_match_declarative-broad-focus_Manuela-vende-el-carro.wav,,,,,,,,,,,,,,,,,,,,,,431.6425,433.9757,0,1,1.7917,,0,10,10,66,1,0,puertorican,,,,,,,,,,,,,,,,,,,,,,,,,,,,,,,,,,,,,,,,,,,,,,,,,,,,,,,,
,,,,,,,,,672bb5dadc26d7849dc27b55,Spanish,13 or older,"no, only English or Spanish",no,2025-08-12_14h52.42.410,empathy_intonation_perc,2024.2.4,MacIntel,60.0024001,672bb5dadc26d7849dc27b55,687ed1b7e638a4cbf2f02089,689b8d61eef9c041c27f2aad,,,,,,,,,,,,,59,0,,./stim/wavs/mexican_match_declarative-broad-focus_David-leia-el-libro.wav,,,,,,,,,,,,,,,,,,,,,,433.9762,436.3255,0,1,1.8407,,0,11,11,58,1,0,mexican,,,,,,,,,,,,,,,,,,,,,,,,,,,,,,,,,,,,,,,,,,,,,,,,,,,,,,,,
,,,,,,,,,672bb5dadc26d7849dc27b55,Spanish,13 or older,"no, only English or Spanish",no,2025-08-12_14h52.42.410,empathy_intonation_perc,2024.2.4,MacIntel,60.0024001,672bb5dadc26d7849dc27b55,687ed1b7e638a4cbf2f02089,689b8d61eef9c041c27f2aad,,,,,,,,,,,,,66,0,,./stim/wavs/puertorican_match_declarative-broad-focus_Emilio-ama-la-marcha.wav,,,,,,,,,,,,,,,,,,,,,,436.3258,439.3926,0,1,2.5267,,0,12,12,65,1,0,puertorican,,,,,,,,,,,,,,,,,,,,,,,,,,,,,,,,,,,,,,,,,,,,,,,,,,,,,,,,
,,,,,,,,,672bb5dadc26d7849dc27b55,Spanish,13 or older,"no, only English or Spanish",no,2025-08-12_14h52.42.410,empathy_intonation_perc,2024.2.4,MacIntel,60.0024001,672bb5dadc26d7849dc27b55,687ed1b7e638a4cbf2f02089,689b8d61eef9c041c27f2aad,,,,,,,,,,,,,77,0,,./stim/wavs/cuban_mismatch_declarative-broad-focus_Mi-novio-viene-del-lago.wav,,,,,,,,,,,,,,,,,,,,,,439.3928,441.5264,0,1,1.6065,,0,13,13,76,1,0,cuban,,,,,,,,,,,,,,,,,,,,,,,,,,,,,,,,,,,,,,,,,,,,,,,,,,,,,,,,
,,,,,,,,,672bb5dadc26d7849dc27b55,Spanish,13 or older,"no, only English or Spanish",no,2025-08-12_14h52.42.410,empathy_intonation_perc,2024.2.4,MacIntel,60.0024001,672bb5dadc26d7849dc27b55,687ed1b7e638a4cbf2f02089,689b8d61eef9c041c27f2aad,,,,,,,,,,,,,37,1,,./stim/wavs/mexican_mismatch_interrogative-total-yn_La-maestra-vive-en-Paris.wav,,,,,,,,,,,,,,,,,,,,,,441.5269,443.8427,1,1,1.8052,,0,14,14,36,1,0,mexican,,,,,,,,,,,,,,,,,,,,,,,,,,,,,,,,,,,,,,,,,,,,,,,,,,,,,,,,
,,,,,,,,,672bb5dadc26d7849dc27b55,Spanish,13 or older,"no, only English or Spanish",no,2025-08-12_14h52.42.410,empathy_intonation_perc,2024.2.4,MacIntel,60.0024001,672bb5dadc26d7849dc27b55,687ed1b7e638a4cbf2f02089,689b8d61eef9c041c27f2aad,,,,,,,,,,,,,6,1,,./stim/wavs/castilian_match_interrogative-total-yn_Marta-abre-el-regalo.wav,,,,,,,,,,,,,,,,,,,,,,443.8431,446.0254,1,1,1.6421,,0,15,15,5,1,0,castilian,,,,,,,,,,,,,,,,,,,,,,,,,,,,,,,,,,,,,,,,,,,,,,,,,,,,,,,,
,,,,,,,,,672bb5dadc26d7849dc27b55,Spanish,13 or older,"no, only English or Spanish",no,2025-08-12_14h52.42.410,empathy_intonation_perc,2024.2.4,MacIntel,60.0024001,672bb5dadc26d7849dc27b55,687ed1b7e638a4cbf2f02089,689b8d61eef9c041c27f2aad,,,,,,,,,,,,,30,1,,./stim/wavs/cuban_mismatch_interrogative-total-yn_El-hombre-mira-la-luna.wav,,,,,,,,,,,,,,,,,,,,,,446.0266,448.7916,0,0,2.2256,,0,16,16,29,1,1,cuban,,,,,,,,,,,,,,,,,,,,,,,,,,,,,,,,,,,,,,,,,,,,,,,,,,,,,,,,
,,,,,,,,,672bb5dadc26d7849dc27b55,Spanish,13 or older,"no, only English or Spanish",no,2025-08-12_14h52.42.410,empathy_intonation_perc,2024.2.4,MacIntel,60.0024001,672bb5dadc26d7849dc27b55,687ed1b7e638a4cbf2f02089,689b8d61eef9c041c27f2aad,,,,,,,,,,,,,76,0,,./stim/wavs/cuban_mismatch_declarative-broad-focus_La-nina-lava-el-plato.wav,,,,,,,,,,,,,,,,,,,,,,448.7922,450.9263,0,1,1.6062,,0,17,17,75,1,0,cuban,,,,,,,,,,,,,,,,,,,,,,,,,,,,,,,,,,,,,,,,,,,,,,,,,,,,,,,,
,,,,,,,,,672bb5dadc26d7849dc27b55,Spanish,13 or older,"no, only English or Spanish",no,2025-08-12_14h52.42.410,empathy_intonation_perc,2024.2.4,MacIntel,60.0024001,672bb5dadc26d7849dc27b55,687ed1b7e638a4cbf2f02089,689b8d61eef9c041c27f2aad,,,,,,,,,,,,,34,1,,./stim/wavs/cuban_mismatch_interrogative-total-yn_Mi-tia-odia-la-lluvia.wav,,,,,,,,,,,,,,,,,,,,,,450.9268,453.7766,0,0,2.3071,,0,18,18,33,1,1,cuban,,,,,,,,,,,,,,,,,,,,,,,,,,,,,,,,,,,,,,,,,,,,,,,,,,,,,,,,
,,,,,,,,,672bb5dadc26d7849dc27b55,Spanish,13 or older,"no, only English or Spanish",no,2025-08-12_14h52.42.410,empathy_intonation_perc,2024.2.4,MacIntel,60.0024001,672bb5dadc26d7849dc27b55,687ed1b7e638a4cbf2f02089,689b8d61eef9c041c27f2aad,,,,,,,,,,,,,7,1,,./stim/wavs/cuban_match_interrogative-total-yn_Ana-lleva-el-abrigo.wav,,,,,,,,,,,,,,,,,,,,,,453.777,455.759,0,0,1.4683,,0,19,19,6,1,1,cuban,,,,,,,,,,,,,,,,,,,,,,,,,,,,,,,,,,,,,,,,,,,,,,,,,,,,,,,,
,,,,,,,,,672bb5dadc26d7849dc27b55,Spanish,13 or older,"no, only English or Spanish",no,2025-08-12_14h52.42.410,empathy_intonation_perc,2024.2.4,MacIntel,60.0024001,672bb5dadc26d7849dc27b55,687ed1b7e638a4cbf2f02089,689b8d61eef9c041c27f2aad,,,,,,,,,,,,,88,0,,./stim/wavs/puertorican_mismatch_declarative-broad-focus_La-nina-lava-el-plato.wav,,,,,,,,,,,,,,,,,,,,,,455.7595,457.7077,0,1,1.4321,,0,20,20,87,1,0,puertorican,,,,,,,,,,,,,,,,,,,,,,,,,,,,,,,,,,,,,,,,,,,,,,,,,,,,,,,,
,,,,,,,,,672bb5dadc26d7849dc27b55,Spanish,13 or older,"no, only English or Spanish",no,2025-08-12_14h52.42.410,empathy_intonation_perc,2024.2.4,MacIntel,60.0024001,672bb5dadc26d7849dc27b55,687ed1b7e638a4cbf2f02089,689b8d61eef9c041c27f2aad,,,,,,,,,,,,,9,1,,./stim/wavs/cuban_match_interrogative-total-yn_Manuela-vende-el-carro.wav,,,,,,,,,,,,,,,,,,,,,,457.7084,460.2266,0,0,1.9967,,0,21,21,8,1,1,cuban,,,,,,,,,,,,,,,,,,,,,,,,,,,,,,,,,,,,,,,,,,,,,,,,,,,,,,,,
,,,,,,,,,672bb5dadc26d7849dc27b55,Spanish,13 or older,"no, only English or Spanish",no,2025-08-12_14h52.42.410,empathy_intonation_perc,2024.2.4,MacIntel,60.0024001,672bb5dadc26d7849dc27b55,687ed1b7e638a4cbf2f02089,689b8d61eef9c041c27f2aad,,,,,,,,,,,,,83,0,,./stim/wavs/mexican_mismatch_declarative-broad-focus_Mi-tia-odia-la-lluvia.wav,,,,,,,,,,,,,,,,,,,,,,460.2273,462.6143,0,1,1.8572,,0,22,22,82,1,0,mexican,,,,,,,,,,,,,,,,,,,,,,,,,,,,,,,,,,,,,,,,,,,,,,,,,,,,,,,,
,,,,,,,,,672bb5dadc26d7849dc27b55,Spanish,13 or older,"no, only English or Spanish",no,2025-08-12_14h52.42.410,empathy_intonation_perc,2024.2.4,MacIntel,60.0024001,672bb5dadc26d7849dc27b55,687ed1b7e638a4cbf2f02089,689b8d61eef9c041c27f2aad,,,,,,,,,,,,,18,1,,./stim/wavs/mexican_match_interrogative-total-yn_Marta-abre-el-regalo.wav,,,,,,,,,,,,,,,,,,,,,,462.6146,464.6134,1,1,1.4734,,0,23,23,17,1,0,mexican,,,,,,,,,,,,,,,,,,,,,,,,,,,,,,,,,,,,,,,,,,,,,,,,,,,,,,,,
,,,,,,,,,672bb5dadc26d7849dc27b55,Spanish,13 or older,"no, only English or Spanish",no,2025-08-12_14h52.42.410,empathy_intonation_perc,2024.2.4,MacIntel,60.0024001,672bb5dadc26d7849dc27b55,687ed1b7e638a4cbf2f02089,689b8d61eef9c041c27f2aad,,,,,,,,,,,,,74,0,,./stim/wavs/cuban_mismatch_declarative-broad-focus_El-bebe-comia-muy-bien.wav,,,,,,,,,,,,,,,,,,,,,,464.6142,466.6605,1,0,1.5167,,0,24,24,73,1,0,cuban,,,,,,,,,,,,,,,,,,,,,,,,,,,,,,,,,,,,,,,,,,,,,,,,,,,,,,,,
,,,,,,,,,672bb5dadc26d7849dc27b55,Spanish,13 or older,"no, only English or Spanish",no,2025-08-12_14h52.42.410,empathy_intonation_perc,2024.2.4,MacIntel,60.0024001,672bb5dadc26d7849dc27b55,687ed1b7e638a4cbf2f02089,689b8d61eef9c041c27f2aad,,,,,,,,,,,,,40,1,,./stim/wavs/puertorican_mismatch_interrogative-total-yn_El-hombre-mira-la-luna.wav,,,,,,,,,,,,,,,,,,,,,,466.6608,469.3746,1,1,2.1833,,0,25,25,39,1,1,puertorican,,,,,,,,,,,,,,,,,,,,,,,,,,,,,,,,,,,,,,,,,,,,,,,,,,,,,,,,
,,,,,,,,,672bb5dadc26d7849dc27b55,Spanish,13 or older,"no, only English or Spanish",no,2025-08-12_14h52.42.410,empathy_intonation_perc,2024.2.4,MacIntel,60.0024001,672bb5dadc26d7849dc27b55,687ed1b7e638a4cbf2f02089,689b8d61eef9c041c27f2aad,,,,,,,,,,,,,15,1,,./stim/wavs/mexican_match_interrogative-total-yn_David-leia-el-libro.wav,,,,,,,,,,,,,,,,,,,,,,469.3751,471.5756,1,1,1.6726,,0,26,26,14,1,0,mexican,,,,,,,,,,,,,,,,,,,,,,,,,,,,,,,,,,,,,,,,,,,,,,,,,,,,,,,,
,,,,,,,,,672bb5dadc26d7849dc27b55,Spanish,13 or older,"no, only English or Spanish",no,2025-08-12_14h52.42.410,empathy_intonation_perc,2024.2.4,MacIntel,60.0024001,672bb5dadc26d7849dc27b55,687ed1b7e638a4cbf2f02089,689b8d61eef9c041c27f2aad,,,,,,,,,,,,,22,1,,./stim/wavs/puertorican_match_interrogative-total-yn_Emilio-ama-la-marcha.wav,,,,,,,,,,,,,,,,,,,,,,471.576,474.7575,0,0,2.6652,,0,27,27,21,1,1,puertorican,,,,,,,,,,,,,,,,,,,,,,,,,,,,,,,,,,,,,,,,,,,,,,,,,,,,,,,,
,,,,,,,,,672bb5dadc26d7849dc27b55,Spanish,13 or older,"no, only English or Spanish",no,2025-08-12_14h52.42.410,empathy_intonation_perc,2024.2.4,MacIntel,60.0024001,672bb5dadc26d7849dc27b55,687ed1b7e638a4cbf2f02089,689b8d61eef9c041c27f2aad,,,,,,,,,,,,,28,1,,./stim/wavs/castilian_mismatch_interrogative-total-yn_Mi-novio-viene-del-lago.wav,,,,,,,,,,,,,,,,,,,,,,474.7578,477.9758,1,1,2.7036,,0,28,28,27,1,0,castilian,,,,,,,,,,,,,,,,,,,,,,,,,,,,,,,,,,,,,,,,,,,,,,,,,,,,,,,,
,,,,,,,,,672bb5dadc26d7849dc27b55,Spanish,13 or older,"no, only English or Spanish",no,2025-08-12_14h52.42.410,empathy_intonation_perc,2024.2.4,MacIntel,60.0024001,672bb5dadc26d7849dc27b55,687ed1b7e638a4cbf2f02089,689b8d61eef9c041c27f2aad,,,,,,,,,,,,,72,0,,./stim/wavs/castilian_mismatch_declarative-broad-focus_Mi-novio-viene-del-lago.wav,,,,,,,,,,,,,,,,,,,,,,477.9761,481.5809,0,1,3.0918,,0,29,29,71,1,0,castilian,,,,,,,,,,,,,,,,,,,,,,,,,,,,,,,,,,,,,,,,,,,,,,,,,,,,,,,,
,,,,,,,,,672bb5dadc26d7849dc27b55,Spanish,13 or older,"no, only English or Spanish",no,2025-08-12_14h52.42.410,empathy_intonation_perc,2024.2.4,MacIntel,60.0024001,672bb5dadc26d7849dc27b55,687ed1b7e638a4cbf2f02089,689b8d61eef9c041c27f2aad,,,,,,,,,,,,,12,1,,./stim/wavs/cuban_match_interrogative-total-yn_Marta-abre-el-regalo.wav,,,,,,,,,,,,,,,,,,,,,,481.5812,483.6273,0,0,1.5194,,0,30,30,11,1,1,cuban,,,,,,,,,,,,,,,,,,,,,,,,,,,,,,,,,,,,,,,,,,,,,,,,,,,,,,,,
,,,,,,,,,672bb5dadc26d7849dc27b55,Spanish,13 or older,"no, only English or Spanish",no,2025-08-12_14h52.42.410,empathy_intonation_perc,2024.2.4,MacIntel,60.0024001,672bb5dadc26d7849dc27b55,687ed1b7e638a4cbf2f02089,689b8d61eef9c041c27f2aad,,,,,,,,,,,,,55,0,,./stim/wavs/cuban_match_declarative-broad-focus_Mariano-habla-del-tiempo.wav,,,,,,,,,,,,,,,,,,,,,,483.6285,487.0914,0,1,2.9365,,0,31,31,54,1,0,cuban,,,,,,,,,,,,,,,,,,,,,,,,,,,,,,,,,,,,,,,,,,,,,,,,,,,,,,,,
,,,,,,,,,672bb5dadc26d7849dc27b55,Spanish,13 or older,"no, only English or Spanish",no,2025-08-12_14h52.42.410,empathy_intonation_perc,2024.2.4,MacIntel,60.0024001,672bb5dadc26d7849dc27b55,687ed1b7e638a4cbf2f02089,689b8d61eef9c041c27f2aad,,,,,,,,,,,,,19,1,,./stim/wavs/puertorican_match_interrogative-total-yn_Ana-lleva-el-abrigo.wav,,,,,,,,,,,,,,,,,,,,,,487.0921,489.4249,0,0,1.8116,,0,32,32,18,1,1,puertorican,,,,,,,,,,,,,,,,,,,,,,,,,,,,,,,,,,,,,,,,,,,,,,,,,,,,,,,,
,,,,,,,,,672bb5dadc26d7849dc27b55,Spanish,13 or older,"no, only English or Spanish",no,2025-08-12_14h52.42.410,empathy_intonation_perc,2024.2.4,MacIntel,60.0024001,672bb5dadc26d7849dc27b55,687ed1b7e638a4cbf2f02089,689b8d61eef9c041c27f2aad,,,,,,,,,,,,,82,0,,./stim/wavs/mexican_mismatch_declarative-broad-focus_Mi-novio-viene-del-lago.wav,,,,,,,,,,,,,,,,,,,,,,489.4254,491.6907,0,1,1.7426,,0,33,33,81,1,0,mexican,,,,,,,,,,,,,,,,,,,,,,,,,,,,,,,,,,,,,,,,,,,,,,,,,,,,,,,,
,,,,,,,,,672bb5dadc26d7849dc27b55,Spanish,13 or older,"no, only English or Spanish",no,2025-08-12_14h52.42.410,empathy_intonation_perc,2024.2.4,MacIntel,60.0024001,672bb5dadc26d7849dc27b55,687ed1b7e638a4cbf2f02089,689b8d61eef9c041c27f2aad,,,,,,,,,,,,,20,1,,./stim/wavs/puertorican_match_interrogative-total-yn_Daniel-iba-a-Bolivia.wav,,,,,,,,,,,,,,,,,,,,,,491.6913,493.6409,1,1,1.4351,,0,34,34,19,1,1,puertorican,,,,,,,,,,,,,,,,,,,,,,,,,,,,,,,,,,,,,,,,,,,,,,,,,,,,,,,,
,,,,,,,,,672bb5dadc26d7849dc27b55,Spanish,13 or older,"no, only English or Spanish",no,2025-08-12_14h52.42.410,empathy_intonation_perc,2024.2.4,MacIntel,60.0024001,672bb5dadc26d7849dc27b55,687ed1b7e638a4cbf2f02089,689b8d61eef9c041c27f2aad,,,,,,,,,,,,,23,1,,./stim/wavs/puertorican_match_interrogative-total-yn_Manuela-vende-el-carro.wav,,,,,,,,,,,,,,,,,,,,,,493.6417,495.6247,1,1,1.4566,,0,35,35,22,1,1,puertorican,,,,,,,,,,,,,,,,,,,,,,,,,,,,,,,,,,,,,,,,,,,,,,,,,,,,,,,,
,,,,,,,,,672bb5dadc26d7849dc27b55,Spanish,13 or older,"no, only English or Spanish",no,2025-08-12_14h52.42.410,empathy_intonation_perc,2024.2.4,MacIntel,60.0024001,672bb5dadc26d7849dc27b55,687ed1b7e638a4cbf2f02089,689b8d61eef9c041c27f2aad,,,,,,,,,,,,,49,0,,./stim/wavs/castilian_match_declarative-broad-focus_Mariano-habla-del-tiempo.wav,,,,,,,,,,,,,,,,,,,,,,495.6254,499.9248,0,1,3.7865,,0,36,36,48,1,0,castilian,,,,,,,,,,,,,,,,,,,,,,,,,,,,,,,,,,,,,,,,,,,,,,,,,,,,,,,,
,,,,,,,,,672bb5dadc26d7849dc27b55,Spanish,13 or older,"no, only English or Spanish",no,2025-08-12_14h52.42.410,empathy_intonation_perc,2024.2.4,MacIntel,60.0024001,672bb5dadc26d7849dc27b55,687ed1b7e638a4cbf2f02089,689b8d61eef9c041c27f2aad,,,,,,,,,,,,,63,0,,./stim/wavs/puertorican_match_declarative-broad-focus_Ana-lleva-el-abrigo.wav,,,,,,,,,,,,,,,,,,,,,,499.9253,501.9429,0,1,1.5009,,0,37,37,62,1,0,puertorican,,,,,,,,,,,,,,,,,,,,,,,,,,,,,,,,,,,,,,,,,,,,,,,,,,,,,,,,
,,,,,,,,,672bb5dadc26d7849dc27b55,Spanish,13 or older,"no, only English or Spanish",no,2025-08-12_14h52.42.410,empathy_intonation_perc,2024.2.4,MacIntel,60.0024001,672bb5dadc26d7849dc27b55,687ed1b7e638a4cbf2f02089,689b8d61eef9c041c27f2aad,,,,,,,,,,,,,85,0,,./stim/wavs/puertorican_mismatch_declarative-broad-focus_El-hombre-mira-la-luna.wav,,,,,,,,,,,,,,,,,,,,,,501.9437,504.1075,0,1,1.6396,,0,38,38,84,1,0,puertorican,,,,,,,,,,,,,,,,,,,,,,,,,,,,,,,,,,,,,,,,,,,,,,,,,,,,,,,,
,,,,,,,,,672bb5dadc26d7849dc27b55,Spanish,13 or older,"no, only English or Spanish",no,2025-08-12_14h52.42.410,empathy_intonation_perc,2024.2.4,MacIntel,60.0024001,672bb5dadc26d7849dc27b55,687ed1b7e638a4cbf2f02089,689b8d61eef9c041c27f2aad,,,,,,,,,,,,,29,1,,./stim/wavs/castilian_mismatch_interrogative-total-yn_Mi-tia-odia-la-lluvia.wav,,,,,,,,,,,,,,,,,,,,,,504.1078,507.2245,1,1,2.6,,0,39,39,28,1,0,castilian,,,,,,,,,,,,,,,,,,,,,,,,,,,,,,,,,,,,,,,,,,,,,,,,,,,,,,,,
,,,,,,,,,672bb5dadc26d7849dc27b55,Spanish,13 or older,"no, only English or Spanish",no,2025-08-12_14h52.42.410,empathy_intonation_perc,2024.2.4,MacIntel,60.0024001,672bb5dadc26d7849dc27b55,687ed1b7e638a4cbf2f02089,689b8d61eef9c041c27f2aad,,,,,,,,,,,,,84,0,,./stim/wavs/puertorican_mismatch_declarative-broad-focus_El-bebe-comia-muy-bien.wav,,,,,,,,,,,,,,,,,,,,,,507.2252,509.8245,1,0,2.0723,,0,40,40,83,1,0,puertorican,,,,,,,,,,,,,,,,,,,,,,,,,,,,,,,,,,,,,,,,,,,,,,,,,,,,,,,,
,,,,,,,,,672bb5dadc26d7849dc27b55,Spanish,13 or older,"no, only English or Spanish",no,2025-08-12_14h52.42.410,empathy_intonation_perc,2024.2.4,MacIntel,60.0024001,672bb5dadc26d7849dc27b55,687ed1b7e638a4cbf2f02089,689b8d61eef9c041c27f2aad,,,,,,,,,,,,,16,1,,./stim/wavs/mexican_match_interrogative-total-yn_Emilio-ama-la-marcha.wav,,,,,,,,,,,,,,,,,,,,,,509.8249,512.0428,1,1,1.7012,,0,41,41,15,1,0,mexican,,,,,,,,,,,,,,,,,,,,,,,,,,,,,,,,,,,,,,,,,,,,,,,,,,,,,,,,
,,,,,,,,,672bb5dadc26d7849dc27b55,Spanish,13 or older,"no, only English or Spanish",no,2025-08-12_14h52.42.410,empathy_intonation_perc,2024.2.4,MacIntel,60.0024001,672bb5dadc26d7849dc27b55,687ed1b7e638a4cbf2f02089,689b8d61eef9c041c27f2aad,,,,,,,,,,,,,61,0,,./stim/wavs/mexican_match_declarative-broad-focus_Mariano-habla-del-tiempo.wav,,,,,,,,,,,,,,,,,,,,,,512.0442,515.1766,0,1,2.5973,,0,42,42,60,1,0,mexican,,,,,,,,,,,,,,,,,,,,,,,,,,,,,,,,,,,,,,,,,,,,,,,,,,,,,,,,
,,,,,,,,,672bb5dadc26d7849dc27b55,Spanish,13 or older,"no, only English or Spanish",no,2025-08-12_14h52.42.410,empathy_intonation_perc,2024.2.4,MacIntel,60.0024001,672bb5dadc26d7849dc27b55,687ed1b7e638a4cbf2f02089,689b8d61eef9c041c27f2aad,,,,,,,,,,,,,38,1,,./stim/wavs/mexican_mismatch_interrogative-total-yn_Mi-novio-viene-del-lago.wav,,,,,,,,,,,,,,,,,,,,,,515.177,517.4749,1,1,1.7747,,0,43,43,37,1,0,mexican,,,,,,,,,,,,,,,,,,,,,,,,,,,,,,,,,,,,,,,,,,,,,,,,,,,,,,,,
,,,,,,,,,672bb5dadc26d7849dc27b55,Spanish,13 or older,"no, only English or Spanish",no,2025-08-12_14h52.42.410,empathy_intonation_perc,2024.2.4,MacIntel,60.0024001,672bb5dadc26d7849dc27b55,687ed1b7e638a4cbf2f02089,689b8d61eef9c041c27f2aad,,,,,,,,,,,,,44,1,,./stim/wavs/puertorican_mismatch_interrogative-total-yn_Mi-madre-come-la-fruta.wav,,,,,,,,,,,,,,,,,,,,,,517.4752,519.8924,0,0,1.8894,,0,44,44,43,1,1,puertorican,,,,,,,,,,,,,,,,,,,,,,,,,,,,,,,,,,,,,,,,,,,,,,,,,,,,,,,,
,,,,,,,,,672bb5dadc26d7849dc27b55,Spanish,13 or older,"no, only English or Spanish",no,2025-08-12_14h52.42.410,empathy_intonation_perc,2024.2.4,MacIntel,60.0024001,672bb5dadc26d7849dc27b55,687ed1b7e638a4cbf2f02089,689b8d61eef9c041c27f2aad,,,,,,,,,,,,,75,0,,./stim/wavs/cuban_mismatch_declarative-broad-focus_El-hombre-mira-la-luna.wav,,,,,,,,,,,,,,,,,,,,,,519.8929,522.1087,0,1,1.6822,,0,45,45,74,1,0,cuban,,,,,,,,,,,,,,,,,,,,,,,,,,,,,,,,,,,,,,,,,,,,,,,,,,,,,,,,
,,,,,,,,,672bb5dadc26d7849dc27b55,Spanish,13 or older,"no, only English or Spanish",no,2025-08-12_14h52.42.410,empathy_intonation_perc,2024.2.4,MacIntel,60.0024001,672bb5dadc26d7849dc27b55,687ed1b7e638a4cbf2f02089,689b8d61eef9c041c27f2aad,,,,,,,,,,,,,48,0,,./stim/wavs/castilian_match_declarative-broad-focus_Maria-bebe-el-vino.wav,,,,,,,,,,,,,,,,,,,,,,522.109,524.9432,0,1,2.3246,,0,46,46,47,1,0,castilian,,,,,,,,,,,,,,,,,,,,,,,,,,,,,,,,,,,,,,,,,,,,,,,,,,,,,,,,
,,,,,,,,,672bb5dadc26d7849dc27b55,Spanish,13 or older,"no, only English or Spanish",no,2025-08-12_14h52.42.410,empathy_intonation_perc,2024.2.4,MacIntel,60.0024001,672bb5dadc26d7849dc27b55,687ed1b7e638a4cbf2f02089,689b8d61eef9c041c27f2aad,,,,,,,,,,,,,51,0,,./stim/wavs/cuban_match_declarative-broad-focus_Ana-lleva-el-abrigo.wav,,,,,,,,,,,,,,,,,,,,,,524.9436,527.6436,0,1,2.164,,0,47,47,50,1,0,cuban,,,,,,,,,,,,,,,,,,,,,,,,,,,,,,,,,,,,,,,,,,,,,,,,,,,,,,,,
,,,,,,,,,672bb5dadc26d7849dc27b55,Spanish,13 or older,"no, only English or Spanish",no,2025-08-12_14h52.42.410,empathy_intonation_perc,2024.2.4,MacIntel,60.0024001,672bb5dadc26d7849dc27b55,687ed1b7e638a4cbf2f02089,689b8d61eef9c041c27f2aad,,,,,,,,,,,,,65,0,,./stim/wavs/puertorican_match_declarative-broad-focus_David-leia-el-libro.wav,,,,,,,,,,,,,,,,,,,,,,527.645,530.2244,0,1,2.0523,,0,48,48,64,1,0,puertorican,,,,,,,,,,,,,,,,,,,,,,,,,,,,,,,,,,,,,,,,,,,,,,,,,,,,,,,,
,,,,,,,,,672bb5dadc26d7849dc27b55,Spanish,13 or older,"no, only English or Spanish",no,2025-08-12_14h52.42.410,empathy_intonation_perc,2024.2.4,MacIntel,60.0024001,672bb5dadc26d7849dc27b55,687ed1b7e638a4cbf2f02089,689b8d61eef9c041c27f2aad,,,,,,,,,,,,,69,0,,./stim/wavs/castilian_mismatch_declarative-broad-focus_El-nino-oye-el-rio.wav,,,,,,,,,,,,,,,,,,,,,,530.2248,532.7417,0,1,1.9756,,0,49,49,68,1,0,castilian,,,,,,,,,,,,,,,,,,,,,,,,,,,,,,,,,,,,,,,,,,,,,,,,,,,,,,,,
,,,,,,,,,672bb5dadc26d7849dc27b55,Spanish,13 or older,"no, only English or Spanish",no,2025-08-12_14h52.42.410,empathy_intonation_perc,2024.2.4,MacIntel,60.0024001,672bb5dadc26d7849dc27b55,687ed1b7e638a4cbf2f02089,689b8d61eef9c041c27f2aad,,,,,,,,,,,,,46,0,,./stim/wavs/castilian_match_declarative-broad-focus_Emilio-ama-la-marcha.wav,,,,,,,,,,,,,,,,,,,,,,532.7421,535.2913,0,1,2.0335,,0,50,50,45,1,0,castilian,,,,,,,,,,,,,,,,,,,,,,,,,,,,,,,,,,,,,,,,,,,,,,,,,,,,,,,,
,,,,,,,,,672bb5dadc26d7849dc27b55,Spanish,13 or older,"no, only English or Spanish",no,2025-08-12_14h52.42.410,empathy_intonation_perc,2024.2.4,MacIntel,60.0024001,672bb5dadc26d7849dc27b55,687ed1b7e638a4cbf2f02089,689b8d61eef9c041c27f2aad,,,,,,,,,,,,,78,0,,./stim/wavs/cuban_mismatch_declarative-broad-focus_Mi-tia-odia-la-lluvia.wav,,,,,,,,,,,,,,,,,,,,,,535.2917,536.9409,0,1,1.1413,,0,51,51,77,1,0,cuban,,,,,,,,,,,,,,,,,,,,,,,,,,,,,,,,,,,,,,,,,,,,,,,,,,,,,,,,
,,,,,,,,,672bb5dadc26d7849dc27b55,Spanish,13 or older,"no, only English or Spanish",no,2025-08-12_14h52.42.410,empathy_intonation_perc,2024.2.4,MacIntel,60.0024001,672bb5dadc26d7849dc27b55,687ed1b7e638a4cbf2f02089,689b8d61eef9c041c27f2aad,,,,,,,,,,,,,42,1,,./stim/wavs/puertorican_mismatch_interrogative-total-yn_La-maestra-vive-en-Paris.wav,,,,,,,,,,,,,,,,,,,,,,536.9414,539.4755,1,1,2.0104,,0,52,52,41,1,1,puertorican,,,,,,,,,,,,,,,,,,,,,,,,,,,,,,,,,,,,,,,,,,,,,,,,,,,,,,,,
,,,,,,,,,672bb5dadc26d7849dc27b55,Spanish,13 or older,"no, only English or Spanish",no,2025-08-12_14h52.42.410,empathy_intonation_perc,2024.2.4,MacIntel,60.0024001,672bb5dadc26d7849dc27b55,687ed1b7e638a4cbf2f02089,689b8d61eef9c041c27f2aad,,,,,,,,,,,,,45,0,,./stim/wavs/castilian_match_declarative-broad-focus_David-leia-el-libro.wav,,,,,,,,,,,,,,,,,,,,,,539.4757,542.0908,0,1,2.0789,,0,53,53,44,1,0,castilian,,,,,,,,,,,,,,,,,,,,,,,,,,,,,,,,,,,,,,,,,,,,,,,,,,,,,,,,
,,,,,,,,,672bb5dadc26d7849dc27b55,Spanish,13 or older,"no, only English or Spanish",no,2025-08-12_14h52.42.410,empathy_intonation_perc,2024.2.4,MacIntel,60.0024001,672bb5dadc26d7849dc27b55,687ed1b7e638a4cbf2f02089,689b8d61eef9c041c27f2aad,,,,,,,,,,,,,24,1,,./stim/wavs/puertorican_match_interrogative-total-yn_Maria-bebe-el-vino.wav,,,,,,,,,,,,,,,,,,,,,,542.0914,544.2079,1,1,1.5952,,0,54,54,23,1,1,puertorican,,,,,,,,,,,,,,,,,,,,,,,,,,,,,,,,,,,,,,,,,,,,,,,,,,,,,,,,
,,,,,,,,,672bb5dadc26d7849dc27b55,Spanish,13 or older,"no, only English or Spanish",no,2025-08-12_14h52.42.410,empathy_intonation_perc,2024.2.4,MacIntel,60.0024001,672bb5dadc26d7849dc27b55,687ed1b7e638a4cbf2f02089,689b8d61eef9c041c27f2aad,,,,,,,,,,,,,33,1,,./stim/wavs/cuban_mismatch_interrogative-total-yn_Mi-novio-viene-del-lago.wav,,,,,,,,,,,,,,,,,,,,,,544.2083,545.9917,0,0,1.2533,,0,55,55,32,1,1,cuban,,,,,,,,,,,,,,,,,,,,,,,,,,,,,,,,,,,,,,,,,,,,,,,,,,,,,,,,
,,,,,,,,,672bb5dadc26d7849dc27b55,Spanish,13 or older,"no, only English or Spanish",no,2025-08-12_14h52.42.410,empathy_intonation_perc,2024.2.4,MacIntel,60.0024001,672bb5dadc26d7849dc27b55,687ed1b7e638a4cbf2f02089,689b8d61eef9c041c27f2aad,,,,,,,,,,,,,13,1,,./stim/wavs/mexican_match_interrogative-total-yn_Ana-lleva-el-abrigo.wav,,,,,,,,,,,,,,,,,,,,,,545.992,548.4458,1,1,1.9391,,0,56,56,12,1,0,mexican,,,,,,,,,,,,,,,,,,,,,,,,,,,,,,,,,,,,,,,,,,,,,,,,,,,,,,,,
,,,,,,,,,672bb5dadc26d7849dc27b55,Spanish,13 or older,"no, only English or Spanish",no,2025-08-12_14h52.42.410,empathy_intonation_perc,2024.2.4,MacIntel,60.0024001,672bb5dadc26d7849dc27b55,687ed1b7e638a4cbf2f02089,689b8d61eef9c041c27f2aad,,,,,,,,,,,,,2,1,,./stim/wavs/castilian_match_interrogative-total-yn_Emilio-ama-la-marcha.wav,,,,,,,,,,,,,,,,,,,,,,548.4461,552.1265,1,1,3.153,,0,57,57,1,1,0,castilian,,,,,,,,,,,,,,,,,,,,,,,,,,,,,,,,,,,,,,,,,,,,,,,,,,,,,,,,
,,,,,,,,,672bb5dadc26d7849dc27b55,Spanish,13 or older,"no, only English or Spanish",no,2025-08-12_14h52.42.410,empathy_intonation_perc,2024.2.4,MacIntel,60.0024001,672bb5dadc26d7849dc27b55,687ed1b7e638a4cbf2f02089,689b8d61eef9c041c27f2aad,,,,,,,,,,,,,17,1,,./stim/wavs/mexican_match_interrogative-total-yn_Mariano-habla-del-tiempo.wav,,,,,,,,,,,,,,,,,,,,,,552.1269,554.3412,1,1,1.6879,,0,58,58,16,1,0,mexican,,,,,,,,,,,,,,,,,,,,,,,,,,,,,,,,,,,,,,,,,,,,,,,,,,,,,,,,
,,,,,,,,,672bb5dadc26d7849dc27b55,Spanish,13 or older,"no, only English or Spanish",no,2025-08-12_14h52.42.410,empathy_intonation_perc,2024.2.4,MacIntel,60.0024001,672bb5dadc26d7849dc27b55,687ed1b7e638a4cbf2f02089,689b8d61eef9c041c27f2aad,,,,,,,,,,,,,73,0,,./stim/wavs/castilian_mismatch_declarative-broad-focus_Mi-tia-odia-la-lluvia.wav,,,,,,,,,,,,,,,,,,,,,,554.342,558.0563,0,1,3.1834,,0,59,59,72,1,0,castilian,,,,,,,,,,,,,,,,,,,,,,,,,,,,,,,,,,,,,,,,,,,,,,,,,,,,,,,,
,,,,,,,,,672bb5dadc26d7849dc27b55,Spanish,13 or older,"no, only English or Spanish",no,2025-08-12_14h52.42.410,empathy_intonation_perc,2024.2.4,MacIntel,60.0024001,672bb5dadc26d7849dc27b55,687ed1b7e638a4cbf2f02089,689b8d61eef9c041c27f2aad,,,,,,,,,,,,,68,0,,./stim/wavs/puertorican_match_declarative-broad-focus_Maria-bebe-el-vino.wav,,,,,,,,,,,,,,,,,,,,,,558.0568,559.9409,0,1,1.3728,,0,60,60,67,1,0,puertorican,,,,,,,,,,,,,,,,,,,,,,,,,,,,,,,,,,,,,,,,,,,,,,,,,,,,,,,,
,,,,,,,,,672bb5dadc26d7849dc27b55,Spanish,13 or older,"no, only English or Spanish",no,2025-08-12_14h52.42.410,empathy_intonation_perc,2024.2.4,MacIntel,60.0024001,672bb5dadc26d7849dc27b55,687ed1b7e638a4cbf2f02089,689b8d61eef9c041c27f2aad,,,,,,,,,,,,,79,0,,./stim/wavs/mexican_mismatch_declarative-broad-focus_El-bebe-comia-muy-bien.wav,,,,,,,,,,,,,,,,,,,,,,559.9413,563.5066,0,1,3.0406,,0,61,61,78,1,0,mexican,,,,,,,,,,,,,,,,,,,,,,,,,,,,,,,,,,,,,,,,,,,,,,,,,,,,,,,,
,,,,,,,,,672bb5dadc26d7849dc27b55,Spanish,13 or older,"no, only English or Spanish",no,2025-08-12_14h52.42.410,empathy_intonation_perc,2024.2.4,MacIntel,60.0024001,672bb5dadc26d7849dc27b55,687ed1b7e638a4cbf2f02089,689b8d61eef9c041c27f2aad,,,,,,,,,,,,,50,0,,./stim/wavs/castilian_match_declarative-broad-focus_Marta-abre-el-regalo.wav,,,,,,,,,,,,,,,,,,,,,,563.507,566.2913,0,1,2.2762,,0,62,62,49,1,0,castilian,,,,,,,,,,,,,,,,,,,,,,,,,,,,,,,,,,,,,,,,,,,,,,,,,,,,,,,,
,,,,,,,,,672bb5dadc26d7849dc27b55,Spanish,13 or older,"no, only English or Spanish",no,2025-08-12_14h52.42.410,empathy_intonation_perc,2024.2.4,MacIntel,60.0024001,672bb5dadc26d7849dc27b55,687ed1b7e638a4cbf2f02089,689b8d61eef9c041c27f2aad,,,,,,,,,,,,,53,0,,./stim/wavs/cuban_match_declarative-broad-focus_Manuela-vende-el-carro.wav,,,,,,,,,,,,,,,,,,,,,,566.2916,569.4075,0,1,2.5757,,0,63,63,52,1,0,cuban,,,,,,,,,,,,,,,,,,,,,,,,,,,,,,,,,,,,,,,,,,,,,,,,,,,,,,,,
,,,,,,,,,672bb5dadc26d7849dc27b55,Spanish,13 or older,"no, only English or Spanish",no,2025-08-12_14h52.42.410,empathy_intonation_perc,2024.2.4,MacIntel,60.0024001,672bb5dadc26d7849dc27b55,687ed1b7e638a4cbf2f02089,689b8d61eef9c041c27f2aad,,,,,,,,,,,,,5,1,,./stim/wavs/castilian_match_interrogative-total-yn_Mariano-habla-del-tiempo.wav,,,,,,,,,,,,,,,,,,,,,,569.4081,573.4397,1,1,3.5003,,0,64,64,4,1,0,castilian,,,,,,,,,,,,,,,,,,,,,,,,,,,,,,,,,,,,,,,,,,,,,,,,,,,,,,,,
,,,,,,,,,672bb5dadc26d7849dc27b55,Spanish,13 or older,"no, only English or Spanish",no,2025-08-12_14h52.42.410,empathy_intonation_perc,2024.2.4,MacIntel,60.0024001,672bb5dadc26d7849dc27b55,687ed1b7e638a4cbf2f02089,689b8d61eef9c041c27f2aad,,,,,,,,,,,,,11,1,,./stim/wavs/cuban_match_interrogative-total-yn_Mariano-habla-del-tiempo.wav,,,,,,,,,,,,,,,,,,,,,,573.4405,576.026,0,0,2.0677,,0,65,65,10,1,1,cuban,,,,,,,,,,,,,,,,,,,,,,,,,,,,,,,,,,,,,,,,,,,,,,,,,,,,,,,,
,,,,,,,,,672bb5dadc26d7849dc27b55,Spanish,13 or older,"no, only English or Spanish",no,2025-08-12_14h52.42.410,empathy_intonation_perc,2024.2.4,MacIntel,60.0024001,672bb5dadc26d7849dc27b55,687ed1b7e638a4cbf2f02089,689b8d61eef9c041c27f2aad,,,,,,,,,,,,,43,1,,./stim/wavs/puertorican_mismatch_interrogative-total-yn_La-nina-lava-el-plato.wav,,,,,,,,,,,,,,,,,,,,,,576.0264,579.1905,1,1,2.6259,,0,66,66,42,1,1,puertorican,,,,,,,,,,,,,,,,,,,,,,,,,,,,,,,,,,,,,,,,,,,,,,,,,,,,,,,,
,,,,,,,,,672bb5dadc26d7849dc27b55,Spanish,13 or older,"no, only English or Spanish",no,2025-08-12_14h52.42.410,empathy_intonation_perc,2024.2.4,MacIntel,60.0024001,672bb5dadc26d7849dc27b55,687ed1b7e638a4cbf2f02089,689b8d61eef9c041c27f2aad,,,,,,,,,,,,,52,0,,./stim/wavs/cuban_match_declarative-broad-focus_Daniel-iba-a-Bolivia.wav,,,,,,,,,,,,,,,,,,,,,,579.191,581.374,0,1,1.6663,,0,67,67,51,1,0,cuban,,,,,,,,,,,,,,,,,,,,,,,,,,,,,,,,,,,,,,,,,,,,,,,,,,,,,,,,
,,,,,,,,,672bb5dadc26d7849dc27b55,Spanish,13 or older,"no, only English or Spanish",no,2025-08-12_14h52.42.410,empathy_intonation_perc,2024.2.4,MacIntel,60.0024001,672bb5dadc26d7849dc27b55,687ed1b7e638a4cbf2f02089,689b8d61eef9c041c27f2aad,,,,,,,,,,,,,71,0,,./stim/wavs/castilian_mismatch_declarative-broad-focus_La-nina-lava-el-plato.wav,,,,,,,,,,,,,,,,,,,,,,581.3743,585.456,0,1,3.5597,,0,68,68,70,1,0,castilian,,,,,,,,,,,,,,,,,,,,,,,,,,,,,,,,,,,,,,,,,,,,,,,,,,,,,,,,
,,,,,,,,,672bb5dadc26d7849dc27b55,Spanish,13 or older,"no, only English or Spanish",no,2025-08-12_14h52.42.410,empathy_intonation_perc,2024.2.4,MacIntel,60.0024001,672bb5dadc26d7849dc27b55,687ed1b7e638a4cbf2f02089,689b8d61eef9c041c27f2aad,,,,,,,,,,,,,54,0,,./stim/wavs/cuban_match_declarative-broad-focus_Maria-bebe-el-vino.wav,,,,,,,,,,,,,,,,,,,,,,585.4566,588.7413,0,1,2.7466,,0,69,69,53,1,0,cuban,,,,,,,,,,,,,,,,,,,,,,,,,,,,,,,,,,,,,,,,,,,,,,,,,,,,,,,,
,,,,,,,,,672bb5dadc26d7849dc27b55,Spanish,13 or older,"no, only English or Spanish",no,2025-08-12_14h52.42.410,empathy_intonation_perc,2024.2.4,MacIntel,60.0024001,672bb5dadc26d7849dc27b55,687ed1b7e638a4cbf2f02089,689b8d61eef9c041c27f2aad,,,,,,,,,,,,,25,1,,./stim/wavs/castilian_mismatch_interrogative-total-yn_La-maestra-vive-en-Paris.wav,,,,,,,,,,,,,,,,,,,,,,588.742,592.2731,1,1,3.007,,0,70,70,24,1,0,castilian,,,,,,,,,,,,,,,,,,,,,,,,,,,,,,,,,,,,,,,,,,,,,,,,,,,,,,,,
,,,,,,,,,672bb5dadc26d7849dc27b55,Spanish,13 or older,"no, only English or Spanish",no,2025-08-12_14h52.42.410,empathy_intonation_perc,2024.2.4,MacIntel,60.0024001,672bb5dadc26d7849dc27b55,687ed1b7e638a4cbf2f02089,689b8d61eef9c041c27f2aad,,,,,,,,,,,,,26,1,,./stim/wavs/castilian_mismatch_interrogative-total-yn_La-nina-lava-el-plato.wav,,,,,,,,,,,,,,,,,,,,,,592.2734,594.7233,1,1,1.9339,,0,71,71,25,1,0,castilian,,,,,,,,,,,,,,,,,,,,,,,,,,,,,,,,,,,,,,,,,,,,,,,,,,,,,,,,
,,,,,,,,,672bb5dadc26d7849dc27b55,Spanish,13 or older,"no, only English or Spanish",no,2025-08-12_14h52.42.410,empathy_intonation_perc,2024.2.4,MacIntel,60.0024001,672bb5dadc26d7849dc27b55,687ed1b7e638a4cbf2f02089,689b8d61eef9c041c27f2aad,,,,,,,,,,,,,62,0,,./stim/wavs/mexican_match_declarative-broad-focus_Marta-abre-el-regalo.wav,,,,,,,,,,,,,,,,,,,,,,594.7236,597.7247,0,1,2.4811,,0,72,72,61,1,0,mexican,,,,,,,,,,,,,,,,,,,,,,,,,,,,,,,,,,,,,,,,,,,,,,,,,,,,,,,,
,,,,,,,,,672bb5dadc26d7849dc27b55,Spanish,13 or older,"no, only English or Spanish",no,2025-08-12_14h52.42.410,empathy_intonation_perc,2024.2.4,MacIntel,60.0024001,672bb5dadc26d7849dc27b55,687ed1b7e638a4cbf2f02089,689b8d61eef9c041c27f2aad,,,,,,,,,,,,,31,1,,./stim/wavs/cuban_mismatch_interrogative-total-yn_El-nino-oye-el-rio.wav,,,,,,,,,,,,,,,,,,,,,,597.7268,601.2073,0,0,2.9482,,0,73,73,30,1,1,cuban,,,,,,,,,,,,,,,,,,,,,,,,,,,,,,,,,,,,,,,,,,,,,,,,,,,,,,,,
,,,,,,,,,672bb5dadc26d7849dc27b55,Spanish,13 or older,"no, only English or Spanish",no,2025-08-12_14h52.42.410,empathy_intonation_perc,2024.2.4,MacIntel,60.0024001,672bb5dadc26d7849dc27b55,687ed1b7e638a4cbf2f02089,689b8d61eef9c041c27f2aad,,,,,,,,,,,,,32,1,,./stim/wavs/cuban_mismatch_interrogative-total-yn_Mi-madre-come-la-fruta.wav,,,,,,,,,,,,,,,,,,,,,,601.2077,603.4572,0,0,1.7154,,0,74,74,31,1,1,cuban,,,,,,,,,,,,,,,,,,,,,,,,,,,,,,,,,,,,,,,,,,,,,,,,,,,,,,,,
,,,,,,,,,672bb5dadc26d7849dc27b55,Spanish,13 or older,"no, only English or Spanish",no,2025-08-12_14h52.42.410,empathy_intonation_perc,2024.2.4,MacIntel,60.0024001,672bb5dadc26d7849dc27b55,687ed1b7e638a4cbf2f02089,689b8d61eef9c041c27f2aad,,,,,,,,,,,,,36,1,,./stim/wavs/mexican_mismatch_interrogative-total-yn_El-nino-oye-el-rio.wav,,,,,,,,,,,,,,,,,,,,,,603.4582,605.3899,1,1,1.3906,,0,75,75,35,1,0,mexican,,,,,,,,,,,,,,,,,,,,,,,,,,,,,,,,,,,,,,,,,,,,,,,,,,,,,,,,
,,,,,,,,,672bb5dadc26d7849dc27b55,Spanish,13 or older,"no, only English or Spanish",no,2025-08-12_14h52.42.410,empathy_intonation_perc,2024.2.4,MacIntel,60.0024001,672bb5dadc26d7849dc27b55,687ed1b7e638a4cbf2f02089,689b8d61eef9c041c27f2aad,,,,,,,,,,,,,27,1,,./stim/wavs/castilian_mismatch_interrogative-total-yn_Mi-madre-come-la-fruta.wav,,,,,,,,,,,,,,,,,,,,,,605.3904,609.2587,1,1,3.3438,,0,76,76,26,1,0,castilian,,,,,,,,,,,,,,,,,,,,,,,,,,,,,,,,,,,,,,,,,,,,,,,,,,,,,,,,
,,,,,,,,,672bb5dadc26d7849dc27b55,Spanish,13 or older,"no, only English or Spanish",no,2025-08-12_14h52.42.410,empathy_intonation_perc,2024.2.4,MacIntel,60.0024001,672bb5dadc26d7849dc27b55,687ed1b7e638a4cbf2f02089,689b8d61eef9c041c27f2aad,,,,,,,,,,,,,4,1,,./stim/wavs/castilian_match_interrogative-total-yn_Maria-bebe-el-vino.wav,,,,,,,,,,,,,,,,,,,,,,609.2596,612.5566,1,1,2.7755,,0,77,77,3,1,0,castilian,,,,,,,,,,,,,,,,,,,,,,,,,,,,,,,,,,,,,,,,,,,,,,,,,,,,,,,,
,,,,,,,,,672bb5dadc26d7849dc27b55,Spanish,13 or older,"no, only English or Spanish",no,2025-08-12_14h52.42.410,empathy_intonation_perc,2024.2.4,MacIntel,60.0024001,672bb5dadc26d7849dc27b55,687ed1b7e638a4cbf2f02089,689b8d61eef9c041c27f2aad,,,,,,,,,,,,,21,1,,./stim/wavs/puertorican_match_interrogative-total-yn_David-leia-el-libro.wav,,,,,,,,,,,,,,,,,,,,,,612.557,614.9901,0,0,1.9079,,0,78,78,20,1,1,puertorican,,,,,,,,,,,,,,,,,,,,,,,,,,,,,,,,,,,,,,,,,,,,,,,,,,,,,,,,
,,,,,,,,,672bb5dadc26d7849dc27b55,Spanish,13 or older,"no, only English or Spanish",no,2025-08-12_14h52.42.410,empathy_intonation_perc,2024.2.4,MacIntel,60.0024001,672bb5dadc26d7849dc27b55,687ed1b7e638a4cbf2f02089,689b8d61eef9c041c27f2aad,,,,,,,,,,,,,87,0,,./stim/wavs/puertorican_mismatch_declarative-broad-focus_La-maestra-vive-en-Paris.wav,,,,,,,,,,,,,,,,,,,,,,614.9905,617.0896,0,1,1.5599,,0,79,79,86,1,0,puertorican,,,,,,,,,,,,,,,,,,,,,,,,,,,,,,,,,,,,,,,,,,,,,,,,,,,,,,,,
,,,,,,,,,672bb5dadc26d7849dc27b55,Spanish,13 or older,"no, only English or Spanish",no,2025-08-12_14h52.42.410,empathy_intonation_perc,2024.2.4,MacIntel,60.0024001,672bb5dadc26d7849dc27b55,687ed1b7e638a4cbf2f02089,689b8d61eef9c041c27f2aad,,,,,,,,,,,,,57,0,,./stim/wavs/mexican_match_declarative-broad-focus_Ana-lleva-el-abrigo.wav,,,,,,,,,,,,,,,,,,,,,,617.09,619.19,0,1,1.5901,,0,80,80,56,1,0,mexican,,,,,,,,,,,,,,,,,,,,,,,,,,,,,,,,,,,,,,,,,,,,,,,,,,,,,,,,
,,,,,,,,,672bb5dadc26d7849dc27b55,Spanish,13 or older,"no, only English or Spanish",no,2025-08-12_14h52.42.410,empathy_intonation_perc,2024.2.4,MacIntel,60.0024001,672bb5dadc26d7849dc27b55,687ed1b7e638a4cbf2f02089,689b8d61eef9c041c27f2aad,,,,,,,,,,,,,80,0,,./stim/wavs/mexican_mismatch_declarative-broad-focus_El-hombre-mira-la-luna.wav,,,,,,,,,,,,,,,,,,,,,,619.1903,621.2578,0,1,1.5353,,0,81,81,79,1,0,mexican,,,,,,,,,,,,,,,,,,,,,,,,,,,,,,,,,,,,,,,,,,,,,,,,,,,,,,,,
,,,,,,,,,672bb5dadc26d7849dc27b55,Spanish,13 or older,"no, only English or Spanish",no,2025-08-12_14h52.42.410,empathy_intonation_perc,2024.2.4,MacIntel,60.0024001,672bb5dadc26d7849dc27b55,687ed1b7e638a4cbf2f02089,689b8d61eef9c041c27f2aad,,,,,,,,,,,,,64,0,,./stim/wavs/puertorican_match_declarative-broad-focus_Daniel-iba-a-Bolivia.wav,,,,,,,,,,,,,,,,,,,,,,621.2583,623.1239,0,1,1.3391,,0,82,82,63,1,0,puertorican,,,,,,,,,,,,,,,,,,,,,,,,,,,,,,,,,,,,,,,,,,,,,,,,,,,,,,,,
,,,,,,,,,672bb5dadc26d7849dc27b55,Spanish,13 or older,"no, only English or Spanish",no,2025-08-12_14h52.42.410,empathy_intonation_perc,2024.2.4,MacIntel,60.0024001,672bb5dadc26d7849dc27b55,687ed1b7e638a4cbf2f02089,689b8d61eef9c041c27f2aad,,,,,,,,,,,,,47,0,,./stim/wavs/castilian_match_declarative-broad-focus_Manuela-vende-el-carro.wav,,,,,,,,,,,,,,,,,,,,,,623.1243,625.8076,0,1,2.1602,,0,83,83,46,1,0,castilian,,,,,,,,,,,,,,,,,,,,,,,,,,,,,,,,,,,,,,,,,,,,,,,,,,,,,,,,
,,,,,,,,,672bb5dadc26d7849dc27b55,Spanish,13 or older,"no, only English or Spanish",no,2025-08-12_14h52.42.410,empathy_intonation_perc,2024.2.4,MacIntel,60.0024001,672bb5dadc26d7849dc27b55,687ed1b7e638a4cbf2f02089,689b8d61eef9c041c27f2aad,,,,,,,,,,,,,3,1,,./stim/wavs/castilian_match_interrogative-total-yn_Manuela-vende-el-carro.wav,,,,,,,,,,,,,,,,,,,,,,625.8079,628.4084,1,1,2.0729,,0,84,84,2,1,0,castilian,,,,,,,,,,,,,,,,,,,,,,,,,,,,,,,,,,,,,,,,,,,,,,,,,,,,,,,,
,,,,,,,,,672bb5dadc26d7849dc27b55,Spanish,13 or older,"no, only English or Spanish",no,2025-08-12_14h52.42.410,empathy_intonation_perc,2024.2.4,MacIntel,60.0024001,672bb5dadc26d7849dc27b55,687ed1b7e638a4cbf2f02089,689b8d61eef9c041c27f2aad,,,,,,,,,,,,,41,1,,./stim/wavs/puertorican_mismatch_interrogative-total-yn_El-nino-oye-el-rio.wav,,,,,,,,,,,,,,,,,,,,,,628.4094,630.3232,0,0,1.3834,,0,85,85,40,1,1,puertorican,,,,,,,,,,,,,,,,,,,,,,,,,,,,,,,,,,,,,,,,,,,,,,,,,,,,,,,,
,,,,,,,,,672bb5dadc26d7849dc27b55,Spanish,13 or older,"no, only English or Spanish",no,2025-08-12_14h52.42.410,empathy_intonation_perc,2024.2.4,MacIntel,60.0024001,672bb5dadc26d7849dc27b55,687ed1b7e638a4cbf2f02089,689b8d61eef9c041c27f2aad,,,,,,,,,,,,,35,1,,./stim/wavs/mexican_mismatch_interrogative-total-yn_El-hombre-mira-la-luna.wav,,,,,,,,,,,,,,,,,,,,,,630.3236,632.1921,1,1,1.3607,,0,86,86,34,1,0,mexican,,,,,,,,,,,,,,,,,,,,,,,,,,,,,,,,,,,,,,,,,,,,,,,,,,,,,,,,
,,,,,,,,,672bb5dadc26d7849dc27b55,Spanish,13 or older,"no, only English or Spanish",no,2025-08-12_14h52.42.410,empathy_intonation_perc,2024.2.4,MacIntel,60.0024001,672bb5dadc26d7849dc27b55,687ed1b7e638a4cbf2f02089,689b8d61eef9c041c27f2aad,,,,,,,,,,,,,81,0,,./stim/wavs/mexican_mismatch_declarative-broad-focus_La-maestra-vive-en-Paris.wav,,,,,,,,,,,,,,,,,,,,,,632.1927,634.1896,0,1,1.4678,,0,87,87,80,1,0,mexican,,,,,,,,,,,,,,,,,,,,,,,,,,,,,,,,,,,,,,,,,,,,,,,,,,,,,,,,
,,,,,,,"Great! Now we will move on. The next task consists of about 60 trials, in each of which you will see a string of letters. 
  
  Your task is to decide whether this is a real Spanish word or not.", (press the spacebar to continue),672bb5dadc26d7849dc27b55,Spanish,13 or older,"no, only English or Spanish",no,2025-08-12_14h52.42.410,empathy_intonation_perc,2024.2.4,MacIntel,60.0024001,672bb5dadc26d7849dc27b55,687ed1b7e638a4cbf2f02089,689b8d61eef9c041c27f2aad,,,,,,,,,,,,,,,,,,,,,,,,,,,,,,,,,,,,,,,,,,,,,,,,,,,634.2011,636.1225,0,0,0,0,1,,,,,,,,,,,,,,,,,,,,,,,,,,,,,,,,,,,,,,,,,,,,,,,,,
,,,,,,,"If you think it is an existing Spanish word, you type '1' (for 'REAL'), and if you think it is not an existing Spanish word, you type '0' (for 'FAKE').", (press the spacebar to continue),672bb5dadc26d7849dc27b55,Spanish,13 or older,"no, only English or Spanish",no,2025-08-12_14h52.42.410,empathy_intonation_perc,2024.2.4,MacIntel,60.0024001,672bb5dadc26d7849dc27b55,687ed1b7e638a4cbf2f02089,689b8d61eef9c041c27f2aad,,,,,,,,,,,,,,,,,,,,,,,,,,,,,,,,,,,,,,,,,,,,,,,,,,,636.1236,638.4231,0,1,1,1,1,,,,,,,,,,,,,,,,,,,,,,,,,,,,,,,,,,,,,,,,,,,,,,,,,
,,,,,,,"If you are sure that the word exists, even though you don’t know its exact meaning, you may still respond '1' (REAL). 
  
  But if you are not sure if it is an existing word, you should respond '0' (FAKE).
  
  Let's do a practice round...", (press the spacebar to continue),672bb5dadc26d7849dc27b55,Spanish,13 or older,"no, only English or Spanish",no,2025-08-12_14h52.42.410,empathy_intonation_perc,2024.2.4,MacIntel,60.0024001,672bb5dadc26d7849dc27b55,687ed1b7e638a4cbf2f02089,689b8d61eef9c041c27f2aad,,,,,,,,,,,,,,,,,,,,,,,,,,,,,,,,,,,,,,,,,,,,,,,,,,,638.4247,639.2067,0,2,2,2,1,,,,,,,,,,,,,,,,,,,,,,,,,,,,,,,,,,,,,,,,,,,,,,,,,
,,,,,,,,,672bb5dadc26d7849dc27b55,Spanish,13 or older,"no, only English or Spanish",no,2025-08-12_14h52.42.410,empathy_intonation_perc,2024.2.4,MacIntel,60.0024001,672bb5dadc26d7849dc27b55,687ed1b7e638a4cbf2f02089,689b8d61eef9c041c27f2aad,,,,,,,,,,,,,,0,,,,,,,,,,,,,,,,,,,,,,,,,,,,,,,,,,,,,,,,,,,,639.2126,641.0064,1,0,1.2706,,641.0065,642.0064,0,0,0,0,1,0,depiste,REAL,FAKE,,,,,,,,,,,,,,,,,,,,,,,,,,,,,,,,
,,,,,,,,,672bb5dadc26d7849dc27b55,Spanish,13 or older,"no, only English or Spanish",no,2025-08-12_14h52.42.410,empathy_intonation_perc,2024.2.4,MacIntel,60.0024001,672bb5dadc26d7849dc27b55,687ed1b7e638a4cbf2f02089,689b8d61eef9c041c27f2aad,,,,,,,,,,,,,,1,,,,,,,,,,,,,,,,,,,,,,,,,,,,,,,,,,,,,,,,,,,,642.0079,643.2068,1,1,0.6736,,643.2075,644.2051,0,1,1,1,1,0,sí,REAL,FAKE,,,,,,,,,,,,,,,,,,,,,,,,,,,,,,,,
,,,,,,,,,672bb5dadc26d7849dc27b55,Spanish,13 or older,"no, only English or Spanish",no,2025-08-12_14h52.42.410,empathy_intonation_perc,2024.2.4,MacIntel,60.0024001,672bb5dadc26d7849dc27b55,687ed1b7e638a4cbf2f02089,689b8d61eef9c041c27f2aad,,,,,,,,,,,,,,0,,,,,,,,,,,,,,,,,,,,,,,,,,,,,,,,,,,,,,,,,,,,644.2059,645.5559,0,1,0.8219,,645.556,646.5563,0,2,2,2,1,0,coné,REAL,FAKE,,,,,,,,,,,,,,,,,,,,,,,,,,,,,,,,
,,,,,,,,,672bb5dadc26d7849dc27b55,Spanish,13 or older,"no, only English or Spanish",no,2025-08-12_14h52.42.410,empathy_intonation_perc,2024.2.4,MacIntel,60.0024001,672bb5dadc26d7849dc27b55,687ed1b7e638a4cbf2f02089,689b8d61eef9c041c27f2aad,,,,,,,,,,,,,,0,,,,,,,,,,,,,,,,,,,,,,,,,,,,,,,,,,,,,,,,,,,,646.5574,647.809,0,1,0.7154,,647.8091,648.8065,0,3,3,3,1,0,calpar,REAL,FAKE,,,,,,,,,,,,,,,,,,,,,,,,,,,,,,,,
,,,,,,,,,672bb5dadc26d7849dc27b55,Spanish,13 or older,"no, only English or Spanish",no,2025-08-12_14h52.42.410,empathy_intonation_perc,2024.2.4,MacIntel,60.0024001,672bb5dadc26d7849dc27b55,687ed1b7e638a4cbf2f02089,689b8d61eef9c041c27f2aad,,,,,,,,,,,,,,0,,,,,,,,,,,,,,,,,,,,,,,,,,,,,,,,,,,,,,,,,,,,648.8079,649.8888,0,1,0.5589,,649.8888,650.8888,0,4,4,4,1,0,joten,REAL,FAKE,,,,,,,,,,,,,,,,,,,,,,,,,,,,,,,,
,,,,,,,,,672bb5dadc26d7849dc27b55,Spanish,13 or older,"no, only English or Spanish",no,2025-08-12_14h52.42.410,empathy_intonation_perc,2024.2.4,MacIntel,60.0024001,672bb5dadc26d7849dc27b55,687ed1b7e638a4cbf2f02089,689b8d61eef9c041c27f2aad,,,,,,,,,,,,,,1,,,,,,,,,,,,,,,,,,,,,,,,,,,,,,,,,,,,,,,,,,,,650.8897,652.4406,0,0,1.0218,,652.4411,653.4392,0,5,5,5,1,0,sacapuntas,REAL,FAKE,,,,,,,,,,,,,,,,,,,,,,,,,,,,,,,,
,,,,,,,,,672bb5dadc26d7849dc27b55,Spanish,13 or older,"no, only English or Spanish",no,2025-08-12_14h52.42.410,empathy_intonation_perc,2024.2.4,MacIntel,60.0024001,672bb5dadc26d7849dc27b55,687ed1b7e638a4cbf2f02089,689b8d61eef9c041c27f2aad,,,,,,,,,,,,,,0,,,,,,,,,,,,,,,,,,,,,,,,,,,,,,,,,,,,,,,,,,,,653.4397,654.6239,0,1,0.6591,,654.6244,655.6222,0,6,6,6,1,0,priba,REAL,FAKE,,,,,,,,,,,,,,,,,,,,,,,,,,,,,,,,
,,,,,,,,,672bb5dadc26d7849dc27b55,Spanish,13 or older,"no, only English or Spanish",no,2025-08-12_14h52.42.410,empathy_intonation_perc,2024.2.4,MacIntel,60.0024001,672bb5dadc26d7849dc27b55,687ed1b7e638a4cbf2f02089,689b8d61eef9c041c27f2aad,,,,,,,,,,,,,,0,,,,,,,,,,,,,,,,,,,,,,,,,,,,,,,,,,,,,,,,,,,,655.6231,657.758,1,0,1.5983,,657.7584,658.7579,0,7,7,7,1,0,pelasula,REAL,FAKE,,,,,,,,,,,,,,,,,,,,,,,,,,,,,,,,
,,,,,,,,,672bb5dadc26d7849dc27b55,Spanish,13 or older,"no, only English or Spanish",no,2025-08-12_14h52.42.410,empathy_intonation_perc,2024.2.4,MacIntel,60.0024001,672bb5dadc26d7849dc27b55,687ed1b7e638a4cbf2f02089,689b8d61eef9c041c27f2aad,,,,,,,,,,,,,,1,,,,,,,,,,,,,,,,,,,,,,,,,,,,,,,,,,,,,,,,,,,,658.7589,660.1729,1,1,0.8809,,660.1734,661.1734,0,8,8,8,1,0,bien,REAL,FAKE,,,,,,,,,,,,,,,,,,,,,,,,,,,,,,,,
,,,,,,,,,672bb5dadc26d7849dc27b55,Spanish,13 or older,"no, only English or Spanish",no,2025-08-12_14h52.42.410,empathy_intonation_perc,2024.2.4,MacIntel,60.0024001,672bb5dadc26d7849dc27b55,687ed1b7e638a4cbf2f02089,689b8d61eef9c041c27f2aad,,,,,,,,,,,,,,1,,,,,,,,,,,,,,,,,,,,,,,,,,,,,,,,,,,,,,,,,,,,661.1748,662.3901,1,1,0.696,,662.3901,663.3895,0,9,9,9,1,0,casa,REAL,FAKE,,,,,,,,,,,,,,,,,,,,,,,,,,,,,,,,
,,,,,,,,,672bb5dadc26d7849dc27b55,Spanish,13 or older,"no, only English or Spanish",no,2025-08-12_14h52.42.410,empathy_intonation_perc,2024.2.4,MacIntel,60.0024001,672bb5dadc26d7849dc27b55,687ed1b7e638a4cbf2f02089,689b8d61eef9c041c27f2aad,,,,,,,,,,,,,,0,,,,,,,,,,,,,,,,,,,,,,,,,,,,,,,,,,,,,,,,,,,,663.3911,664.5914,0,1,0.6849,,664.5915,665.5915,0,10,10,10,1,0,lejo,REAL,FAKE,,,,,,,,,,,,,,,,,,,,,,,,,,,,,,,,
,,,,,,,,,672bb5dadc26d7849dc27b55,Spanish,13 or older,"no, only English or Spanish",no,2025-08-12_14h52.42.410,empathy_intonation_perc,2024.2.4,MacIntel,60.0024001,672bb5dadc26d7849dc27b55,687ed1b7e638a4cbf2f02089,689b8d61eef9c041c27f2aad,,,,,,,,,,,,,,0,,,,,,,,,,,,,,,,,,,,,,,,,,,,,,,,,,,,,,,,,,,,665.593,667.1063,0,1,0.9776,,667.1063,668.1052,0,11,11,11,1,0,pretantas,REAL,FAKE,,,,,,,,,,,,,,,,,,,,,,,,,,,,,,,,
,,,,,,,,,672bb5dadc26d7849dc27b55,Spanish,13 or older,"no, only English or Spanish",no,2025-08-12_14h52.42.410,empathy_intonation_perc,2024.2.4,MacIntel,60.0024001,672bb5dadc26d7849dc27b55,687ed1b7e638a4cbf2f02089,689b8d61eef9c041c27f2aad,,,,,,,,,,,,,,,,,,,,,,,,,,,,,,,,,,,,,,,,,,,,,,,,,,,,,,,,,,,,,,,,,,,,,,,,,,,668.1113,669.0574,,,,,,,,,,,,,,,,,,,,,,,,,,,,,,
,,,,,,,,,672bb5dadc26d7849dc27b55,Spanish,13 or older,"no, only English or Spanish",no,2025-08-12_14h52.42.410,empathy_intonation_perc,2024.2.4,MacIntel,60.0024001,672bb5dadc26d7849dc27b55,687ed1b7e638a4cbf2f02089,689b8d61eef9c041c27f2aad,,,,,,,,,,,,,,0,,,,,,,,,,,,,,,,,,,,,,,,,,,,,,,,,,,,,,,,,,,,,,,,,,,,,,,,,33,pauca,,,,,669.0654,670.5238,0,1,0.9288,,0,0,0,32,1,REAL,FAKE,,,,,,,,,,,,,,,,,
,,,,,,,,,672bb5dadc26d7849dc27b55,Spanish,13 or older,"no, only English or Spanish",no,2025-08-12_14h52.42.410,empathy_intonation_perc,2024.2.4,MacIntel,60.0024001,672bb5dadc26d7849dc27b55,687ed1b7e638a4cbf2f02089,689b8d61eef9c041c27f2aad,,,,,,,,,,,,,,0,,,,,,,,,,,,,,,,,,,,,,,,,,,,,,,,,,,,,,,,,,,,,,,,,,,,,,,,,84,escuto,,,,,670.5249,671.9562,0,1,0.8987,,0,1,1,83,1,REAL,FAKE,,,,,,,,,,,,,,,,,
,,,,,,,,,672bb5dadc26d7849dc27b55,Spanish,13 or older,"no, only English or Spanish",no,2025-08-12_14h52.42.410,empathy_intonation_perc,2024.2.4,MacIntel,60.0024001,672bb5dadc26d7849dc27b55,687ed1b7e638a4cbf2f02089,689b8d61eef9c041c27f2aad,,,,,,,,,,,,,,0,,,,,,,,,,,,,,,,,,,,,,,,,,,,,,,,,,,,,,,,,,,,,,,,,,,,,,,,,47,cartinar,,,,,671.9574,673.0912,0,1,0.6049,,0,2,2,46,1,REAL,FAKE,,,,,,,,,,,,,,,,,
,,,,,,,,,672bb5dadc26d7849dc27b55,Spanish,13 or older,"no, only English or Spanish",no,2025-08-12_14h52.42.410,empathy_intonation_perc,2024.2.4,MacIntel,60.0024001,672bb5dadc26d7849dc27b55,687ed1b7e638a4cbf2f02089,689b8d61eef9c041c27f2aad,,,,,,,,,,,,,,0,,,,,,,,,,,,,,,,,,,,,,,,,,,,,,,,,,,,,,,,,,,,,,,,,,,,,,,,,19,brecedad,,,,,673.0923,674.4064,0,1,0.7773,,0,3,3,18,1,REAL,FAKE,,,,,,,,,,,,,,,,,
,,,,,,,,,672bb5dadc26d7849dc27b55,Spanish,13 or older,"no, only English or Spanish",no,2025-08-12_14h52.42.410,empathy_intonation_perc,2024.2.4,MacIntel,60.0024001,672bb5dadc26d7849dc27b55,687ed1b7e638a4cbf2f02089,689b8d61eef9c041c27f2aad,,,,,,,,,,,,,,0,,,,,,,,,,,,,,,,,,,,,,,,,,,,,,,,,,,,,,,,,,,,,,,,,,,,,,,,,32,fatacidad,,,,,674.4071,675.5563,0,1,0.6034,,0,4,4,31,1,REAL,FAKE,,,,,,,,,,,,,,,,,
,,,,,,,,,672bb5dadc26d7849dc27b55,Spanish,13 or older,"no, only English or Spanish",no,2025-08-12_14h52.42.410,empathy_intonation_perc,2024.2.4,MacIntel,60.0024001,672bb5dadc26d7849dc27b55,687ed1b7e638a4cbf2f02089,689b8d61eef9c041c27f2aad,,,,,,,,,,,,,,1,,,,,,,,,,,,,,,,,,,,,,,,,,,,,,,,,,,,,,,,,,,,,,,,,,,,,,,,,73,hervidor,,,,,675.5575,676.6393,0,0,0.5445,,0,5,5,72,1,REAL,FAKE,,,,,,,,,,,,,,,,,
,,,,,,,,,672bb5dadc26d7849dc27b55,Spanish,13 or older,"no, only English or Spanish",no,2025-08-12_14h52.42.410,empathy_intonation_perc,2024.2.4,MacIntel,60.0024001,672bb5dadc26d7849dc27b55,687ed1b7e638a4cbf2f02089,689b8d61eef9c041c27f2aad,,,,,,,,,,,,,,0,,,,,,,,,,,,,,,,,,,,,,,,,,,,,,,,,,,,,,,,,,,,,,,,,,,,,,,,,21,capillo,,,,,676.6403,677.7897,0,1,0.625,,0,6,6,20,1,REAL,FAKE,,,,,,,,,,,,,,,,,
,,,,,,,,,672bb5dadc26d7849dc27b55,Spanish,13 or older,"no, only English or Spanish",no,2025-08-12_14h52.42.410,empathy_intonation_perc,2024.2.4,MacIntel,60.0024001,672bb5dadc26d7849dc27b55,687ed1b7e638a4cbf2f02089,689b8d61eef9c041c27f2aad,,,,,,,,,,,,,,1,,,,,,,,,,,,,,,,,,,,,,,,,,,,,,,,,,,,,,,,,,,,,,,,,,,,,,,,,69,engatusar,,,,,677.791,678.8889,0,0,0.5788,,0,7,7,68,1,REAL,FAKE,,,,,,,,,,,,,,,,,
,,,,,,,,,672bb5dadc26d7849dc27b55,Spanish,13 or older,"no, only English or Spanish",no,2025-08-12_14h52.42.410,empathy_intonation_perc,2024.2.4,MacIntel,60.0024001,672bb5dadc26d7849dc27b55,687ed1b7e638a4cbf2f02089,689b8d61eef9c041c27f2aad,,,,,,,,,,,,,,1,,,,,,,,,,,,,,,,,,,,,,,,,,,,,,,,,,,,,,,,,,,,,,,,,,,,,,,,,15,regar,,,,,678.8896,680.0391,0,0,0.6299,,0,8,8,14,1,REAL,FAKE,,,,,,,,,,,,,,,,,
,,,,,,,,,672bb5dadc26d7849dc27b55,Spanish,13 or older,"no, only English or Spanish",no,2025-08-12_14h52.42.410,empathy_intonation_perc,2024.2.4,MacIntel,60.0024001,672bb5dadc26d7849dc27b55,687ed1b7e638a4cbf2f02089,689b8d61eef9c041c27f2aad,,,,,,,,,,,,,,0,,,,,,,,,,,,,,,,,,,,,,,,,,,,,,,,,,,,,,,,,,,,,,,,,,,,,,,,,79,tropaje,,,,,680.0401,681.0586,0,1,0.4875,,0,9,9,78,1,REAL,FAKE,,,,,,,,,,,,,,,,,
,,,,,,,,,672bb5dadc26d7849dc27b55,Spanish,13 or older,"no, only English or Spanish",no,2025-08-12_14h52.42.410,empathy_intonation_perc,2024.2.4,MacIntel,60.0024001,672bb5dadc26d7849dc27b55,687ed1b7e638a4cbf2f02089,689b8d61eef9c041c27f2aad,,,,,,,,,,,,,,1,,,,,,,,,,,,,,,,,,,,,,,,,,,,,,,,,,,,,,,,,,,,,,,,,,,,,,,,,61,seda,,,,,681.0594,682.2269,1,1,0.6301,,0,10,10,60,1,REAL,FAKE,,,,,,,,,,,,,,,,,
,,,,,,,,,672bb5dadc26d7849dc27b55,Spanish,13 or older,"no, only English or Spanish",no,2025-08-12_14h52.42.410,empathy_intonation_perc,2024.2.4,MacIntel,60.0024001,672bb5dadc26d7849dc27b55,687ed1b7e638a4cbf2f02089,689b8d61eef9c041c27f2aad,,,,,,,,,,,,,,1,,,,,,,,,,,,,,,,,,,,,,,,,,,,,,,,,,,,,,,,,,,,,,,,,,,,,,,,,9,hacha,,,,,682.2277,683.4898,1,1,0.7282,,0,11,11,8,1,REAL,FAKE,,,,,,,,,,,,,,,,,
,,,,,,,,,672bb5dadc26d7849dc27b55,Spanish,13 or older,"no, only English or Spanish",no,2025-08-12_14h52.42.410,empathy_intonation_perc,2024.2.4,MacIntel,60.0024001,672bb5dadc26d7849dc27b55,687ed1b7e638a4cbf2f02089,689b8d61eef9c041c27f2aad,,,,,,,,,,,,,,0,,,,,,,,,,,,,,,,,,,,,,,,,,,,,,,,,,,,,,,,,,,,,,,,,,,,,,,,,58,plaudir,,,,,683.491,684.6287,0,1,0.6185,,0,12,12,57,1,REAL,FAKE,,,,,,,,,,,,,,,,,
,,,,,,,,,672bb5dadc26d7849dc27b55,Spanish,13 or older,"no, only English or Spanish",no,2025-08-12_14h52.42.410,empathy_intonation_perc,2024.2.4,MacIntel,60.0024001,672bb5dadc26d7849dc27b55,687ed1b7e638a4cbf2f02089,689b8d61eef9c041c27f2aad,,,,,,,,,,,,,,0,,,,,,,,,,,,,,,,,,,,,,,,,,,,,,,,,,,,,,,,,,,,,,,,,,,,,,,,,87,grodo,,,,,684.6295,685.9715,0,1,0.8136,,0,13,13,86,1,REAL,FAKE,,,,,,,,,,,,,,,,,
,,,,,,,,,672bb5dadc26d7849dc27b55,Spanish,13 or older,"no, only English or Spanish",no,2025-08-12_14h52.42.410,empathy_intonation_perc,2024.2.4,MacIntel,60.0024001,672bb5dadc26d7849dc27b55,687ed1b7e638a4cbf2f02089,689b8d61eef9c041c27f2aad,,,,,,,,,,,,,,0,,,,,,,,,,,,,,,,,,,,,,,,,,,,,,,,,,,,,,,,,,,,,,,,,,,,,,,,,70,temblo,,,,,685.9725,687.0392,0,1,0.5349,,0,14,14,69,1,REAL,FAKE,,,,,,,,,,,,,,,,,
,,,,,,,,,672bb5dadc26d7849dc27b55,Spanish,13 or older,"no, only English or Spanish",no,2025-08-12_14h52.42.410,empathy_intonation_perc,2024.2.4,MacIntel,60.0024001,672bb5dadc26d7849dc27b55,687ed1b7e638a4cbf2f02089,689b8d61eef9c041c27f2aad,,,,,,,,,,,,,,1,,,,,,,,,,,,,,,,,,,,,,,,,,,,,,,,,,,,,,,,,,,,,,,,,,,,,,,,,68,alegre,,,,,687.04,688.1892,0,0,0.6291,,0,15,15,67,1,REAL,FAKE,,,,,,,,,,,,,,,,,
,,,,,,,,,672bb5dadc26d7849dc27b55,Spanish,13 or older,"no, only English or Spanish",no,2025-08-12_14h52.42.410,empathy_intonation_perc,2024.2.4,MacIntel,60.0024001,672bb5dadc26d7849dc27b55,687ed1b7e638a4cbf2f02089,689b8d61eef9c041c27f2aad,,,,,,,,,,,,,,1,,,,,,,,,,,,,,,,,,,,,,,,,,,,,,,,,,,,,,,,,,,,,,,,,,,,,,,,,64,orgulloso,,,,,688.1904,689.3214,0,0,0.594,,0,16,16,63,1,REAL,FAKE,,,,,,,,,,,,,,,,,
,,,,,,,,,672bb5dadc26d7849dc27b55,Spanish,13 or older,"no, only English or Spanish",no,2025-08-12_14h52.42.410,empathy_intonation_perc,2024.2.4,MacIntel,60.0024001,672bb5dadc26d7849dc27b55,687ed1b7e638a4cbf2f02089,689b8d61eef9c041c27f2aad,,,,,,,,,,,,,,0,,,,,,,,,,,,,,,,,,,,,,,,,,,,,,,,,,,,,,,,,,,,,,,,,,,,,,,,,92,click the 0 key.,,,,,689.3221,690.6545,0,1,0.8129,,0,17,17,91,1,REAL,FAKE,,,,,,,,,,,,,,,,,
,,,,,,,,,672bb5dadc26d7849dc27b55,Spanish,13 or older,"no, only English or Spanish",no,2025-08-12_14h52.42.410,empathy_intonation_perc,2024.2.4,MacIntel,60.0024001,672bb5dadc26d7849dc27b55,687ed1b7e638a4cbf2f02089,689b8d61eef9c041c27f2aad,,,,,,,,,,,,,,1,,,,,,,,,,,,,,,,,,,,,,,,,,,,,,,,,,,,,,,,,,,,,,,,,,,,,,,,,12,asesinato,,,,,690.6553,691.7559,0,0,0.5648,,0,18,18,11,1,REAL,FAKE,,,,,,,,,,,,,,,,,
,,,,,,,,,672bb5dadc26d7849dc27b55,Spanish,13 or older,"no, only English or Spanish",no,2025-08-12_14h52.42.410,empathy_intonation_perc,2024.2.4,MacIntel,60.0024001,672bb5dadc26d7849dc27b55,687ed1b7e638a4cbf2f02089,689b8d61eef9c041c27f2aad,,,,,,,,,,,,,,1,,,,,,,,,,,,,,,,,,,,,,,,,,,,,,,,,,,,,,,,,,,,,,,,,,,,,,,,,38,estornudar,,,,,691.7569,693.139,0,0,0.8363,,0,19,19,37,1,REAL,FAKE,,,,,,,,,,,,,,,,,
,,,,,,,,,672bb5dadc26d7849dc27b55,Spanish,13 or older,"no, only English or Spanish",no,2025-08-12_14h52.42.410,empathy_intonation_perc,2024.2.4,MacIntel,60.0024001,672bb5dadc26d7849dc27b55,687ed1b7e638a4cbf2f02089,689b8d61eef9c041c27f2aad,,,,,,,,,,,,,,1,,,,,,,,,,,,,,,,,,,,,,,,,,,,,,,,,,,,,,,,,,,,,,,,,,,,,,,,,86,barato,,,,,693.1399,694.3219,0,0,0.6377,,0,20,20,85,1,REAL,FAKE,,,,,,,,,,,,,,,,,
,,,,,,,,,672bb5dadc26d7849dc27b55,Spanish,13 or older,"no, only English or Spanish",no,2025-08-12_14h52.42.410,empathy_intonation_perc,2024.2.4,MacIntel,60.0024001,672bb5dadc26d7849dc27b55,687ed1b7e638a4cbf2f02089,689b8d61eef9c041c27f2aad,,,,,,,,,,,,,,1,,,,,,,,,,,,,,,,,,,,,,,,,,,,,,,,,,,,,,,,,,,,,,,,,,,,,,,,,45,jilguero,,,,,694.323,695.374,0,0,0.5296,,0,21,21,44,1,REAL,FAKE,,,,,,,,,,,,,,,,,
,,,,,,,,,672bb5dadc26d7849dc27b55,Spanish,13 or older,"no, only English or Spanish",no,2025-08-12_14h52.42.410,empathy_intonation_perc,2024.2.4,MacIntel,60.0024001,672bb5dadc26d7849dc27b55,687ed1b7e638a4cbf2f02089,689b8d61eef9c041c27f2aad,,,,,,,,,,,,,,1,,,,,,,,,,,,,,,,,,,,,,,,,,,,,,,,,,,,,,,,,,,,,,,,,,,,,,,,,89,prisa,,,,,695.3748,696.5726,0,0,0.6526,,0,22,22,88,1,REAL,FAKE,,,,,,,,,,,,,,,,,
,,,,,,,,,672bb5dadc26d7849dc27b55,Spanish,13 or older,"no, only English or Spanish",no,2025-08-12_14h52.42.410,empathy_intonation_perc,2024.2.4,MacIntel,60.0024001,672bb5dadc26d7849dc27b55,687ed1b7e638a4cbf2f02089,689b8d61eef9c041c27f2aad,,,,,,,,,,,,,,0,,,,,,,,,,,,,,,,,,,,,,,,,,,,,,,,,,,,,,,,,,,,,,,,,,,,,,,,,18,arsa,,,,,696.5734,698.0234,1,0,0.9124,,0,23,23,17,1,REAL,FAKE,,,,,,,,,,,,,,,,,
,,,,,,,,,672bb5dadc26d7849dc27b55,Spanish,13 or older,"no, only English or Spanish",no,2025-08-12_14h52.42.410,empathy_intonation_perc,2024.2.4,MacIntel,60.0024001,672bb5dadc26d7849dc27b55,687ed1b7e638a4cbf2f02089,689b8d61eef9c041c27f2aad,,,,,,,,,,,,,,1,,,,,,,,,,,,,,,,,,,,,,,,,,,,,,,,,,,,,,,,,,,,,,,,,,,,,,,,,59,besar,,,,,698.0243,699.4045,1,1,0.8492,,0,24,24,58,1,REAL,FAKE,,,,,,,,,,,,,,,,,
,,,,,,,,,672bb5dadc26d7849dc27b55,Spanish,13 or older,"no, only English or Spanish",no,2025-08-12_14h52.42.410,empathy_intonation_perc,2024.2.4,MacIntel,60.0024001,672bb5dadc26d7849dc27b55,687ed1b7e638a4cbf2f02089,689b8d61eef9c041c27f2aad,,,,,,,,,,,,,,1,,,,,,,,,,,,,,,,,,,,,,,,,,,,,,,,,,,,,,,,,,,,,,,,,,,,,,,,,46,martillo,,,,,699.4055,700.6712,1,1,0.7528,,0,25,25,45,1,REAL,FAKE,,,,,,,,,,,,,,,,,
,,,,,,,,,672bb5dadc26d7849dc27b55,Spanish,13 or older,"no, only English or Spanish",no,2025-08-12_14h52.42.410,empathy_intonation_perc,2024.2.4,MacIntel,60.0024001,672bb5dadc26d7849dc27b55,687ed1b7e638a4cbf2f02089,689b8d61eef9c041c27f2aad,,,,,,,,,,,,,,0,,,,,,,,,,,,,,,,,,,,,,,,,,,,,,,,,,,,,,,,,,,,,,,,,,,,,,,,,30,alardio,,,,,700.672,701.9563,0,1,0.7715,,0,26,26,29,1,REAL,FAKE,,,,,,,,,,,,,,,,,
,,,,,,,,,672bb5dadc26d7849dc27b55,Spanish,13 or older,"no, only English or Spanish",no,2025-08-12_14h52.42.410,empathy_intonation_perc,2024.2.4,MacIntel,60.0024001,672bb5dadc26d7849dc27b55,687ed1b7e638a4cbf2f02089,689b8d61eef9c041c27f2aad,,,,,,,,,,,,,,1,,,,,,,,,,,,,,,,,,,,,,,,,,,,,,,,,,,,,,,,,,,,,,,,,,,,,,,,,44,cuchara,,,,,701.9575,703.0388,0,0,0.5467,,0,27,27,43,1,REAL,FAKE,,,,,,,,,,,,,,,,,
,,,,,,,,,672bb5dadc26d7849dc27b55,Spanish,13 or older,"no, only English or Spanish",no,2025-08-12_14h52.42.410,empathy_intonation_perc,2024.2.4,MacIntel,60.0024001,672bb5dadc26d7849dc27b55,687ed1b7e638a4cbf2f02089,689b8d61eef9c041c27f2aad,,,,,,,,,,,,,,1,,,,,,,,,,,,,,,,,,,,,,,,,,,,,,,,,,,,,,,,,,,,,,,,,,,,,,,,,85,laúd,,,,,703.04,704.1728,0,0,0.6081,,0,28,28,84,1,REAL,FAKE,,,,,,,,,,,,,,,,,
,,,,,,,,,672bb5dadc26d7849dc27b55,Spanish,13 or older,"no, only English or Spanish",no,2025-08-12_14h52.42.410,empathy_intonation_perc,2024.2.4,MacIntel,60.0024001,672bb5dadc26d7849dc27b55,687ed1b7e638a4cbf2f02089,689b8d61eef9c041c27f2aad,,,,,,,,,,,,,,1,,,,,,,,,,,,,,,,,,,,,,,,,,,,,,,,,,,,,,,,,,,,,,,,,,,,,,,,,5,zapato,,,,,704.1742,705.3897,1,1,0.6884,,0,29,29,4,1,REAL,FAKE,,,,,,,,,,,,,,,,,
,,,,,,,,,672bb5dadc26d7849dc27b55,Spanish,13 or older,"no, only English or Spanish",no,2025-08-12_14h52.42.410,empathy_intonation_perc,2024.2.4,MacIntel,60.0024001,672bb5dadc26d7849dc27b55,687ed1b7e638a4cbf2f02089,689b8d61eef9c041c27f2aad,,,,,,,,,,,,,,0,,,,,,,,,,,,,,,,,,,,,,,,,,,,,,,,,,,,,,,,,,,,,,,,,,,,,,,,,17,floroso,,,,,705.3904,706.7556,0,1,0.827,,0,30,30,16,1,REAL,FAKE,,,,,,,,,,,,,,,,,
,,,,,,,,,672bb5dadc26d7849dc27b55,Spanish,13 or older,"no, only English or Spanish",no,2025-08-12_14h52.42.410,empathy_intonation_perc,2024.2.4,MacIntel,60.0024001,672bb5dadc26d7849dc27b55,687ed1b7e638a4cbf2f02089,689b8d61eef9c041c27f2aad,,,,,,,,,,,,,,0,,,,,,,,,,,,,,,,,,,,,,,,,,,,,,,,,,,,,,,,,,,,,,,,,,,,,,,,,23,lampera,,,,,706.7564,707.8718,1,0,0.6024,,0,31,31,22,1,REAL,FAKE,,,,,,,,,,,,,,,,,
,,,,,,,,,672bb5dadc26d7849dc27b55,Spanish,13 or older,"no, only English or Spanish",no,2025-08-12_14h52.42.410,empathy_intonation_perc,2024.2.4,MacIntel,60.0024001,672bb5dadc26d7849dc27b55,687ed1b7e638a4cbf2f02089,689b8d61eef9c041c27f2aad,,,,,,,,,,,,,,1,,,,,,,,,,,,,,,,,,,,,,,,,,,,,,,,,,,,,,,,,,,,,,,,,,,,,,,,,52,camisa,,,,,707.8725,709.0055,1,1,0.6103,,0,32,32,51,1,REAL,FAKE,,,,,,,,,,,,,,,,,
,,,,,,,,,672bb5dadc26d7849dc27b55,Spanish,13 or older,"no, only English or Spanish",no,2025-08-12_14h52.42.410,empathy_intonation_perc,2024.2.4,MacIntel,60.0024001,672bb5dadc26d7849dc27b55,687ed1b7e638a4cbf2f02089,689b8d61eef9c041c27f2aad,,,,,,,,,,,,,,1,,,,,,,,,,,,,,,,,,,,,,,,,,,,,,,,,,,,,,,,,,,,,,,,,,,,,,,,,91,click the 1 key.,,,,,709.0061,710.2063,1,1,0.6696,,0,33,33,90,1,REAL,FAKE,,,,,,,,,,,,,,,,,
,,,,,,,,,672bb5dadc26d7849dc27b55,Spanish,13 or older,"no, only English or Spanish",no,2025-08-12_14h52.42.410,empathy_intonation_perc,2024.2.4,MacIntel,60.0024001,672bb5dadc26d7849dc27b55,687ed1b7e638a4cbf2f02089,689b8d61eef9c041c27f2aad,,,,,,,,,,,,,,1,,,,,,,,,,,,,,,,,,,,,,,,,,,,,,,,,,,,,,,,,,,,,,,,,,,,,,,,,90,clavel,,,,,710.207,711.9048,0,0,1.1655,,0,34,34,89,1,REAL,FAKE,,,,,,,,,,,,,,,,,
,,,,,,,,,672bb5dadc26d7849dc27b55,Spanish,13 or older,"no, only English or Spanish",no,2025-08-12_14h52.42.410,empathy_intonation_perc,2024.2.4,MacIntel,60.0024001,672bb5dadc26d7849dc27b55,687ed1b7e638a4cbf2f02089,689b8d61eef9c041c27f2aad,,,,,,,,,,,,,,0,,,,,,,,,,,,,,,,,,,,,,,,,,,,,,,,,,,,,,,,,,,,,,,,,,,,,,,,,63,esposante,,,,,711.9055,713.3386,1,0,0.9046,,0,35,35,62,1,REAL,FAKE,,,,,,,,,,,,,,,,,
,,,,,,,,,672bb5dadc26d7849dc27b55,Spanish,13 or older,"no, only English or Spanish",no,2025-08-12_14h52.42.410,empathy_intonation_perc,2024.2.4,MacIntel,60.0024001,672bb5dadc26d7849dc27b55,687ed1b7e638a4cbf2f02089,689b8d61eef9c041c27f2aad,,,,,,,,,,,,,,1,,,,,,,,,,,,,,,,,,,,,,,,,,,,,,,,,,,,,,,,,,,,,,,,,,,,,,,,,65,bizcocho,,,,,713.3403,714.5226,0,0,0.6473,,0,36,36,64,1,REAL,FAKE,,,,,,,,,,,,,,,,,
,,,,,,,,,672bb5dadc26d7849dc27b55,Spanish,13 or older,"no, only English or Spanish",no,2025-08-12_14h52.42.410,empathy_intonation_perc,2024.2.4,MacIntel,60.0024001,672bb5dadc26d7849dc27b55,687ed1b7e638a4cbf2f02089,689b8d61eef9c041c27f2aad,,,,,,,,,,,,,,1,,,,,,,,,,,,,,,,,,,,,,,,,,,,,,,,,,,,,,,,,,,,,,,,,,,,,,,,,60,matar,,,,,714.5238,715.6731,0,0,0.6252,,0,37,37,59,1,REAL,FAKE,,,,,,,,,,,,,,,,,
,,,,,,,,,672bb5dadc26d7849dc27b55,Spanish,13 or older,"no, only English or Spanish",no,2025-08-12_14h52.42.410,empathy_intonation_perc,2024.2.4,MacIntel,60.0024001,672bb5dadc26d7849dc27b55,687ed1b7e638a4cbf2f02089,689b8d61eef9c041c27f2aad,,,,,,,,,,,,,,0,,,,,,,,,,,,,,,,,,,,,,,,,,,,,,,,,,,,,,,,,,,,,,,,,,,,,,,,,29,decar,,,,,715.6738,716.8875,1,0,0.6791,,0,38,38,28,1,REAL,FAKE,,,,,,,,,,,,,,,,,
,,,,,,,,,672bb5dadc26d7849dc27b55,Spanish,13 or older,"no, only English or Spanish",no,2025-08-12_14h52.42.410,empathy_intonation_perc,2024.2.4,MacIntel,60.0024001,672bb5dadc26d7849dc27b55,687ed1b7e638a4cbf2f02089,689b8d61eef9c041c27f2aad,,,,,,,,,,,,,,1,,,,,,,,,,,,,,,,,,,,,,,,,,,,,,,,,,,,,,,,,,,,,,,,,,,,,,,,,25,bisagra,,,,,716.8886,722.3555,0,0,4.9371,,0,39,39,24,1,REAL,FAKE,,,,,,,,,,,,,,,,,
,,,,,,,,,672bb5dadc26d7849dc27b55,Spanish,13 or older,"no, only English or Spanish",no,2025-08-12_14h52.42.410,empathy_intonation_perc,2024.2.4,MacIntel,60.0024001,672bb5dadc26d7849dc27b55,687ed1b7e638a4cbf2f02089,689b8d61eef9c041c27f2aad,,,,,,,,,,,,,,1,,,,,,,,,,,,,,,,,,,,,,,,,,,,,,,,,,,,,,,,,,,,,,,,,,,,,,,,,80,hormiga,,,,,722.3576,723.3562,0,0,0.4597,,0,40,40,79,1,REAL,FAKE,,,,,,,,,,,,,,,,,
,,,,,,,,,672bb5dadc26d7849dc27b55,Spanish,13 or older,"no, only English or Spanish",no,2025-08-12_14h52.42.410,empathy_intonation_perc,2024.2.4,MacIntel,60.0024001,672bb5dadc26d7849dc27b55,687ed1b7e638a4cbf2f02089,689b8d61eef9c041c27f2aad,,,,,,,,,,,,,,0,,,,,,,,,,,,,,,,,,,,,,,,,,,,,,,,,,,,,,,,,,,,,,,,,,,,,,,,,35,rompido,,,,,723.357,724.3724,1,0,0.487,,0,41,41,34,1,REAL,FAKE,,,,,,,,,,,,,,,,,
,,,,,,,,,672bb5dadc26d7849dc27b55,Spanish,13 or older,"no, only English or Spanish",no,2025-08-12_14h52.42.410,empathy_intonation_perc,2024.2.4,MacIntel,60.0024001,672bb5dadc26d7849dc27b55,687ed1b7e638a4cbf2f02089,689b8d61eef9c041c27f2aad,,,,,,,,,,,,,,0,,,,,,,,,,,,,,,,,,,,,,,,,,,,,,,,,,,,,,,,,,,,,,,,,,,,,,,,,16,abracer,,,,,724.3739,728.9724,0,1,4.0706,,0,42,42,15,1,REAL,FAKE,,,,,,,,,,,,,,,,,
,,,,,,,,,672bb5dadc26d7849dc27b55,Spanish,13 or older,"no, only English or Spanish",no,2025-08-12_14h52.42.410,empathy_intonation_perc,2024.2.4,MacIntel,60.0024001,672bb5dadc26d7849dc27b55,687ed1b7e638a4cbf2f02089,689b8d61eef9c041c27f2aad,,,,,,,,,,,,,,1,,,,,,,,,,,,,,,,,,,,,,,,,,,,,,,,,,,,,,,,,,,,,,,,,,,,,,,,,54,fomentar,,,,,728.9734,730.1404,0,0,0.6487,,0,43,43,53,1,REAL,FAKE,,,,,,,,,,,,,,,,,
,,,,,,,,,672bb5dadc26d7849dc27b55,Spanish,13 or older,"no, only English or Spanish",no,2025-08-12_14h52.42.410,empathy_intonation_perc,2024.2.4,MacIntel,60.0024001,672bb5dadc26d7849dc27b55,687ed1b7e638a4cbf2f02089,689b8d61eef9c041c27f2aad,,,,,,,,,,,,,,1,,,,,,,,,,,,,,,,,,,,,,,,,,,,,,,,,,,,,,,,,,,,,,,,,,,,,,,,,36,loro,,,,,730.1421,731.4707,1,1,0.8142,,0,44,44,35,1,REAL,FAKE,,,,,,,,,,,,,,,,,
,,,,,,,,,672bb5dadc26d7849dc27b55,Spanish,13 or older,"no, only English or Spanish",no,2025-08-12_14h52.42.410,empathy_intonation_perc,2024.2.4,MacIntel,60.0024001,672bb5dadc26d7849dc27b55,687ed1b7e638a4cbf2f02089,689b8d61eef9c041c27f2aad,,,,,,,,,,,,,,1,,,,,,,,,,,,,,,,,,,,,,,,,,,,,,,,,,,,,,,,,,,,,,,,,,,,,,,,,71,polvoriento,,,,,731.4712,733.0735,0,0,1.0642,,0,45,45,70,1,REAL,FAKE,,,,,,,,,,,,,,,,,
,,,,,,,,,672bb5dadc26d7849dc27b55,Spanish,13 or older,"no, only English or Spanish",no,2025-08-12_14h52.42.410,empathy_intonation_perc,2024.2.4,MacIntel,60.0024001,672bb5dadc26d7849dc27b55,687ed1b7e638a4cbf2f02089,689b8d61eef9c041c27f2aad,,,,,,,,,,,,,,1,,,,,,,,,,,,,,,,,,,,,,,,,,,,,,,,,,,,,,,,,,,,,,,,,,,,,,,,,51,candado,,,,,733.0743,734.6877,0,0,1.0668,,0,46,46,50,1,REAL,FAKE,,,,,,,,,,,,,,,,,
,,,,,,,,,672bb5dadc26d7849dc27b55,Spanish,13 or older,"no, only English or Spanish",no,2025-08-12_14h52.42.410,empathy_intonation_perc,2024.2.4,MacIntel,60.0024001,672bb5dadc26d7849dc27b55,687ed1b7e638a4cbf2f02089,689b8d61eef9c041c27f2aad,,,,,,,,,,,,,,1,,,,,,,,,,,,,,,,,,,,,,,,,,,,,,,,,,,,,,,,,,,,,,,,,,,,,,,,,78,frondoso,,,,,734.6887,736.0562,0,0,0.8353,,0,47,47,77,1,REAL,FAKE,,,,,,,,,,,,,,,,,
,,,,,,,,,672bb5dadc26d7849dc27b55,Spanish,13 or older,"no, only English or Spanish",no,2025-08-12_14h52.42.410,empathy_intonation_perc,2024.2.4,MacIntel,60.0024001,672bb5dadc26d7849dc27b55,687ed1b7e638a4cbf2f02089,689b8d61eef9c041c27f2aad,,,,,,,,,,,,,,1,,,,,,,,,,,,,,,,,,,,,,,,,,,,,,,,,,,,,,,,,,,,,,,,,,,,,,,,,13,helar,,,,,736.0571,737.5129,1,1,0.9249,,0,48,48,12,1,REAL,FAKE,,,,,,,,,,,,,,,,,
,,,,,,,,,672bb5dadc26d7849dc27b55,Spanish,13 or older,"no, only English or Spanish",no,2025-08-12_14h52.42.410,empathy_intonation_perc,2024.2.4,MacIntel,60.0024001,672bb5dadc26d7849dc27b55,687ed1b7e638a4cbf2f02089,689b8d61eef9c041c27f2aad,,,,,,,,,,,,,,1,,,,,,,,,,,,,,,,,,,,,,,,,,,,,,,,,,,,,,,,,,,,,,,,,,,,,,,,,11,cenefa,,,,,737.5137,738.611,0,0,0.5731,,0,49,49,10,1,REAL,FAKE,,,,,,,,,,,,,,,,,
,,,,,,,,,672bb5dadc26d7849dc27b55,Spanish,13 or older,"no, only English or Spanish",no,2025-08-12_14h52.42.410,empathy_intonation_perc,2024.2.4,MacIntel,60.0024001,672bb5dadc26d7849dc27b55,687ed1b7e638a4cbf2f02089,689b8d61eef9c041c27f2aad,,,,,,,,,,,,,,1,,,,,,,,,,,,,,,,,,,,,,,,,,,,,,,,,,,,,,,,,,,,,,,,,,,,,,,,,88,acantilado,,,,,738.6118,739.7232,0,0,0.5872,,0,50,50,87,1,REAL,FAKE,,,,,,,,,,,,,,,,,
,,,,,,,,,672bb5dadc26d7849dc27b55,Spanish,13 or older,"no, only English or Spanish",no,2025-08-12_14h52.42.410,empathy_intonation_perc,2024.2.4,MacIntel,60.0024001,672bb5dadc26d7849dc27b55,687ed1b7e638a4cbf2f02089,689b8d61eef9c041c27f2aad,,,,,,,,,,,,,,1,,,,,,,,,,,,,,,,,,,,,,,,,,,,,,,,,,,,,,,,,,,,,,,,,,,,,,,,,22,lacayo,,,,,739.724,741.1898,1,1,0.9367,,0,51,51,21,1,REAL,FAKE,,,,,,,,,,,,,,,,,
,,,,,,,,,672bb5dadc26d7849dc27b55,Spanish,13 or older,"no, only English or Spanish",no,2025-08-12_14h52.42.410,empathy_intonation_perc,2024.2.4,MacIntel,60.0024001,672bb5dadc26d7849dc27b55,687ed1b7e638a4cbf2f02089,689b8d61eef9c041c27f2aad,,,,,,,,,,,,,,1,,,,,,,,,,,,,,,,,,,,,,,,,,,,,,,,,,,,,,,,,,,,,,,,,,,,,,,,,14,yunque,,,,,741.1908,742.2587,0,0,0.5327,,0,52,52,13,1,REAL,FAKE,,,,,,,,,,,,,,,,,
,,,,,,,,,672bb5dadc26d7849dc27b55,Spanish,13 or older,"no, only English or Spanish",no,2025-08-12_14h52.42.410,empathy_intonation_perc,2024.2.4,MacIntel,60.0024001,672bb5dadc26d7849dc27b55,687ed1b7e638a4cbf2f02089,689b8d61eef9c041c27f2aad,,,,,,,,,,,,,,1,,,,,,,,,,,,,,,,,,,,,,,,,,,,,,,,,,,,,,,,,,,,,,,,,,,,,,,,,62,flaco,,,,,742.2595,743.5067,0,0,0.7105,,0,53,53,61,1,REAL,FAKE,,,,,,,,,,,,,,,,,
,,,,,,,,,672bb5dadc26d7849dc27b55,Spanish,13 or older,"no, only English or Spanish",no,2025-08-12_14h52.42.410,empathy_intonation_perc,2024.2.4,MacIntel,60.0024001,672bb5dadc26d7849dc27b55,687ed1b7e638a4cbf2f02089,689b8d61eef9c041c27f2aad,,,,,,,,,,,,,,1,,,,,,,,,,,,,,,,,,,,,,,,,,,,,,,,,,,,,,,,,,,,,,,,,,,,,,,,,76,atar,,,,,743.5085,744.8543,0,0,0.812,,0,54,54,75,1,REAL,FAKE,,,,,,,,,,,,,,,,,
,,,,,,,,,672bb5dadc26d7849dc27b55,Spanish,13 or older,"no, only English or Spanish",no,2025-08-12_14h52.42.410,empathy_intonation_perc,2024.2.4,MacIntel,60.0024001,672bb5dadc26d7849dc27b55,687ed1b7e638a4cbf2f02089,689b8d61eef9c041c27f2aad,,,,,,,,,,,,,,1,,,,,,,,,,,,,,,,,,,,,,,,,,,,,,,,,,,,,,,,,,,,,,,,,,,,,,,,,6,tergiversar,,,,,744.8549,745.9375,0,0,0.5464,,0,55,55,5,1,REAL,FAKE,,,,,,,,,,,,,,,,,
,,,,,,,,,672bb5dadc26d7849dc27b55,Spanish,13 or older,"no, only English or Spanish",no,2025-08-12_14h52.42.410,empathy_intonation_perc,2024.2.4,MacIntel,60.0024001,672bb5dadc26d7849dc27b55,687ed1b7e638a4cbf2f02089,689b8d61eef9c041c27f2aad,,,,,,,,,,,,,,1,,,,,,,,,,,,,,,,,,,,,,,,,,,,,,,,,,,,,,,,,,,,,,,,,,,,,,,,,77,tiburón,,,,,745.9386,747.0232,0,0,0.5449,,0,56,56,76,1,REAL,FAKE,,,,,,,,,,,,,,,,,
,,,,,,,,,672bb5dadc26d7849dc27b55,Spanish,13 or older,"no, only English or Spanish",no,2025-08-12_14h52.42.410,empathy_intonation_perc,2024.2.4,MacIntel,60.0024001,672bb5dadc26d7849dc27b55,687ed1b7e638a4cbf2f02089,689b8d61eef9c041c27f2aad,,,,,,,,,,,,,,1,,,,,,,,,,,,,,,,,,,,,,,,,,,,,,,,,,,,,,,,,,,,,,,,,,,,,,,,,49,ganar,,,,,747.0241,748.1381,1,1,0.5871,,0,57,57,48,1,REAL,FAKE,,,,,,,,,,,,,,,,,
,,,,,,,,,672bb5dadc26d7849dc27b55,Spanish,13 or older,"no, only English or Spanish",no,2025-08-12_14h52.42.410,empathy_intonation_perc,2024.2.4,MacIntel,60.0024001,672bb5dadc26d7849dc27b55,687ed1b7e638a4cbf2f02089,689b8d61eef9c041c27f2aad,,,,,,,,,,,,,,1,,,,,,,,,,,,,,,,,,,,,,,,,,,,,,,,,,,,,,,,,,,,,,,,,,,,,,,,,34,aviso,,,,,748.1389,749.3731,0,0,0.6897,,0,58,58,33,1,REAL,FAKE,,,,,,,,,,,,,,,,,
,,,,,,,,,672bb5dadc26d7849dc27b55,Spanish,13 or older,"no, only English or Spanish",no,2025-08-12_14h52.42.410,empathy_intonation_perc,2024.2.4,MacIntel,60.0024001,672bb5dadc26d7849dc27b55,687ed1b7e638a4cbf2f02089,689b8d61eef9c041c27f2aad,,,,,,,,,,,,,,0,,,,,,,,,,,,,,,,,,,,,,,,,,,,,,,,,,,,,,,,,,,,,,,,,,,,,,,,,27,acutación,,,,,749.3747,750.3715,0,1,0.4553,,0,59,59,26,1,REAL,FAKE,,,,,,,,,,,,,,,,,
,,,,,,,,,672bb5dadc26d7849dc27b55,Spanish,13 or older,"no, only English or Spanish",no,2025-08-12_14h52.42.410,empathy_intonation_perc,2024.2.4,MacIntel,60.0024001,672bb5dadc26d7849dc27b55,687ed1b7e638a4cbf2f02089,689b8d61eef9c041c27f2aad,,,,,,,,,,,,,,0,,,,,,,,,,,,,,,,,,,,,,,,,,,,,,,,,,,,,,,,,,,,,,,,,,,,,,,,,66,hacido,,,,,750.3726,751.6229,1,0,0.727,,0,60,60,65,1,REAL,FAKE,,,,,,,,,,,,,,,,,
,,,,,,,,,672bb5dadc26d7849dc27b55,Spanish,13 or older,"no, only English or Spanish",no,2025-08-12_14h52.42.410,empathy_intonation_perc,2024.2.4,MacIntel,60.0024001,672bb5dadc26d7849dc27b55,687ed1b7e638a4cbf2f02089,689b8d61eef9c041c27f2aad,,,,,,,,,,,,,,1,,,,,,,,,,,,,,,,,,,,,,,,,,,,,,,,,,,,,,,,,,,,,,,,,,,,,,,,,67,cabello,,,,,751.6236,752.8713,0,0,0.7091,,0,61,61,66,1,REAL,FAKE,,,,,,,,,,,,,,,,,
,,,,,,,,,672bb5dadc26d7849dc27b55,Spanish,13 or older,"no, only English or Spanish",no,2025-08-12_14h52.42.410,empathy_intonation_perc,2024.2.4,MacIntel,60.0024001,672bb5dadc26d7849dc27b55,687ed1b7e638a4cbf2f02089,689b8d61eef9c041c27f2aad,,,,,,,,,,,,,,1,,,,,,,,,,,,,,,,,,,,,,,,,,,,,,,,,,,,,,,,,,,,,,,,,,,,,,,,,83,guante,,,,,752.8723,754.1567,0,0,0.7615,,0,62,62,82,1,REAL,FAKE,,,,,,,,,,,,,,,,,
,,,,,,,,,672bb5dadc26d7849dc27b55,Spanish,13 or older,"no, only English or Spanish",no,2025-08-12_14h52.42.410,empathy_intonation_perc,2024.2.4,MacIntel,60.0024001,672bb5dadc26d7849dc27b55,687ed1b7e638a4cbf2f02089,689b8d61eef9c041c27f2aad,,,,,,,,,,,,,,1,,,,,,,,,,,,,,,,,,,,,,,,,,,,,,,,,,,,,,,,,,,,,,,,,,,,,,,,,2,pellizcar,,,,,754.1576,755.706,1,1,1.0075,,0,63,63,1,1,REAL,FAKE,,,,,,,,,,,,,,,,,
,,,,,,,,,672bb5dadc26d7849dc27b55,Spanish,13 or older,"no, only English or Spanish",no,2025-08-12_14h52.42.410,empathy_intonation_perc,2024.2.4,MacIntel,60.0024001,672bb5dadc26d7849dc27b55,687ed1b7e638a4cbf2f02089,689b8d61eef9c041c27f2aad,,,,,,,,,,,,,,1,,,,,,,,,,,,,,,,,,,,,,,,,,,,,,,,,,,,,,,,,,,,,,,,,,,,,,,,,48,ladrón,,,,,755.7068,756.9722,0,0,0.7198,,0,64,64,47,1,REAL,FAKE,,,,,,,,,,,,,,,,,
,,,,,,,,,672bb5dadc26d7849dc27b55,Spanish,13 or older,"no, only English or Spanish",no,2025-08-12_14h52.42.410,empathy_intonation_perc,2024.2.4,MacIntel,60.0024001,672bb5dadc26d7849dc27b55,687ed1b7e638a4cbf2f02089,689b8d61eef9c041c27f2aad,,,,,,,,,,,,,,0,,,,,,,,,,,,,,,,,,,,,,,,,,,,,,,,,,,,,,,,,,,,,,,,,,,,,,,,,8,cadeña,,,,,756.9732,758.4546,0,1,0.9355,,0,65,65,7,1,REAL,FAKE,,,,,,,,,,,,,,,,,
,,,,,,,,,672bb5dadc26d7849dc27b55,Spanish,13 or older,"no, only English or Spanish",no,2025-08-12_14h52.42.410,empathy_intonation_perc,2024.2.4,MacIntel,60.0024001,672bb5dadc26d7849dc27b55,687ed1b7e638a4cbf2f02089,689b8d61eef9c041c27f2aad,,,,,,,,,,,,,,0,,,,,,,,,,,,,,,,,,,,,,,,,,,,,,,,,,,,,,,,,,,,,,,,,,,,,,,,,1,terzo,,,,,758.4557,759.5213,0,1,0.5422,,0,66,66,0,1,REAL,FAKE,,,,,,,,,,,,,,,,,
,,,,,,,,,672bb5dadc26d7849dc27b55,Spanish,13 or older,"no, only English or Spanish",no,2025-08-12_14h52.42.410,empathy_intonation_perc,2024.2.4,MacIntel,60.0024001,672bb5dadc26d7849dc27b55,687ed1b7e638a4cbf2f02089,689b8d61eef9c041c27f2aad,,,,,,,,,,,,,,1,,,,,,,,,,,,,,,,,,,,,,,,,,,,,,,,,,,,,,,,,,,,,,,,,,,,,,,,,28,merodear,,,,,759.5221,760.5922,0,0,0.5531,,0,67,67,27,1,REAL,FAKE,,,,,,,,,,,,,,,,,
,,,,,,,,,672bb5dadc26d7849dc27b55,Spanish,13 or older,"no, only English or Spanish",no,2025-08-12_14h52.42.410,empathy_intonation_perc,2024.2.4,MacIntel,60.0024001,672bb5dadc26d7849dc27b55,687ed1b7e638a4cbf2f02089,689b8d61eef9c041c27f2aad,,,,,,,,,,,,,,1,,,,,,,,,,,,,,,,,,,,,,,,,,,,,,,,,,,,,,,,,,,,,,,,,,,,,,,,,31,pandilla,,,,,760.5929,762.0211,1,1,0.8929,,0,68,68,30,1,REAL,FAKE,,,,,,,,,,,,,,,,,
,,,,,,,,,672bb5dadc26d7849dc27b55,Spanish,13 or older,"no, only English or Spanish",no,2025-08-12_14h52.42.410,empathy_intonation_perc,2024.2.4,MacIntel,60.0024001,672bb5dadc26d7849dc27b55,687ed1b7e638a4cbf2f02089,689b8d61eef9c041c27f2aad,,,,,,,,,,,,,,1,,,,,,,,,,,,,,,,,,,,,,,,,,,,,,,,,,,,,,,,,,,,,,,,,,,,,,,,,24,látigo,,,,,762.0221,763.0738,0,0,0.526,,0,69,69,23,1,REAL,FAKE,,,,,,,,,,,,,,,,,
,,,,,,,,,672bb5dadc26d7849dc27b55,Spanish,13 or older,"no, only English or Spanish",no,2025-08-12_14h52.42.410,empathy_intonation_perc,2024.2.4,MacIntel,60.0024001,672bb5dadc26d7849dc27b55,687ed1b7e638a4cbf2f02089,689b8d61eef9c041c27f2aad,,,,,,,,,,,,,,1,,,,,,,,,,,,,,,,,,,,,,,,,,,,,,,,,,,,,,,,,,,,,,,,,,,,,,,,,40,alfombra,,,,,763.0756,764.3213,0,0,0.7097,,0,70,70,39,1,REAL,FAKE,,,,,,,,,,,,,,,,,
,,,,,,,,,672bb5dadc26d7849dc27b55,Spanish,13 or older,"no, only English or Spanish",no,2025-08-12_14h52.42.410,empathy_intonation_perc,2024.2.4,MacIntel,60.0024001,672bb5dadc26d7849dc27b55,687ed1b7e638a4cbf2f02089,689b8d61eef9c041c27f2aad,,,,,,,,,,,,,,1,,,,,,,,,,,,,,,,,,,,,,,,,,,,,,,,,,,,,,,,,,,,,,,,,,,,,,,,,7,pésimo,,,,,764.3221,765.6391,1,1,0.7982,,0,71,71,6,1,REAL,FAKE,,,,,,,,,,,,,,,,,
,,,,,,,,,672bb5dadc26d7849dc27b55,Spanish,13 or older,"no, only English or Spanish",no,2025-08-12_14h52.42.410,empathy_intonation_perc,2024.2.4,MacIntel,60.0024001,672bb5dadc26d7849dc27b55,687ed1b7e638a4cbf2f02089,689b8d61eef9c041c27f2aad,,,,,,,,,,,,,,1,,,,,,,,,,,,,,,,,,,,,,,,,,,,,,,,,,,,,,,,,,,,,,,,,,,,,,,,,55,nevar,,,,,765.6408,767.1443,1,1,0.9701,,0,72,72,54,1,REAL,FAKE,,,,,,,,,,,,,,,,,
,,,,,,,,,672bb5dadc26d7849dc27b55,Spanish,13 or older,"no, only English or Spanish",no,2025-08-12_14h52.42.410,empathy_intonation_perc,2024.2.4,MacIntel,60.0024001,672bb5dadc26d7849dc27b55,687ed1b7e638a4cbf2f02089,689b8d61eef9c041c27f2aad,,,,,,,,,,,,,,1,,,,,,,,,,,,,,,,,,,,,,,,,,,,,,,,,,,,,,,,,,,,,,,,,,,,,,,,,43,canela,,,,,767.1451,768.5543,1,1,0.8685,,0,73,73,42,1,REAL,FAKE,,,,,,,,,,,,,,,,,
,,,,,,,,,672bb5dadc26d7849dc27b55,Spanish,13 or older,"no, only English or Spanish",no,2025-08-12_14h52.42.410,empathy_intonation_perc,2024.2.4,MacIntel,60.0024001,672bb5dadc26d7849dc27b55,687ed1b7e638a4cbf2f02089,689b8d61eef9c041c27f2aad,,,,,,,,,,,,,,1,,,,,,,,,,,,,,,,,,,,,,,,,,,,,,,,,,,,,,,,,,,,,,,,,,,,,,,,,56,musgo,,,,,768.5553,772.1059,0,0,3.0382,,0,74,74,55,1,REAL,FAKE,,,,,,,,,,,,,,,,,
,,,,,,,,,672bb5dadc26d7849dc27b55,Spanish,13 or older,"no, only English or Spanish",no,2025-08-12_14h52.42.410,empathy_intonation_perc,2024.2.4,MacIntel,60.0024001,672bb5dadc26d7849dc27b55,687ed1b7e638a4cbf2f02089,689b8d61eef9c041c27f2aad,,,,,,,,,,,,,,0,,,,,,,,,,,,,,,,,,,,,,,,,,,,,,,,,,,,,,,,,,,,,,,,,,,,,,,,,4,batillón,,,,,772.1069,773.9873,1,0,1.3429,,0,75,75,3,1,REAL,FAKE,,,,,,,,,,,,,,,,,
,,,,,,,,,672bb5dadc26d7849dc27b55,Spanish,13 or older,"no, only English or Spanish",no,2025-08-12_14h52.42.410,empathy_intonation_perc,2024.2.4,MacIntel,60.0024001,672bb5dadc26d7849dc27b55,687ed1b7e638a4cbf2f02089,689b8d61eef9c041c27f2aad,,,,,,,,,,,,,,1,,,,,,,,,,,,,,,,,,,,,,,,,,,,,,,,,,,,,,,,,,,,,,,,,,,,,,,,,41,rebuscar,,,,,773.9879,775.3231,1,1,0.8025,,0,76,76,40,1,REAL,FAKE,,,,,,,,,,,,,,,,,
,,,,,,,,,672bb5dadc26d7849dc27b55,Spanish,13 or older,"no, only English or Spanish",no,2025-08-12_14h52.42.410,empathy_intonation_perc,2024.2.4,MacIntel,60.0024001,672bb5dadc26d7849dc27b55,687ed1b7e638a4cbf2f02089,689b8d61eef9c041c27f2aad,,,,,,,,,,,,,,1,,,,,,,,,,,,,,,,,,,,,,,,,,,,,,,,,,,,,,,,,,,,,,,,,,,,,,,,,26,secuestro,,,,,775.3239,776.6146,1,1,0.7632,,0,77,77,25,1,REAL,FAKE,,,,,,,,,,,,,,,,,
,,,,,,,,,672bb5dadc26d7849dc27b55,Spanish,13 or older,"no, only English or Spanish",no,2025-08-12_14h52.42.410,empathy_intonation_perc,2024.2.4,MacIntel,60.0024001,672bb5dadc26d7849dc27b55,687ed1b7e638a4cbf2f02089,689b8d61eef9c041c27f2aad,,,,,,,,,,,,,,0,,,,,,,,,,,,,,,,,,,,,,,,,,,,,,,,,,,,,,,,,,,,,,,,,,,,,,,,,82,empirador,,,,,776.6154,778.9045,1,0,1.7616,,0,78,78,81,1,REAL,FAKE,,,,,,,,,,,,,,,,,
,,,,,,,,,672bb5dadc26d7849dc27b55,Spanish,13 or older,"no, only English or Spanish",no,2025-08-12_14h52.42.410,empathy_intonation_perc,2024.2.4,MacIntel,60.0024001,672bb5dadc26d7849dc27b55,687ed1b7e638a4cbf2f02089,689b8d61eef9c041c27f2aad,,,,,,,,,,,,,,1,,,,,,,,,,,,,,,,,,,,,,,,,,,,,,,,,,,,,,,,,,,,,,,,,,,,,,,,,37,granuja,,,,,778.9056,779.8884,0,0,0.4542,,0,79,79,36,1,REAL,FAKE,,,,,,,,,,,,,,,,,
,,,,,,,,,672bb5dadc26d7849dc27b55,Spanish,13 or older,"no, only English or Spanish",no,2025-08-12_14h52.42.410,empathy_intonation_perc,2024.2.4,MacIntel,60.0024001,672bb5dadc26d7849dc27b55,687ed1b7e638a4cbf2f02089,689b8d61eef9c041c27f2aad,,,,,,,,,,,,,,0,,,,,,,,,,,,,,,,,,,,,,,,,,,,,,,,,,,,,,,,,,,,,,,,,,,,,,,,,10,antar,,,,,779.8897,781.121,0,1,0.7011,,0,80,80,9,1,REAL,FAKE,,,,,,,,,,,,,,,,,
,,,,,,,,,672bb5dadc26d7849dc27b55,Spanish,13 or older,"no, only English or Spanish",no,2025-08-12_14h52.42.410,empathy_intonation_perc,2024.2.4,MacIntel,60.0024001,672bb5dadc26d7849dc27b55,687ed1b7e638a4cbf2f02089,689b8d61eef9c041c27f2aad,,,,,,,,,,,,,,1,,,,,,,,,,,,,,,,,,,,,,,,,,,,,,,,,,,,,,,,,,,,,,,,,,,,,,,,,20,ávido,,,,,781.1222,782.2071,0,0,0.5536,,0,81,81,19,1,REAL,FAKE,,,,,,,,,,,,,,,,,
,,,,,,,,,672bb5dadc26d7849dc27b55,Spanish,13 or older,"no, only English or Spanish",no,2025-08-12_14h52.42.410,empathy_intonation_perc,2024.2.4,MacIntel,60.0024001,672bb5dadc26d7849dc27b55,687ed1b7e638a4cbf2f02089,689b8d61eef9c041c27f2aad,,,,,,,,,,,,,,1,,,,,,,,,,,,,,,,,,,,,,,,,,,,,,,,,,,,,,,,,,,,,,,,,,,,,,,,,81,pozo,,,,,782.2079,783.2892,0,0,0.5375,,0,82,82,80,1,REAL,FAKE,,,,,,,,,,,,,,,,,
,,,,,,,,,672bb5dadc26d7849dc27b55,Spanish,13 or older,"no, only English or Spanish",no,2025-08-12_14h52.42.410,empathy_intonation_perc,2024.2.4,MacIntel,60.0024001,672bb5dadc26d7849dc27b55,687ed1b7e638a4cbf2f02089,689b8d61eef9c041c27f2aad,,,,,,,,,,,,,,0,,,,,,,,,,,,,,,,,,,,,,,,,,,,,,,,,,,,,,,,,,,,,,,,,,,,,,,,,74,cintro,,,,,783.2907,784.6398,1,0,0.8328,,0,83,83,73,1,REAL,FAKE,,,,,,,,,,,,,,,,,
,,,,,,,,,672bb5dadc26d7849dc27b55,Spanish,13 or older,"no, only English or Spanish",no,2025-08-12_14h52.42.410,empathy_intonation_perc,2024.2.4,MacIntel,60.0024001,672bb5dadc26d7849dc27b55,687ed1b7e638a4cbf2f02089,689b8d61eef9c041c27f2aad,,,,,,,,,,,,,,0,,,,,,,,,,,,,,,,,,,,,,,,,,,,,,,,,,,,,,,,,,,,,,,,,,,,,,,,,50,flamida,,,,,784.6416,785.856,0,1,0.6752,,0,84,84,49,1,REAL,FAKE,,,,,,,,,,,,,,,,,
,,,,,,,,,672bb5dadc26d7849dc27b55,Spanish,13 or older,"no, only English or Spanish",no,2025-08-12_14h52.42.410,empathy_intonation_perc,2024.2.4,MacIntel,60.0024001,672bb5dadc26d7849dc27b55,687ed1b7e638a4cbf2f02089,689b8d61eef9c041c27f2aad,,,,,,,,,,,,,,1,,,,,,,,,,,,,,,,,,,,,,,,,,,,,,,,,,,,,,,,,,,,,,,,,,,,,,,,,57,tacaño,,,,,785.8569,786.9228,0,0,0.5303,,0,85,85,56,1,REAL,FAKE,,,,,,,,,,,,,,,,,
,,,,,,,,,672bb5dadc26d7849dc27b55,Spanish,13 or older,"no, only English or Spanish",no,2025-08-12_14h52.42.410,empathy_intonation_perc,2024.2.4,MacIntel,60.0024001,672bb5dadc26d7849dc27b55,687ed1b7e638a4cbf2f02089,689b8d61eef9c041c27f2aad,,,,,,,,,,,,,,1,,,,,,,,,,,,,,,,,,,,,,,,,,,,,,,,,,,,,,,,,,,,,,,,,,,,,,,,,75,yacer,,,,,786.9246,788.1053,0,0,0.646,,0,86,86,74,1,REAL,FAKE,,,,,,,,,,,,,,,,,
,,,,,,,,,672bb5dadc26d7849dc27b55,Spanish,13 or older,"no, only English or Spanish",no,2025-08-12_14h52.42.410,empathy_intonation_perc,2024.2.4,MacIntel,60.0024001,672bb5dadc26d7849dc27b55,687ed1b7e638a4cbf2f02089,689b8d61eef9c041c27f2aad,,,,,,,,,,,,,,1,,,,,,,,,,,,,,,,,,,,,,,,,,,,,,,,,,,,,,,,,,,,,,,,,,,,,,,,,39,torpe,,,,,788.1069,789.1728,0,0,0.5427,,0,87,87,38,1,REAL,FAKE,,,,,,,,,,,,,,,,,
,,,,,,,,,672bb5dadc26d7849dc27b55,Spanish,13 or older,"no, only English or Spanish",no,2025-08-12_14h52.42.410,empathy_intonation_perc,2024.2.4,MacIntel,60.0024001,672bb5dadc26d7849dc27b55,687ed1b7e638a4cbf2f02089,689b8d61eef9c041c27f2aad,,,,,,,,,,,,,,1,,,,,,,,,,,,,,,,,,,,,,,,,,,,,,,,,,,,,,,,,,,,,,,,,,,,,,,,,3,pulmones,,,,,789.1753,790.4388,1,1,0.7365,,0,88,88,2,1,REAL,FAKE,,,,,,,,,,,,,,,,,
,,,,,,,,,672bb5dadc26d7849dc27b55,Spanish,13 or older,"no, only English or Spanish",no,2025-08-12_14h52.42.410,empathy_intonation_perc,2024.2.4,MacIntel,60.0024001,672bb5dadc26d7849dc27b55,687ed1b7e638a4cbf2f02089,689b8d61eef9c041c27f2aad,,,,,,,,,,,,,,0,,,,,,,,,,,,,,,,,,,,,,,,,,,,,,,,,,,,,,,,,,,,,,,,,,,,,,,,,42,cadallo,,,,,790.4397,791.5242,0,1,0.5352,,0,89,89,41,1,REAL,FAKE,,,,,,,,,,,,,,,,,
,,,,,,,,,672bb5dadc26d7849dc27b55,Spanish,13 or older,"no, only English or Spanish",no,2025-08-12_14h52.42.410,empathy_intonation_perc,2024.2.4,MacIntel,60.0024001,672bb5dadc26d7849dc27b55,687ed1b7e638a4cbf2f02089,689b8d61eef9c041c27f2aad,,,,,,,,,,,,,,0,,,,,,,,,,,,,,,,,,,,,,,,,,,,,,,,,,,,,,,,,,,,,,,,,,,,,,,,,72,pemición,,,,,791.5252,792.9049,0,1,0.8459,,0,90,90,71,1,REAL,FAKE,,,,,,,,,,,,,,,,,
,,,,,,,,,672bb5dadc26d7849dc27b55,Spanish,13 or older,"no, only English or Spanish",no,2025-08-12_14h52.42.410,empathy_intonation_perc,2024.2.4,MacIntel,60.0024001,672bb5dadc26d7849dc27b55,687ed1b7e638a4cbf2f02089,689b8d61eef9c041c27f2aad,,,,,,,,,,,,,,0,,,,,,,,,,,,,,,,,,,,,,,,,,,,,,,,,,,,,,,,,,,,,,,,,,,,,,,,,53,vegada,,,,,792.9062,794.1713,0,1,0.7297,,0,91,91,52,1,REAL,FAKE,,,,,,,,,,,,,,,,,
,,,,,,,,,672bb5dadc26d7849dc27b55,Spanish,13 or older,"no, only English or Spanish",no,2025-08-12_14h52.42.410,empathy_intonation_perc,2024.2.4,MacIntel,60.0024001,672bb5dadc26d7849dc27b55,687ed1b7e638a4cbf2f02089,689b8d61eef9c041c27f2aad,,,,,,,,,,,,,,,,,,,,,,,,,,,,,,,,,,,,,,,,,,,,,,,,,,,,,,,,,,,,,,,,,,,,,,,,,,,,,,,,,,,,,,,,,,794.1773,864.0892,,,,,,,,,,,,,,,
,,,,,,,,,672bb5dadc26d7849dc27b55,Spanish,13 or older,"no, only English or Spanish",no,2025-08-12_14h52.42.410,empathy_intonation_perc,2024.2.4,MacIntel,60.0024001,672bb5dadc26d7849dc27b55,687ed1b7e638a4cbf2f02089,689b8d61eef9c041c27f2aad,,,,,,,,,,,,,1,,,,,,,,,,,,,,,,,,,,,,,,,,,,,,,,,,,,,,,,,,,,,,,,,,,,,,,,,,,,,,,,,,,,,,,,,,,,,,,864.0965,867.0215,slightly agree,0,0,0,0,1,I can easily tell if someone else wants to enter a conversation.,1,0,1,0,,
,,,,,,,,,672bb5dadc26d7849dc27b55,Spanish,13 or older,"no, only English or Spanish",no,2025-08-12_14h52.42.410,empathy_intonation_perc,2024.2.4,MacIntel,60.0024001,672bb5dadc26d7849dc27b55,687ed1b7e638a4cbf2f02089,689b8d61eef9c041c27f2aad,,,,,,,,,,,,,2,,,,,,,,,,,,,,,,,,,,,,,,,,,,,,,,,,,,,,,,,,,,,,,,,,,,,,,,,,,,,,,,,,,,,,,,,,,,,,,867.0245,868.5205,slightly disagree,0,1,1,1,1,I prefer animals to humans.,0,1,0,0,,
,,,,,,,,,672bb5dadc26d7849dc27b55,Spanish,13 or older,"no, only English or Spanish",no,2025-08-12_14h52.42.410,empathy_intonation_perc,2024.2.4,MacIntel,60.0024001,672bb5dadc26d7849dc27b55,687ed1b7e638a4cbf2f02089,689b8d61eef9c041c27f2aad,,,,,,,,,,,,,3,,,,,,,,,,,,,,,,,,,,,,,,,,,,,,,,,,,,,,,,,,,,,,,,,,,,,,,,,,,,,,,,,,,,,,,,,,,,,,,868.5218,870.3205,slightly disagree,0,2,2,2,1,I try to keep up with the current trends and fashions.,0,1,0,0,,
,,,,,,,,,672bb5dadc26d7849dc27b55,Spanish,13 or older,"no, only English or Spanish",no,2025-08-12_14h52.42.410,empathy_intonation_perc,2024.2.4,MacIntel,60.0024001,672bb5dadc26d7849dc27b55,687ed1b7e638a4cbf2f02089,689b8d61eef9c041c27f2aad,,,,,,,,,,,,,4,,,,,,,,,,,,,,,,,,,,,,,,,,,,,,,,,,,,,,,,,,,,,,,,,,,,,,,,,,,,,,,,,,,,,,,,,,,,,,,870.3221,873.1528,slightly agree,0,3,3,3,1,"I find it difficult to explain to others things that I understand easily,   when they don't understand it first time.",1,0,0,1,,
,,,,,,,,,672bb5dadc26d7849dc27b55,Spanish,13 or older,"no, only English or Spanish",no,2025-08-12_14h52.42.410,empathy_intonation_perc,2024.2.4,MacIntel,60.0024001,672bb5dadc26d7849dc27b55,687ed1b7e638a4cbf2f02089,689b8d61eef9c041c27f2aad,,,,,,,,,,,,,5,,,,,,,,,,,,,,,,,,,,,,,,,,,,,,,,,,,,,,,,,,,,,,,,,,,,,,,,,,,,,,,,,,,,,,,,,,,,,,,873.1543,874.6373,slightly agree,0,4,4,4,1,I dream most nights.,0,1,0,0,,
,,,,,,,,,672bb5dadc26d7849dc27b55,Spanish,13 or older,"no, only English or Spanish",no,2025-08-12_14h52.42.410,empathy_intonation_perc,2024.2.4,MacIntel,60.0024001,672bb5dadc26d7849dc27b55,687ed1b7e638a4cbf2f02089,689b8d61eef9c041c27f2aad,,,,,,,,,,,,,6,,,,,,,,,,,,,,,,,,,,,,,,,,,,,,,,,,,,,,,,,,,,,,,,,,,,,,,,,,,,,,,,,,,,,,,,,,,,,,,874.6383,875.805,slightly agree,0,5,5,5,1,I really enjoy caring for other people.,1,0,1,0,,
,,,,,,,,,672bb5dadc26d7849dc27b55,Spanish,13 or older,"no, only English or Spanish",no,2025-08-12_14h52.42.410,empathy_intonation_perc,2024.2.4,MacIntel,60.0024001,672bb5dadc26d7849dc27b55,687ed1b7e638a4cbf2f02089,689b8d61eef9c041c27f2aad,,,,,,,,,,,,,7,,,,,,,,,,,,,,,,,,,,,,,,,,,,,,,,,,,,,,,,,,,,,,,,,,,,,,,,,,,,,,,,,,,,,,,,,,,,,,,875.8065,877.369,slightly agree,0,6,6,6,1,I try to solve my own problems rather than discussing them with others.,0,1,0,0,,
,,,,,,,,,672bb5dadc26d7849dc27b55,Spanish,13 or older,"no, only English or Spanish",no,2025-08-12_14h52.42.410,empathy_intonation_perc,2024.2.4,MacIntel,60.0024001,672bb5dadc26d7849dc27b55,687ed1b7e638a4cbf2f02089,689b8d61eef9c041c27f2aad,,,,,,,,,,,,,8,,,,,,,,,,,,,,,,,,,,,,,,,,,,,,,,,,,,,,,,,,,,,,,,,,,,,,,,,,,,,,,,,,,,,,,,,,,,,,,877.3704,881.0195,slightly disagree,0,7,7,7,1,I find it hard to know what to do in a social situation.,1,0,0,1,,
,,,,,,,,,672bb5dadc26d7849dc27b55,Spanish,13 or older,"no, only English or Spanish",no,2025-08-12_14h52.42.410,empathy_intonation_perc,2024.2.4,MacIntel,60.0024001,672bb5dadc26d7849dc27b55,687ed1b7e638a4cbf2f02089,689b8d61eef9c041c27f2aad,,,,,,,,,,,,,9,,,,,,,,,,,,,,,,,,,,,,,,,,,,,,,,,,,,,,,,,,,,,,,,,,,,,,,,,,,,,,,,,,,,,,,,,,,,,,,881.0212,882.2872,slightly disagree,0,8,8,8,1,I am at my best first thing in the morning.,0,1,0,0,,
