instructions_exposure.started,instructions_exposure.stopped,instructions_exposure_loop.thisRepN,instructions_exposure_loop.thisTrialN,instructions_exposure_loop.thisN,instructions_exposure_loop.thisIndex,instructions_exposure_loop.ran,instructions_text,continue_text,participant_id,"What variety of Spanish are you most familiar with? (e.g., Peruvian, Spanish, Mexican)",At what age did you begin learning Spanish?,Are you proficient in any languages other than English/Spanish?,"Are you familiar with Caribbean (e.g., Caribbean, Puerto Rican) or Galician Spanish?",date,expName,psychopyVersion,OS,frameRate,id,study_id,session,trial_exposure.started,trial_exposure.stopped,key_resp_exposure.keys,key_resp_exposure.corr,key_resp_exposure.rt,key_resp_exposure.duration,key_resp.keys,exposure_loop.thisRepN,exposure_loop.thisTrialN,exposure_loop.thisN,exposure_loop.thisIndex,exposure_loop.ran,item_num,correct_response,question,path,duration,instructions_2afc.started,instructions_2afc.stopped,instructions_2afc_loop.thisRepN,instructions_2afc_loop.thisTrialN,instructions_2afc_loop.thisN,instructions_2afc_loop.thisIndex,instructions_2afc_loop.ran,practice_2afc.started,practice_2afc.stopped,key_resp_2afc_practice.keys,key_resp_2afc_practice.corr,key_resp_2afc_practice.rt,key_resp_2afc_practice.duration,trials_2afc_practice_loop.thisRepN,trials_2afc_practice_loop.thisTrialN,trials_2afc_practice_loop.thisN,trials_2afc_practice_loop.thisIndex,trials_2afc_practice_loop.ran,check_2afc.started,check_2afc.stopped,trial_2afc.started,trial_2afc.stopped,key_resp_2afc_trial.keys,key_resp_2afc_trial.corr,key_resp_2afc_trial.rt,key_resp_2afc_trial.duration,trials_2afc_loop.thisRepN,trials_2afc_loop.thisTrialN,trials_2afc_loop.thisN,trials_2afc_loop.thisIndex,trials_2afc_loop.ran,target,variety,instructions_lextale.started,instructions_lextale.stopped,instructions_lextale_loop.thisRepN,instructions_lextale_loop.thisTrialN,instructions_lextale_loop.thisN,instructions_lextale_loop.thisIndex,instructions_lextale_loop.ran,practice_lextale.started,practice_lextale.stopped,key_resp_lextale_practice.keys,key_resp_lextale_practice.corr,key_resp_lextale_practice.rt,key_resp_lextale_practice.duration,practice_feedback_lextale.started,practice_feedback_lextale.stopped,trials_lextale_practice_loop.thisRepN,trials_lextale_practice_loop.thisTrialN,trials_lextale_practice_loop.thisN,trials_lextale_practice_loop.thisIndex,trials_lextale_practice_loop.ran,stim,word,prac_button_real,prac_button_false,check_lextale.started,check_lextale.stopped,trial_lextale.started,trial_lextale.stopped,key_resp_lextale_trial.keys,key_resp_lextale_trial.corr,key_resp_lextale_trial.rt,key_resp_lextale_trial.duration,trials_lextale_loop.thisRepN,trials_lextale_loop.thisTrialN,trials_lextale_loop.thisN,trials_lextale_loop.thisIndex,trials_lextale_loop.ran,button_real,button_false,instructions_eq.started,instructions_eq.stopped,trial_eq.started,trial_eq.stopped,slider_eq_trial.response,trials_eq_loop.thisRepN,trials_eq_loop.thisTrialN,trials_eq_loop.thisN,trials_eq_loop.thisIndex,trials_eq_loop.ran,item,is_test_item,is_distractor,is_agree_score,is_disagree_score,end_exp.started,end_exp.stopped
0.0174,7.9168,0,0,0,0,1,"In the following task, you are going to hear a series of conversations.", (press the space bar to continue),672ce4b6444bb28ed1573e5a,Mexican,13 or older,"no, only English or Spanish",no,2025-07-23_06h01.00.232,empathy_intonation_perc,2024.2.4,Win32,60.24096386,672ce4b6444bb28ed1573e5a,687ed1b7e638a4cbf2f02089,6880aff28800b0f2939d405c,,,,,,,,,,,,,,,,,,,,,,,,,,,,,,,,,,,,,,,,,,,,,,,,,,,,,,,,,,,,,,,,,,,,,,,,,,,,,,,,,,,,,,,,,,,,,,,,,,,,,,,,,,
7.9172,10.1352,0,1,1,1,1,It is okay if you don't not 100% understand them!, (press the space bar to continue),672ce4b6444bb28ed1573e5a,Mexican,13 or older,"no, only English or Spanish",no,2025-07-23_06h01.00.232,empathy_intonation_perc,2024.2.4,Win32,60.24096386,672ce4b6444bb28ed1573e5a,687ed1b7e638a4cbf2f02089,6880aff28800b0f2939d405c,,,,,,,,,,,,,,,,,,,,,,,,,,,,,,,,,,,,,,,,,,,,,,,,,,,,,,,,,,,,,,,,,,,,,,,,,,,,,,,,,,,,,,,,,,,,,,,,,,,,,,,,,,
10.1365,14.3729,0,2,2,2,1,"After, you will read a sentence about the conversation and decide if it's true or false.", (press the space bar to continue),672ce4b6444bb28ed1573e5a,Mexican,13 or older,"no, only English or Spanish",no,2025-07-23_06h01.00.232,empathy_intonation_perc,2024.2.4,Win32,60.24096386,672ce4b6444bb28ed1573e5a,687ed1b7e638a4cbf2f02089,6880aff28800b0f2939d405c,,,,,,,,,,,,,,,,,,,,,,,,,,,,,,,,,,,,,,,,,,,,,,,,,,,,,,,,,,,,,,,,,,,,,,,,,,,,,,,,,,,,,,,,,,,,,,,,,,,,,,,,,,
14.3745,19.9285,0,3,3,3,1,"If it's true, press '1' (True) and if it's false press '0' (False).", (press the space bar to continue),672ce4b6444bb28ed1573e5a,Mexican,13 or older,"no, only English or Spanish",no,2025-07-23_06h01.00.232,empathy_intonation_perc,2024.2.4,Win32,60.24096386,672ce4b6444bb28ed1573e5a,687ed1b7e638a4cbf2f02089,6880aff28800b0f2939d405c,,,,,,,,,,,,,,,,,,,,,,,,,,,,,,,,,,,,,,,,,,,,,,,,,,,,,,,,,,,,,,,,,,,,,,,,,,,,,,,,,,,,,,,,,,,,,,,,,,,,,,,,,,
,,,,,,,,,672ce4b6444bb28ed1573e5a,Mexican,13 or older,"no, only English or Spanish",no,2025-07-23_06h01.00.232,empathy_intonation_perc,2024.2.4,Win32,60.24096386,672ce4b6444bb28ed1573e5a,687ed1b7e638a4cbf2f02089,6880aff28800b0f2939d405c,19.9354,63.0551,1,0,7.0652,,,0,0,0,2,1,3,0,The mom already has rice.,./stim/exposure_wavs/pr_stimuli_convo.wav,36,,,,,,,,,,,,,,,,,,,,,,,,,,,,,,,,,,,,,,,,,,,,,,,,,,,,,,,,,,,,,,,,,,,,,,,,,,,,,,,,,,,,,,,,,
,,,,,,,,,672ce4b6444bb28ed1573e5a,Mexican,13 or older,"no, only English or Spanish",no,2025-07-23_06h01.00.232,empathy_intonation_perc,2024.2.4,Win32,60.24096386,672ce4b6444bb28ed1573e5a,687ed1b7e638a4cbf2f02089,6880aff28800b0f2939d405c,63.0572,129.2712,1,1,19.1772,,,0,1,1,0,1,1,1,The son asked the mom if Aunt Marina is okay.,./stim/exposure_wavs/ga_stimuli_convo.wav,47,,,,,,,,,,,,,,,,,,,,,,,,,,,,,,,,,,,,,,,,,,,,,,,,,,,,,,,,,,,,,,,,,,,,,,,,,,,,,,,,,,,,,,,,,
,,,,,,,,,672ce4b6444bb28ed1573e5a,Mexican,13 or older,"no, only English or Spanish",no,2025-07-23_06h01.00.232,empathy_intonation_perc,2024.2.4,Win32,60.24096386,672ce4b6444bb28ed1573e5a,687ed1b7e638a4cbf2f02089,6880aff28800b0f2939d405c,129.2732,205.3642,0,0,16.0603,,,0,2,2,1,1,2,1,The mom asked the daughter if she already went to the supermarket.,./stim/exposure_wavs/dr_stimuli_convo.wav,60,,,,,,,,,,,,,,,,,,,,,,,,,,,,,,,,,,,,,,,,,,,,,,,,,,,,,,,,,,,,,,,,,,,,,,,,,,,,,,,,,,,,,,,,,
,,,,,,,"In the following task you are going to hear a series of utterances. 

  You will decide if the utterances sound like questions or not using your keyboard.", (press the spacebar to continue),672ce4b6444bb28ed1573e5a,Mexican,13 or older,"no, only English or Spanish",no,2025-07-23_06h01.00.232,empathy_intonation_perc,2024.2.4,Win32,60.24096386,672ce4b6444bb28ed1573e5a,687ed1b7e638a4cbf2f02089,6880aff28800b0f2939d405c,,,,,,,,,,,,,,,,,,205.3683,212.6213,0,0,0,0,1,,,,,,,,,,,,,,,,,,,,,,,,,,,,,,,,,,,,,,,,,,,,,,,,,,,,,,,,,,,,,,,,,,,,,,,,,,,,,,,,,,
,,,,,,,"If you believe the utterance is a question, type '1' (for 'yes') and if you do not 
  believe it is a question type '0' (for 'no').

  Let's practice a bit...", (press the spacebar to continue),672ce4b6444bb28ed1573e5a,Mexican,13 or older,"no, only English or Spanish",no,2025-07-23_06h01.00.232,empathy_intonation_perc,2024.2.4,Win32,60.24096386,672ce4b6444bb28ed1573e5a,687ed1b7e638a4cbf2f02089,6880aff28800b0f2939d405c,,,,,,,,,,,,,,,,,,212.6226,228.7874,0,1,1,1,1,,,,,,,,,,,,,,,,,,,,,,,,,,,,,,,,,,,,,,,,,,,,,,,,,,,,,,,,,,,,,,,,,,,,,,,,,,,,,,,,,,
,,,,,,,,,672ce4b6444bb28ed1573e5a,Mexican,13 or older,"no, only English or Spanish",no,2025-07-23_06h01.00.232,empathy_intonation_perc,2024.2.4,Win32,60.24096386,672ce4b6444bb28ed1573e5a,687ed1b7e638a4cbf2f02089,6880aff28800b0f2939d405c,,,,,,,,,,,,,,0,,./stim/wavs/andalusian_statement_filler_Alberto-nunca-se-afeita.wav,,,,,,,,,228.7927,235.3108,0,1,5.9894,,0,0,0,5,1,,,,,,,,,,,,,,,,,,,,,,,,,,,,,,,,,,,,,,,,,,,,,,,,,,,,,,,,,,,,,,,,,,,,,,,
,,,,,,,,,672ce4b6444bb28ed1573e5a,Mexican,13 or older,"no, only English or Spanish",no,2025-07-23_06h01.00.232,empathy_intonation_perc,2024.2.4,Win32,60.24096386,672ce4b6444bb28ed1573e5a,687ed1b7e638a4cbf2f02089,6880aff28800b0f2939d405c,,,,,,,,,,,,,,0,,./stim/wavs/peruvian_statement_filler_El-nino-habla-con-su-madre.wav,,,,,,,,,235.3112,238.9811,1,0,3.1467,,0,1,1,6,1,,,,,,,,,,,,,,,,,,,,,,,,,,,,,,,,,,,,,,,,,,,,,,,,,,,,,,,,,,,,,,,,,,,,,,,
,,,,,,,,,672ce4b6444bb28ed1573e5a,Mexican,13 or older,"no, only English or Spanish",no,2025-07-23_06h01.00.232,empathy_intonation_perc,2024.2.4,Win32,60.24096386,672ce4b6444bb28ed1573e5a,687ed1b7e638a4cbf2f02089,6880aff28800b0f2939d405c,,,,,,,,,,,,,,0,,./stim/wavs/puertorican_statement_filler_La-nina-pinta-con-su-amiga.wav,,,,,,,,,238.9815,242.4844,0,1,2.997,,0,2,2,7,1,,,,,,,,,,,,,,,,,,,,,,,,,,,,,,,,,,,,,,,,,,,,,,,,,,,,,,,,,,,,,,,,,,,,,,,
,,,,,,,,,672ce4b6444bb28ed1573e5a,Mexican,13 or older,"no, only English or Spanish",no,2025-07-23_06h01.00.232,empathy_intonation_perc,2024.2.4,Win32,60.24096386,672ce4b6444bb28ed1573e5a,687ed1b7e638a4cbf2f02089,6880aff28800b0f2939d405c,,,,,,,,,,,,,,1,,./stim/wavs/mexican_question_filler_Felipe-no-tiene-contrasena.wav,,,,,,,,,242.4848,246.0879,1,1,3.0933,,0,3,3,3,1,,,,,,,,,,,,,,,,,,,,,,,,,,,,,,,,,,,,,,,,,,,,,,,,,,,,,,,,,,,,,,,,,,,,,,,
,,,,,,,,,672ce4b6444bb28ed1573e5a,Mexican,13 or older,"no, only English or Spanish",no,2025-07-23_06h01.00.232,empathy_intonation_perc,2024.2.4,Win32,60.24096386,672ce4b6444bb28ed1573e5a,687ed1b7e638a4cbf2f02089,6880aff28800b0f2939d405c,,,,,,,,,,,,,,0,,./stim/wavs/cuban_statement_filler_Cocinabas-por-la-noche.wav,,,,,,,,,246.0883,249.6081,0,1,3.0095,,0,4,4,4,1,,,,,,,,,,,,,,,,,,,,,,,,,,,,,,,,,,,,,,,,,,,,,,,,,,,,,,,,,,,,,,,,,,,,,,,
,,,,,,,,,672ce4b6444bb28ed1573e5a,Mexican,13 or older,"no, only English or Spanish",no,2025-07-23_06h01.00.232,empathy_intonation_perc,2024.2.4,Win32,60.24096386,672ce4b6444bb28ed1573e5a,687ed1b7e638a4cbf2f02089,6880aff28800b0f2939d405c,,,,,,,,,,,,,,1,,./stim/wavs/castilian_question_filler_Mi-esposo-conoce-al-chico.wav,,,,,,,,,249.6086,252.8114,1,1,2.6894,,0,5,5,0,1,,,,,,,,,,,,,,,,,,,,,,,,,,,,,,,,,,,,,,,,,,,,,,,,,,,,,,,,,,,,,,,,,,,,,,,
,,,,,,,,,672ce4b6444bb28ed1573e5a,Mexican,13 or older,"no, only English or Spanish",no,2025-07-23_06h01.00.232,empathy_intonation_perc,2024.2.4,Win32,60.24096386,672ce4b6444bb28ed1573e5a,687ed1b7e638a4cbf2f02089,6880aff28800b0f2939d405c,,,,,,,,,,,,,,1,,./stim/wavs/argentine_question_filler_Mi-vecino-habla-mucho.wav,,,,,,,,,252.8119,255.1304,1,1,1.7894,,0,6,6,1,1,,,,,,,,,,,,,,,,,,,,,,,,,,,,,,,,,,,,,,,,,,,,,,,,,,,,,,,,,,,,,,,,,,,,,,,
,,,,,,,,,672ce4b6444bb28ed1573e5a,Mexican,13 or older,"no, only English or Spanish",no,2025-07-23_06h01.00.232,empathy_intonation_perc,2024.2.4,Win32,60.24096386,672ce4b6444bb28ed1573e5a,687ed1b7e638a4cbf2f02089,6880aff28800b0f2939d405c,,,,,,,,,,,,,,1,,./stim/wavs/chilean_question_filler_Mi-padre-cantaba-bien.wav,,,,,,,,,255.1309,258.367,0,0,2.7195,,0,7,7,2,1,,,,,,,,,,,,,,,,,,,,,,,,,,,,,,,,,,,,,,,,,,,,,,,,,,,,,,,,,,,,,,,,,,,,,,,
,,,,,,,,,672ce4b6444bb28ed1573e5a,Mexican,13 or older,"no, only English or Spanish",no,2025-07-23_06h01.00.232,empathy_intonation_perc,2024.2.4,Win32,60.24096386,672ce4b6444bb28ed1573e5a,687ed1b7e638a4cbf2f02089,6880aff28800b0f2939d405c,,,,,,,,,,,,,,,,,,,,,,,,,,,,,,,,,,,,258.3672,270.1623,,,,,,,,,,,,,,,,,,,,,,,,,,,,,,,,,,,,,,,,,,,,,,,,,,,,,,,,,,,,,,,,,,,,,
,,,,,,,,,672ce4b6444bb28ed1573e5a,Mexican,13 or older,"no, only English or Spanish",no,2025-07-23_06h01.00.232,empathy_intonation_perc,2024.2.4,Win32,60.24096386,672ce4b6444bb28ed1573e5a,687ed1b7e638a4cbf2f02089,6880aff28800b0f2939d405c,,,,,,,,,,,,,82,0,,./stim/wavs/mexican_mismatch_declarative-broad-focus_Mi-novio-viene-del-lago.wav,,,,,,,,,,,,,,,,,,,,,,270.1695,272.2979,0,1,1.6068,,0,0,0,81,1,0,mexican,,,,,,,,,,,,,,,,,,,,,,,,,,,,,,,,,,,,,,,,,,,,,,,,,,,,,,,,
,,,,,,,,,672ce4b6444bb28ed1573e5a,Mexican,13 or older,"no, only English or Spanish",no,2025-07-23_06h01.00.232,empathy_intonation_perc,2024.2.4,Win32,60.24096386,672ce4b6444bb28ed1573e5a,687ed1b7e638a4cbf2f02089,6880aff28800b0f2939d405c,,,,,,,,,,,,,44,1,,./stim/wavs/puertorican_mismatch_interrogative-total-yn_Mi-madre-come-la-fruta.wav,,,,,,,,,,,,,,,,,,,,,,272.2983,274.8334,0,0,2.0154,,0,1,1,43,1,1,puertorican,,,,,,,,,,,,,,,,,,,,,,,,,,,,,,,,,,,,,,,,,,,,,,,,,,,,,,,,
,,,,,,,,,672ce4b6444bb28ed1573e5a,Mexican,13 or older,"no, only English or Spanish",no,2025-07-23_06h01.00.232,empathy_intonation_perc,2024.2.4,Win32,60.24096386,672ce4b6444bb28ed1573e5a,687ed1b7e638a4cbf2f02089,6880aff28800b0f2939d405c,,,,,,,,,,,,,61,0,,./stim/wavs/mexican_match_declarative-broad-focus_Mariano-habla-del-tiempo.wav,,,,,,,,,,,,,,,,,,,,,,274.8339,277.1025,1,0,1.7523,,0,2,2,60,1,0,mexican,,,,,,,,,,,,,,,,,,,,,,,,,,,,,,,,,,,,,,,,,,,,,,,,,,,,,,,,
,,,,,,,,,672ce4b6444bb28ed1573e5a,Mexican,13 or older,"no, only English or Spanish",no,2025-07-23_06h01.00.232,empathy_intonation_perc,2024.2.4,Win32,60.24096386,672ce4b6444bb28ed1573e5a,687ed1b7e638a4cbf2f02089,6880aff28800b0f2939d405c,,,,,,,,,,,,,19,1,,./stim/wavs/puertorican_match_interrogative-total-yn_Ana-lleva-el-abrigo.wav,,,,,,,,,,,,,,,,,,,,,,277.1028,279.1377,1,1,1.5312,,0,3,3,18,1,1,puertorican,,,,,,,,,,,,,,,,,,,,,,,,,,,,,,,,,,,,,,,,,,,,,,,,,,,,,,,,
,,,,,,,,,672ce4b6444bb28ed1573e5a,Mexican,13 or older,"no, only English or Spanish",no,2025-07-23_06h01.00.232,empathy_intonation_perc,2024.2.4,Win32,60.24096386,672ce4b6444bb28ed1573e5a,687ed1b7e638a4cbf2f02089,6880aff28800b0f2939d405c,,,,,,,,,,,,,59,0,,./stim/wavs/mexican_match_declarative-broad-focus_David-leia-el-libro.wav,,,,,,,,,,,,,,,,,,,,,,279.1382,280.8061,0,1,1.1602,,0,4,4,58,1,0,mexican,,,,,,,,,,,,,,,,,,,,,,,,,,,,,,,,,,,,,,,,,,,,,,,,,,,,,,,,
,,,,,,,,,672ce4b6444bb28ed1573e5a,Mexican,13 or older,"no, only English or Spanish",no,2025-07-23_06h01.00.232,empathy_intonation_perc,2024.2.4,Win32,60.24096386,672ce4b6444bb28ed1573e5a,687ed1b7e638a4cbf2f02089,6880aff28800b0f2939d405c,,,,,,,,,,,,,16,1,,./stim/wavs/mexican_match_interrogative-total-yn_Emilio-ama-la-marcha.wav,,,,,,,,,,,,,,,,,,,,,,280.8064,282.2242,1,1,0.901,,0,5,5,15,1,0,mexican,,,,,,,,,,,,,,,,,,,,,,,,,,,,,,,,,,,,,,,,,,,,,,,,,,,,,,,,
,,,,,,,,,672ce4b6444bb28ed1573e5a,Mexican,13 or older,"no, only English or Spanish",no,2025-07-23_06h01.00.232,empathy_intonation_perc,2024.2.4,Win32,60.24096386,672ce4b6444bb28ed1573e5a,687ed1b7e638a4cbf2f02089,6880aff28800b0f2939d405c,,,,,,,,,,,,,55,0,,./stim/wavs/cuban_match_declarative-broad-focus_Mariano-habla-del-tiempo.wav,,,,,,,,,,,,,,,,,,,,,,282.2246,283.6088,0,1,0.8734,,0,6,6,54,1,0,cuban,,,,,,,,,,,,,,,,,,,,,,,,,,,,,,,,,,,,,,,,,,,,,,,,,,,,,,,,
,,,,,,,,,672ce4b6444bb28ed1573e5a,Mexican,13 or older,"no, only English or Spanish",no,2025-07-23_06h01.00.232,empathy_intonation_perc,2024.2.4,Win32,60.24096386,672ce4b6444bb28ed1573e5a,687ed1b7e638a4cbf2f02089,6880aff28800b0f2939d405c,,,,,,,,,,,,,51,0,,./stim/wavs/cuban_match_declarative-broad-focus_Ana-lleva-el-abrigo.wav,,,,,,,,,,,,,,,,,,,,,,283.6092,285.4275,0,1,1.3133,,0,7,7,50,1,0,cuban,,,,,,,,,,,,,,,,,,,,,,,,,,,,,,,,,,,,,,,,,,,,,,,,,,,,,,,,
,,,,,,,,,672ce4b6444bb28ed1573e5a,Mexican,13 or older,"no, only English or Spanish",no,2025-07-23_06h01.00.232,empathy_intonation_perc,2024.2.4,Win32,60.24096386,672ce4b6444bb28ed1573e5a,687ed1b7e638a4cbf2f02089,6880aff28800b0f2939d405c,,,,,,,,,,,,,49,0,,./stim/wavs/castilian_match_declarative-broad-focus_Mariano-habla-del-tiempo.wav,,,,,,,,,,,,,,,,,,,,,,285.4279,286.6786,1,0,0.7424,,0,8,8,48,1,0,castilian,,,,,,,,,,,,,,,,,,,,,,,,,,,,,,,,,,,,,,,,,,,,,,,,,,,,,,,,
,,,,,,,,,672ce4b6444bb28ed1573e5a,Mexican,13 or older,"no, only English or Spanish",no,2025-07-23_06h01.00.232,empathy_intonation_perc,2024.2.4,Win32,60.24096386,672ce4b6444bb28ed1573e5a,687ed1b7e638a4cbf2f02089,6880aff28800b0f2939d405c,,,,,,,,,,,,,26,1,,./stim/wavs/castilian_mismatch_interrogative-total-yn_La-nina-lava-el-plato.wav,,,,,,,,,,,,,,,,,,,,,,286.6791,288.1801,1,1,0.995,,0,9,9,25,1,0,castilian,,,,,,,,,,,,,,,,,,,,,,,,,,,,,,,,,,,,,,,,,,,,,,,,,,,,,,,,
,,,,,,,,,672ce4b6444bb28ed1573e5a,Mexican,13 or older,"no, only English or Spanish",no,2025-07-23_06h01.00.232,empathy_intonation_perc,2024.2.4,Win32,60.24096386,672ce4b6444bb28ed1573e5a,687ed1b7e638a4cbf2f02089,6880aff28800b0f2939d405c,,,,,,,,,,,,,81,0,,./stim/wavs/mexican_mismatch_declarative-broad-focus_La-maestra-vive-en-Paris.wav,,,,,,,,,,,,,,,,,,,,,,288.1807,289.4649,0,1,0.7565,,0,10,10,80,1,0,mexican,,,,,,,,,,,,,,,,,,,,,,,,,,,,,,,,,,,,,,,,,,,,,,,,,,,,,,,,
,,,,,,,,,672ce4b6444bb28ed1573e5a,Mexican,13 or older,"no, only English or Spanish",no,2025-07-23_06h01.00.232,empathy_intonation_perc,2024.2.4,Win32,60.24096386,672ce4b6444bb28ed1573e5a,687ed1b7e638a4cbf2f02089,6880aff28800b0f2939d405c,,,,,,,,,,,,,48,0,,./stim/wavs/castilian_match_declarative-broad-focus_Maria-bebe-el-vino.wav,,,,,,,,,,,,,,,,,,,,,,289.4652,291.6502,1,0,1.6811,,0,11,11,47,1,0,castilian,,,,,,,,,,,,,,,,,,,,,,,,,,,,,,,,,,,,,,,,,,,,,,,,,,,,,,,,
,,,,,,,,,672ce4b6444bb28ed1573e5a,Mexican,13 or older,"no, only English or Spanish",no,2025-07-23_06h01.00.232,empathy_intonation_perc,2024.2.4,Win32,60.24096386,672ce4b6444bb28ed1573e5a,687ed1b7e638a4cbf2f02089,6880aff28800b0f2939d405c,,,,,,,,,,,,,35,1,,./stim/wavs/mexican_mismatch_interrogative-total-yn_El-hombre-mira-la-luna.wav,,,,,,,,,,,,,,,,,,,,,,291.6505,294.086,1,1,1.9273,,0,12,12,34,1,0,mexican,,,,,,,,,,,,,,,,,,,,,,,,,,,,,,,,,,,,,,,,,,,,,,,,,,,,,,,,
,,,,,,,,,672ce4b6444bb28ed1573e5a,Mexican,13 or older,"no, only English or Spanish",no,2025-07-23_06h01.00.232,empathy_intonation_perc,2024.2.4,Win32,60.24096386,672ce4b6444bb28ed1573e5a,687ed1b7e638a4cbf2f02089,6880aff28800b0f2939d405c,,,,,,,,,,,,,36,1,,./stim/wavs/mexican_mismatch_interrogative-total-yn_El-nino-oye-el-rio.wav,,,,,,,,,,,,,,,,,,,,,,294.0864,296.3382,1,1,1.7476,,0,13,13,35,1,0,mexican,,,,,,,,,,,,,,,,,,,,,,,,,,,,,,,,,,,,,,,,,,,,,,,,,,,,,,,,
,,,,,,,,,672ce4b6444bb28ed1573e5a,Mexican,13 or older,"no, only English or Spanish",no,2025-07-23_06h01.00.232,empathy_intonation_perc,2024.2.4,Win32,60.24096386,672ce4b6444bb28ed1573e5a,687ed1b7e638a4cbf2f02089,6880aff28800b0f2939d405c,,,,,,,,,,,,,50,0,,./stim/wavs/castilian_match_declarative-broad-focus_Marta-abre-el-regalo.wav,,,,,,,,,,,,,,,,,,,,,,296.3386,297.94,0,1,1.0953,,0,14,14,49,1,0,castilian,,,,,,,,,,,,,,,,,,,,,,,,,,,,,,,,,,,,,,,,,,,,,,,,,,,,,,,,
,,,,,,,,,672ce4b6444bb28ed1573e5a,Mexican,13 or older,"no, only English or Spanish",no,2025-07-23_06h01.00.232,empathy_intonation_perc,2024.2.4,Win32,60.24096386,672ce4b6444bb28ed1573e5a,687ed1b7e638a4cbf2f02089,6880aff28800b0f2939d405c,,,,,,,,,,,,,72,0,,./stim/wavs/castilian_mismatch_declarative-broad-focus_Mi-novio-viene-del-lago.wav,,,,,,,,,,,,,,,,,,,,,,297.9405,299.9085,1,0,1.4456,,0,15,15,71,1,0,castilian,,,,,,,,,,,,,,,,,,,,,,,,,,,,,,,,,,,,,,,,,,,,,,,,,,,,,,,,
,,,,,,,,,672ce4b6444bb28ed1573e5a,Mexican,13 or older,"no, only English or Spanish",no,2025-07-23_06h01.00.232,empathy_intonation_perc,2024.2.4,Win32,60.24096386,672ce4b6444bb28ed1573e5a,687ed1b7e638a4cbf2f02089,6880aff28800b0f2939d405c,,,,,,,,,,,,,11,1,,./stim/wavs/cuban_match_interrogative-total-yn_Mariano-habla-del-tiempo.wav,,,,,,,,,,,,,,,,,,,,,,299.9089,302.3777,0,0,1.9573,,0,16,16,10,1,1,cuban,,,,,,,,,,,,,,,,,,,,,,,,,,,,,,,,,,,,,,,,,,,,,,,,,,,,,,,,
,,,,,,,,,672ce4b6444bb28ed1573e5a,Mexican,13 or older,"no, only English or Spanish",no,2025-07-23_06h01.00.232,empathy_intonation_perc,2024.2.4,Win32,60.24096386,672ce4b6444bb28ed1573e5a,687ed1b7e638a4cbf2f02089,6880aff28800b0f2939d405c,,,,,,,,,,,,,63,0,,./stim/wavs/puertorican_match_declarative-broad-focus_Ana-lleva-el-abrigo.wav,,,,,,,,,,,,,,,,,,,,,,302.3781,304.6799,1,0,1.7919,,0,17,17,62,1,0,puertorican,,,,,,,,,,,,,,,,,,,,,,,,,,,,,,,,,,,,,,,,,,,,,,,,,,,,,,,,
,,,,,,,,,672ce4b6444bb28ed1573e5a,Mexican,13 or older,"no, only English or Spanish",no,2025-07-23_06h01.00.232,empathy_intonation_perc,2024.2.4,Win32,60.24096386,672ce4b6444bb28ed1573e5a,687ed1b7e638a4cbf2f02089,6880aff28800b0f2939d405c,,,,,,,,,,,,,34,1,,./stim/wavs/cuban_mismatch_interrogative-total-yn_Mi-tia-odia-la-lluvia.wav,,,,,,,,,,,,,,,,,,,,,,304.6803,306.1147,0,0,0.9297,,0,18,18,33,1,1,cuban,,,,,,,,,,,,,,,,,,,,,,,,,,,,,,,,,,,,,,,,,,,,,,,,,,,,,,,,
,,,,,,,,,672ce4b6444bb28ed1573e5a,Mexican,13 or older,"no, only English or Spanish",no,2025-07-23_06h01.00.232,empathy_intonation_perc,2024.2.4,Win32,60.24096386,672ce4b6444bb28ed1573e5a,687ed1b7e638a4cbf2f02089,6880aff28800b0f2939d405c,,,,,,,,,,,,,27,1,,./stim/wavs/castilian_mismatch_interrogative-total-yn_Mi-madre-come-la-fruta.wav,,,,,,,,,,,,,,,,,,,,,,306.1151,309.2179,1,1,2.5987,,0,19,19,26,1,0,castilian,,,,,,,,,,,,,,,,,,,,,,,,,,,,,,,,,,,,,,,,,,,,,,,,,,,,,,,,
,,,,,,,,,672ce4b6444bb28ed1573e5a,Mexican,13 or older,"no, only English or Spanish",no,2025-07-23_06h01.00.232,empathy_intonation_perc,2024.2.4,Win32,60.24096386,672ce4b6444bb28ed1573e5a,687ed1b7e638a4cbf2f02089,6880aff28800b0f2939d405c,,,,,,,,,,,,,6,1,,./stim/wavs/castilian_match_interrogative-total-yn_Marta-abre-el-regalo.wav,,,,,,,,,,,,,,,,,,,,,,309.2181,310.9696,0,0,1.24,,0,20,20,5,1,0,castilian,,,,,,,,,,,,,,,,,,,,,,,,,,,,,,,,,,,,,,,,,,,,,,,,,,,,,,,,
,,,,,,,,,672ce4b6444bb28ed1573e5a,Mexican,13 or older,"no, only English or Spanish",no,2025-07-23_06h01.00.232,empathy_intonation_perc,2024.2.4,Win32,60.24096386,672ce4b6444bb28ed1573e5a,687ed1b7e638a4cbf2f02089,6880aff28800b0f2939d405c,,,,,,,,,,,,,78,0,,./stim/wavs/cuban_mismatch_declarative-broad-focus_Mi-tia-odia-la-lluvia.wav,,,,,,,,,,,,,,,,,,,,,,310.97,314.2061,0,1,2.7035,,0,21,21,77,1,0,cuban,,,,,,,,,,,,,,,,,,,,,,,,,,,,,,,,,,,,,,,,,,,,,,,,,,,,,,,,
,,,,,,,,,672ce4b6444bb28ed1573e5a,Mexican,13 or older,"no, only English or Spanish",no,2025-07-23_06h01.00.232,empathy_intonation_perc,2024.2.4,Win32,60.24096386,672ce4b6444bb28ed1573e5a,687ed1b7e638a4cbf2f02089,6880aff28800b0f2939d405c,,,,,,,,,,,,,43,1,,./stim/wavs/puertorican_mismatch_interrogative-total-yn_La-nina-lava-el-plato.wav,,,,,,,,,,,,,,,,,,,,,,314.2065,316.4417,1,1,1.7234,,0,22,22,42,1,1,puertorican,,,,,,,,,,,,,,,,,,,,,,,,,,,,,,,,,,,,,,,,,,,,,,,,,,,,,,,,
,,,,,,,,,672ce4b6444bb28ed1573e5a,Mexican,13 or older,"no, only English or Spanish",no,2025-07-23_06h01.00.232,empathy_intonation_perc,2024.2.4,Win32,60.24096386,672ce4b6444bb28ed1573e5a,687ed1b7e638a4cbf2f02089,6880aff28800b0f2939d405c,,,,,,,,,,,,,17,1,,./stim/wavs/mexican_match_interrogative-total-yn_Mariano-habla-del-tiempo.wav,,,,,,,,,,,,,,,,,,,,,,316.442,319.1945,1,1,2.2397,,0,23,23,16,1,0,mexican,,,,,,,,,,,,,,,,,,,,,,,,,,,,,,,,,,,,,,,,,,,,,,,,,,,,,,,,
,,,,,,,,,672ce4b6444bb28ed1573e5a,Mexican,13 or older,"no, only English or Spanish",no,2025-07-23_06h01.00.232,empathy_intonation_perc,2024.2.4,Win32,60.24096386,672ce4b6444bb28ed1573e5a,687ed1b7e638a4cbf2f02089,6880aff28800b0f2939d405c,,,,,,,,,,,,,10,1,,./stim/wavs/cuban_match_interrogative-total-yn_Maria-bebe-el-vino.wav,,,,,,,,,,,,,,,,,,,,,,319.1948,321.8804,0,0,2.1753,,0,24,24,9,1,1,cuban,,,,,,,,,,,,,,,,,,,,,,,,,,,,,,,,,,,,,,,,,,,,,,,,,,,,,,,,
,,,,,,,,,672ce4b6444bb28ed1573e5a,Mexican,13 or older,"no, only English or Spanish",no,2025-07-23_06h01.00.232,empathy_intonation_perc,2024.2.4,Win32,60.24096386,672ce4b6444bb28ed1573e5a,687ed1b7e638a4cbf2f02089,6880aff28800b0f2939d405c,,,,,,,,,,,,,40,1,,./stim/wavs/puertorican_mismatch_interrogative-total-yn_El-hombre-mira-la-luna.wav,,,,,,,,,,,,,,,,,,,,,,321.8809,324.0827,1,1,1.6972,,0,25,25,39,1,1,puertorican,,,,,,,,,,,,,,,,,,,,,,,,,,,,,,,,,,,,,,,,,,,,,,,,,,,,,,,,
,,,,,,,,,672ce4b6444bb28ed1573e5a,Mexican,13 or older,"no, only English or Spanish",no,2025-07-23_06h01.00.232,empathy_intonation_perc,2024.2.4,Win32,60.24096386,672ce4b6444bb28ed1573e5a,687ed1b7e638a4cbf2f02089,6880aff28800b0f2939d405c,,,,,,,,,,,,,21,1,,./stim/wavs/puertorican_match_interrogative-total-yn_David-leia-el-libro.wav,,,,,,,,,,,,,,,,,,,,,,324.083,326.7521,1,1,2.1525,,0,26,26,20,1,1,puertorican,,,,,,,,,,,,,,,,,,,,,,,,,,,,,,,,,,,,,,,,,,,,,,,,,,,,,,,,
,,,,,,,,,672ce4b6444bb28ed1573e5a,Mexican,13 or older,"no, only English or Spanish",no,2025-07-23_06h01.00.232,empathy_intonation_perc,2024.2.4,Win32,60.24096386,672ce4b6444bb28ed1573e5a,687ed1b7e638a4cbf2f02089,6880aff28800b0f2939d405c,,,,,,,,,,,,,66,0,,./stim/wavs/puertorican_match_declarative-broad-focus_Emilio-ama-la-marcha.wav,,,,,,,,,,,,,,,,,,,,,,326.7525,329.5882,0,1,2.3297,,0,27,27,65,1,0,puertorican,,,,,,,,,,,,,,,,,,,,,,,,,,,,,,,,,,,,,,,,,,,,,,,,,,,,,,,,
,,,,,,,,,672ce4b6444bb28ed1573e5a,Mexican,13 or older,"no, only English or Spanish",no,2025-07-23_06h01.00.232,empathy_intonation_perc,2024.2.4,Win32,60.24096386,672ce4b6444bb28ed1573e5a,687ed1b7e638a4cbf2f02089,6880aff28800b0f2939d405c,,,,,,,,,,,,,38,1,,./stim/wavs/mexican_mismatch_interrogative-total-yn_Mi-novio-viene-del-lago.wav,,,,,,,,,,,,,,,,,,,,,,329.5885,331.5068,1,1,1.4135,,0,28,28,37,1,0,mexican,,,,,,,,,,,,,,,,,,,,,,,,,,,,,,,,,,,,,,,,,,,,,,,,,,,,,,,,
,,,,,,,,,672ce4b6444bb28ed1573e5a,Mexican,13 or older,"no, only English or Spanish",no,2025-07-23_06h01.00.232,empathy_intonation_perc,2024.2.4,Win32,60.24096386,672ce4b6444bb28ed1573e5a,687ed1b7e638a4cbf2f02089,6880aff28800b0f2939d405c,,,,,,,,,,,,,30,1,,./stim/wavs/cuban_mismatch_interrogative-total-yn_El-hombre-mira-la-luna.wav,,,,,,,,,,,,,,,,,,,,,,331.5071,333.8425,1,1,1.8309,,0,29,29,29,1,1,cuban,,,,,,,,,,,,,,,,,,,,,,,,,,,,,,,,,,,,,,,,,,,,,,,,,,,,,,,,
,,,,,,,,,672ce4b6444bb28ed1573e5a,Mexican,13 or older,"no, only English or Spanish",no,2025-07-23_06h01.00.232,empathy_intonation_perc,2024.2.4,Win32,60.24096386,672ce4b6444bb28ed1573e5a,687ed1b7e638a4cbf2f02089,6880aff28800b0f2939d405c,,,,,,,,,,,,,14,1,,./stim/wavs/mexican_match_interrogative-total-yn_Daniel-iba-a-Bolivia.wav,,,,,,,,,,,,,,,,,,,,,,333.8429,336.2782,1,1,1.9272,,0,30,30,13,1,0,mexican,,,,,,,,,,,,,,,,,,,,,,,,,,,,,,,,,,,,,,,,,,,,,,,,,,,,,,,,
,,,,,,,,,672ce4b6444bb28ed1573e5a,Mexican,13 or older,"no, only English or Spanish",no,2025-07-23_06h01.00.232,empathy_intonation_perc,2024.2.4,Win32,60.24096386,672ce4b6444bb28ed1573e5a,687ed1b7e638a4cbf2f02089,6880aff28800b0f2939d405c,,,,,,,,,,,,,67,0,,./stim/wavs/puertorican_match_declarative-broad-focus_Manuela-vende-el-carro.wav,,,,,,,,,,,,,,,,,,,,,,336.2786,338.6306,0,1,1.8435,,0,31,31,66,1,0,puertorican,,,,,,,,,,,,,,,,,,,,,,,,,,,,,,,,,,,,,,,,,,,,,,,,,,,,,,,,
,,,,,,,,,672ce4b6444bb28ed1573e5a,Mexican,13 or older,"no, only English or Spanish",no,2025-07-23_06h01.00.232,empathy_intonation_perc,2024.2.4,Win32,60.24096386,672ce4b6444bb28ed1573e5a,687ed1b7e638a4cbf2f02089,6880aff28800b0f2939d405c,,,,,,,,,,,,,76,0,,./stim/wavs/cuban_mismatch_declarative-broad-focus_La-nina-lava-el-plato.wav,,,,,,,,,,,,,,,,,,,,,,338.6311,341.083,0,1,1.9392,,0,32,32,75,1,0,cuban,,,,,,,,,,,,,,,,,,,,,,,,,,,,,,,,,,,,,,,,,,,,,,,,,,,,,,,,
,,,,,,,,,672ce4b6444bb28ed1573e5a,Mexican,13 or older,"no, only English or Spanish",no,2025-07-23_06h01.00.232,empathy_intonation_perc,2024.2.4,Win32,60.24096386,672ce4b6444bb28ed1573e5a,687ed1b7e638a4cbf2f02089,6880aff28800b0f2939d405c,,,,,,,,,,,,,62,0,,./stim/wavs/mexican_match_declarative-broad-focus_Marta-abre-el-regalo.wav,,,,,,,,,,,,,,,,,,,,,,341.0834,343.7525,0,1,2.1586,,0,33,33,61,1,0,mexican,,,,,,,,,,,,,,,,,,,,,,,,,,,,,,,,,,,,,,,,,,,,,,,,,,,,,,,,
,,,,,,,,,672ce4b6444bb28ed1573e5a,Mexican,13 or older,"no, only English or Spanish",no,2025-07-23_06h01.00.232,empathy_intonation_perc,2024.2.4,Win32,60.24096386,672ce4b6444bb28ed1573e5a,687ed1b7e638a4cbf2f02089,6880aff28800b0f2939d405c,,,,,,,,,,,,,32,1,,./stim/wavs/cuban_mismatch_interrogative-total-yn_Mi-madre-come-la-fruta.wav,,,,,,,,,,,,,,,,,,,,,,343.7528,346.5718,0,0,2.3053,,0,34,34,31,1,1,cuban,,,,,,,,,,,,,,,,,,,,,,,,,,,,,,,,,,,,,,,,,,,,,,,,,,,,,,,,
,,,,,,,,,672ce4b6444bb28ed1573e5a,Mexican,13 or older,"no, only English or Spanish",no,2025-07-23_06h01.00.232,empathy_intonation_perc,2024.2.4,Win32,60.24096386,672ce4b6444bb28ed1573e5a,687ed1b7e638a4cbf2f02089,6880aff28800b0f2939d405c,,,,,,,,,,,,,56,0,,./stim/wavs/cuban_match_declarative-broad-focus_Marta-abre-el-regalo.wav,,,,,,,,,,,,,,,,,,,,,,346.5722,349.9255,0,1,2.8457,,0,35,35,55,1,0,cuban,,,,,,,,,,,,,,,,,,,,,,,,,,,,,,,,,,,,,,,,,,,,,,,,,,,,,,,,
,,,,,,,,,672ce4b6444bb28ed1573e5a,Mexican,13 or older,"no, only English or Spanish",no,2025-07-23_06h01.00.232,empathy_intonation_perc,2024.2.4,Win32,60.24096386,672ce4b6444bb28ed1573e5a,687ed1b7e638a4cbf2f02089,6880aff28800b0f2939d405c,,,,,,,,,,,,,15,1,,./stim/wavs/mexican_match_interrogative-total-yn_David-leia-el-libro.wav,,,,,,,,,,,,,,,,,,,,,,349.9257,352.2611,1,1,1.8285,,0,36,36,14,1,0,mexican,,,,,,,,,,,,,,,,,,,,,,,,,,,,,,,,,,,,,,,,,,,,,,,,,,,,,,,,
,,,,,,,,,672ce4b6444bb28ed1573e5a,Mexican,13 or older,"no, only English or Spanish",no,2025-07-23_06h01.00.232,empathy_intonation_perc,2024.2.4,Win32,60.24096386,672ce4b6444bb28ed1573e5a,687ed1b7e638a4cbf2f02089,6880aff28800b0f2939d405c,,,,,,,,,,,,,79,0,,./stim/wavs/mexican_mismatch_declarative-broad-focus_El-bebe-comia-muy-bien.wav,,,,,,,,,,,,,,,,,,,,,,352.2614,355.0637,1,0,2.2761,,0,37,37,78,1,0,mexican,,,,,,,,,,,,,,,,,,,,,,,,,,,,,,,,,,,,,,,,,,,,,,,,,,,,,,,,
,,,,,,,,,672ce4b6444bb28ed1573e5a,Mexican,13 or older,"no, only English or Spanish",no,2025-07-23_06h01.00.232,empathy_intonation_perc,2024.2.4,Win32,60.24096386,672ce4b6444bb28ed1573e5a,687ed1b7e638a4cbf2f02089,6880aff28800b0f2939d405c,,,,,,,,,,,,,9,1,,./stim/wavs/cuban_match_interrogative-total-yn_Manuela-vende-el-carro.wav,,,,,,,,,,,,,,,,,,,,,,355.064,358.1669,1,1,2.5936,,0,38,38,8,1,1,cuban,,,,,,,,,,,,,,,,,,,,,,,,,,,,,,,,,,,,,,,,,,,,,,,,,,,,,,,,
,,,,,,,,,672ce4b6444bb28ed1573e5a,Mexican,13 or older,"no, only English or Spanish",no,2025-07-23_06h01.00.232,empathy_intonation_perc,2024.2.4,Win32,60.24096386,672ce4b6444bb28ed1573e5a,687ed1b7e638a4cbf2f02089,6880aff28800b0f2939d405c,,,,,,,,,,,,,22,1,,./stim/wavs/puertorican_match_interrogative-total-yn_Emilio-ama-la-marcha.wav,,,,,,,,,,,,,,,,,,,,,,358.1672,359.0176,1,1,0.3388,,0,39,39,21,1,1,puertorican,,,,,,,,,,,,,,,,,,,,,,,,,,,,,,,,,,,,,,,,,,,,,,,,,,,,,,,,
,,,,,,,,,672ce4b6444bb28ed1573e5a,Mexican,13 or older,"no, only English or Spanish",no,2025-07-23_06h01.00.232,empathy_intonation_perc,2024.2.4,Win32,60.24096386,672ce4b6444bb28ed1573e5a,687ed1b7e638a4cbf2f02089,6880aff28800b0f2939d405c,,,,,,,,,,,,,53,0,,./stim/wavs/cuban_match_declarative-broad-focus_Manuela-vende-el-carro.wav,,,,,,,,,,,,,,,,,,,,,,359.018,365.3573,0,1,5.824,,0,40,40,52,1,0,cuban,,,,,,,,,,,,,,,,,,,,,,,,,,,,,,,,,,,,,,,,,,,,,,,,,,,,,,,,
,,,,,,,,,672ce4b6444bb28ed1573e5a,Mexican,13 or older,"no, only English or Spanish",no,2025-07-23_06h01.00.232,empathy_intonation_perc,2024.2.4,Win32,60.24096386,672ce4b6444bb28ed1573e5a,687ed1b7e638a4cbf2f02089,6880aff28800b0f2939d405c,,,,,,,,,,,,,68,0,,./stim/wavs/puertorican_match_declarative-broad-focus_Maria-bebe-el-vino.wav,,,,,,,,,,,,,,,,,,,,,,365.3578,368.8442,0,1,2.9722,,0,41,41,67,1,0,puertorican,,,,,,,,,,,,,,,,,,,,,,,,,,,,,,,,,,,,,,,,,,,,,,,,,,,,,,,,
,,,,,,,,,672ce4b6444bb28ed1573e5a,Mexican,13 or older,"no, only English or Spanish",no,2025-07-23_06h01.00.232,empathy_intonation_perc,2024.2.4,Win32,60.24096386,672ce4b6444bb28ed1573e5a,687ed1b7e638a4cbf2f02089,6880aff28800b0f2939d405c,,,,,,,,,,,,,60,0,,./stim/wavs/mexican_match_declarative-broad-focus_Emilio-ama-la-marcha.wav,,,,,,,,,,,,,,,,,,,,,,368.8445,371.7137,0,1,2.3654,,0,42,42,59,1,0,mexican,,,,,,,,,,,,,,,,,,,,,,,,,,,,,,,,,,,,,,,,,,,,,,,,,,,,,,,,
,,,,,,,,,672ce4b6444bb28ed1573e5a,Mexican,13 or older,"no, only English or Spanish",no,2025-07-23_06h01.00.232,empathy_intonation_perc,2024.2.4,Win32,60.24096386,672ce4b6444bb28ed1573e5a,687ed1b7e638a4cbf2f02089,6880aff28800b0f2939d405c,,,,,,,,,,,,,77,0,,./stim/wavs/cuban_mismatch_declarative-broad-focus_Mi-novio-viene-del-lago.wav,,,,,,,,,,,,,,,,,,,,,,371.714,374.233,1,0,2.008,,0,43,43,76,1,0,cuban,,,,,,,,,,,,,,,,,,,,,,,,,,,,,,,,,,,,,,,,,,,,,,,,,,,,,,,,
,,,,,,,,,672ce4b6444bb28ed1573e5a,Mexican,13 or older,"no, only English or Spanish",no,2025-07-23_06h01.00.232,empathy_intonation_perc,2024.2.4,Win32,60.24096386,672ce4b6444bb28ed1573e5a,687ed1b7e638a4cbf2f02089,6880aff28800b0f2939d405c,,,,,,,,,,,,,52,0,,./stim/wavs/cuban_match_declarative-broad-focus_Daniel-iba-a-Bolivia.wav,,,,,,,,,,,,,,,,,,,,,,374.2332,377.5529,1,0,2.8031,,0,44,44,51,1,0,cuban,,,,,,,,,,,,,,,,,,,,,,,,,,,,,,,,,,,,,,,,,,,,,,,,,,,,,,,,
,,,,,,,,,672ce4b6444bb28ed1573e5a,Mexican,13 or older,"no, only English or Spanish",no,2025-07-23_06h01.00.232,empathy_intonation_perc,2024.2.4,Win32,60.24096386,672ce4b6444bb28ed1573e5a,687ed1b7e638a4cbf2f02089,6880aff28800b0f2939d405c,,,,,,,,,,,,,85,0,,./stim/wavs/puertorican_mismatch_declarative-broad-focus_El-hombre-mira-la-luna.wav,,,,,,,,,,,,,,,,,,,,,,377.5532,379.9585,1,0,1.902,,0,45,45,84,1,0,puertorican,,,,,,,,,,,,,,,,,,,,,,,,,,,,,,,,,,,,,,,,,,,,,,,,,,,,,,,,
,,,,,,,,,672ce4b6444bb28ed1573e5a,Mexican,13 or older,"no, only English or Spanish",no,2025-07-23_06h01.00.232,empathy_intonation_perc,2024.2.4,Win32,60.24096386,672ce4b6444bb28ed1573e5a,687ed1b7e638a4cbf2f02089,6880aff28800b0f2939d405c,,,,,,,,,,,,,29,1,,./stim/wavs/castilian_mismatch_interrogative-total-yn_Mi-tia-odia-la-lluvia.wav,,,,,,,,,,,,,,,,,,,,,,379.9588,382.6416,1,1,2.1658,,0,46,46,28,1,0,castilian,,,,,,,,,,,,,,,,,,,,,,,,,,,,,,,,,,,,,,,,,,,,,,,,,,,,,,,,
,,,,,,,,,672ce4b6444bb28ed1573e5a,Mexican,13 or older,"no, only English or Spanish",no,2025-07-23_06h01.00.232,empathy_intonation_perc,2024.2.4,Win32,60.24096386,672ce4b6444bb28ed1573e5a,687ed1b7e638a4cbf2f02089,6880aff28800b0f2939d405c,,,,,,,,,,,,,28,1,,./stim/wavs/castilian_mismatch_interrogative-total-yn_Mi-novio-viene-del-lago.wav,,,,,,,,,,,,,,,,,,,,,,382.6419,385.2941,1,1,2.1196,,0,47,47,27,1,0,castilian,,,,,,,,,,,,,,,,,,,,,,,,,,,,,,,,,,,,,,,,,,,,,,,,,,,,,,,,
,,,,,,,,,672ce4b6444bb28ed1573e5a,Mexican,13 or older,"no, only English or Spanish",no,2025-07-23_06h01.00.232,empathy_intonation_perc,2024.2.4,Win32,60.24096386,672ce4b6444bb28ed1573e5a,687ed1b7e638a4cbf2f02089,6880aff28800b0f2939d405c,,,,,,,,,,,,,87,0,,./stim/wavs/puertorican_mismatch_declarative-broad-focus_La-maestra-vive-en-Paris.wav,,,,,,,,,,,,,,,,,,,,,,385.2945,386.7957,0,1,0.9878,,0,48,48,86,1,0,puertorican,,,,,,,,,,,,,,,,,,,,,,,,,,,,,,,,,,,,,,,,,,,,,,,,,,,,,,,,
,,,,,,,,,672ce4b6444bb28ed1573e5a,Mexican,13 or older,"no, only English or Spanish",no,2025-07-23_06h01.00.232,empathy_intonation_perc,2024.2.4,Win32,60.24096386,672ce4b6444bb28ed1573e5a,687ed1b7e638a4cbf2f02089,6880aff28800b0f2939d405c,,,,,,,,,,,,,42,1,,./stim/wavs/puertorican_mismatch_interrogative-total-yn_La-maestra-vive-en-Paris.wav,,,,,,,,,,,,,,,,,,,,,,386.7959,389.1479,0,0,1.8216,,0,49,49,41,1,1,puertorican,,,,,,,,,,,,,,,,,,,,,,,,,,,,,,,,,,,,,,,,,,,,,,,,,,,,,,,,
,,,,,,,,,672ce4b6444bb28ed1573e5a,Mexican,13 or older,"no, only English or Spanish",no,2025-07-23_06h01.00.232,empathy_intonation_perc,2024.2.4,Win32,60.24096386,672ce4b6444bb28ed1573e5a,687ed1b7e638a4cbf2f02089,6880aff28800b0f2939d405c,,,,,,,,,,,,,23,1,,./stim/wavs/puertorican_match_interrogative-total-yn_Manuela-vende-el-carro.wav,,,,,,,,,,,,,,,,,,,,,,389.1482,392.1676,1,1,2.5099,,0,50,50,22,1,1,puertorican,,,,,,,,,,,,,,,,,,,,,,,,,,,,,,,,,,,,,,,,,,,,,,,,,,,,,,,,
,,,,,,,,,672ce4b6444bb28ed1573e5a,Mexican,13 or older,"no, only English or Spanish",no,2025-07-23_06h01.00.232,empathy_intonation_perc,2024.2.4,Win32,60.24096386,672ce4b6444bb28ed1573e5a,687ed1b7e638a4cbf2f02089,6880aff28800b0f2939d405c,,,,,,,,,,,,,33,1,,./stim/wavs/cuban_mismatch_interrogative-total-yn_Mi-novio-viene-del-lago.wav,,,,,,,,,,,,,,,,,,,,,,392.1679,395.5209,1,1,2.8366,,0,51,51,32,1,1,cuban,,,,,,,,,,,,,,,,,,,,,,,,,,,,,,,,,,,,,,,,,,,,,,,,,,,,,,,,
,,,,,,,,,672ce4b6444bb28ed1573e5a,Mexican,13 or older,"no, only English or Spanish",no,2025-07-23_06h01.00.232,empathy_intonation_perc,2024.2.4,Win32,60.24096386,672ce4b6444bb28ed1573e5a,687ed1b7e638a4cbf2f02089,6880aff28800b0f2939d405c,,,,,,,,,,,,,64,0,,./stim/wavs/puertorican_match_declarative-broad-focus_Daniel-iba-a-Bolivia.wav,,,,,,,,,,,,,,,,,,,,,,395.5214,399.2245,1,0,3.1929,,0,52,52,63,1,0,puertorican,,,,,,,,,,,,,,,,,,,,,,,,,,,,,,,,,,,,,,,,,,,,,,,,,,,,,,,,
,,,,,,,,,672ce4b6444bb28ed1573e5a,Mexican,13 or older,"no, only English or Spanish",no,2025-07-23_06h01.00.232,empathy_intonation_perc,2024.2.4,Win32,60.24096386,672ce4b6444bb28ed1573e5a,687ed1b7e638a4cbf2f02089,6880aff28800b0f2939d405c,,,,,,,,,,,,,2,1,,./stim/wavs/castilian_match_interrogative-total-yn_Emilio-ama-la-marcha.wav,,,,,,,,,,,,,,,,,,,,,,399.2249,402.995,1,1,3.2649,,0,53,53,1,1,0,castilian,,,,,,,,,,,,,,,,,,,,,,,,,,,,,,,,,,,,,,,,,,,,,,,,,,,,,,,,
,,,,,,,,,672ce4b6444bb28ed1573e5a,Mexican,13 or older,"no, only English or Spanish",no,2025-07-23_06h01.00.232,empathy_intonation_perc,2024.2.4,Win32,60.24096386,672ce4b6444bb28ed1573e5a,687ed1b7e638a4cbf2f02089,6880aff28800b0f2939d405c,,,,,,,,,,,,,4,1,,./stim/wavs/castilian_match_interrogative-total-yn_Maria-bebe-el-vino.wav,,,,,,,,,,,,,,,,,,,,,,402.9954,405.3808,1,1,1.8784,,0,54,54,3,1,0,castilian,,,,,,,,,,,,,,,,,,,,,,,,,,,,,,,,,,,,,,,,,,,,,,,,,,,,,,,,
,,,,,,,,,672ce4b6444bb28ed1573e5a,Mexican,13 or older,"no, only English or Spanish",no,2025-07-23_06h01.00.232,empathy_intonation_perc,2024.2.4,Win32,60.24096386,672ce4b6444bb28ed1573e5a,687ed1b7e638a4cbf2f02089,6880aff28800b0f2939d405c,,,,,,,,,,,,,37,1,,./stim/wavs/mexican_mismatch_interrogative-total-yn_La-maestra-vive-en-Paris.wav,,,,,,,,,,,,,,,,,,,,,,405.3812,408.2504,1,1,2.3567,,0,55,55,36,1,0,mexican,,,,,,,,,,,,,,,,,,,,,,,,,,,,,,,,,,,,,,,,,,,,,,,,,,,,,,,,
,,,,,,,,,672ce4b6444bb28ed1573e5a,Mexican,13 or older,"no, only English or Spanish",no,2025-07-23_06h01.00.232,empathy_intonation_perc,2024.2.4,Win32,60.24096386,672ce4b6444bb28ed1573e5a,687ed1b7e638a4cbf2f02089,6880aff28800b0f2939d405c,,,,,,,,,,,,,24,1,,./stim/wavs/puertorican_match_interrogative-total-yn_Maria-bebe-el-vino.wav,,,,,,,,,,,,,,,,,,,,,,408.2507,410.2189,0,0,1.4556,,0,56,56,23,1,1,puertorican,,,,,,,,,,,,,,,,,,,,,,,,,,,,,,,,,,,,,,,,,,,,,,,,,,,,,,,,
,,,,,,,,,672ce4b6444bb28ed1573e5a,Mexican,13 or older,"no, only English or Spanish",no,2025-07-23_06h01.00.232,empathy_intonation_perc,2024.2.4,Win32,60.24096386,672ce4b6444bb28ed1573e5a,687ed1b7e638a4cbf2f02089,6880aff28800b0f2939d405c,,,,,,,,,,,,,25,1,,./stim/wavs/castilian_mismatch_interrogative-total-yn_La-maestra-vive-en-Paris.wav,,,,,,,,,,,,,,,,,,,,,,410.2193,413.0718,1,1,2.3354,,0,57,57,24,1,0,castilian,,,,,,,,,,,,,,,,,,,,,,,,,,,,,,,,,,,,,,,,,,,,,,,,,,,,,,,,
,,,,,,,,,672ce4b6444bb28ed1573e5a,Mexican,13 or older,"no, only English or Spanish",no,2025-07-23_06h01.00.232,empathy_intonation_perc,2024.2.4,Win32,60.24096386,672ce4b6444bb28ed1573e5a,687ed1b7e638a4cbf2f02089,6880aff28800b0f2939d405c,,,,,,,,,,,,,46,0,,./stim/wavs/castilian_match_declarative-broad-focus_Emilio-ama-la-marcha.wav,,,,,,,,,,,,,,,,,,,,,,413.0723,416.3251,0,1,2.7457,,0,58,58,45,1,0,castilian,,,,,,,,,,,,,,,,,,,,,,,,,,,,,,,,,,,,,,,,,,,,,,,,,,,,,,,,
,,,,,,,,,672ce4b6444bb28ed1573e5a,Mexican,13 or older,"no, only English or Spanish",no,2025-07-23_06h01.00.232,empathy_intonation_perc,2024.2.4,Win32,60.24096386,672ce4b6444bb28ed1573e5a,687ed1b7e638a4cbf2f02089,6880aff28800b0f2939d405c,,,,,,,,,,,,,73,0,,./stim/wavs/castilian_mismatch_declarative-broad-focus_Mi-tia-odia-la-lluvia.wav,,,,,,,,,,,,,,,,,,,,,,416.3254,421.0967,0,1,4.2608,,0,59,59,72,1,0,castilian,,,,,,,,,,,,,,,,,,,,,,,,,,,,,,,,,,,,,,,,,,,,,,,,,,,,,,,,
,,,,,,,,,672ce4b6444bb28ed1573e5a,Mexican,13 or older,"no, only English or Spanish",no,2025-07-23_06h01.00.232,empathy_intonation_perc,2024.2.4,Win32,60.24096386,672ce4b6444bb28ed1573e5a,687ed1b7e638a4cbf2f02089,6880aff28800b0f2939d405c,,,,,,,,,,,,,57,0,,./stim/wavs/mexican_match_declarative-broad-focus_Ana-lleva-el-abrigo.wav,,,,,,,,,,,,,,,,,,,,,,421.0971,423.3488,1,0,1.7286,,0,60,60,56,1,0,mexican,,,,,,,,,,,,,,,,,,,,,,,,,,,,,,,,,,,,,,,,,,,,,,,,,,,,,,,,
,,,,,,,,,672ce4b6444bb28ed1573e5a,Mexican,13 or older,"no, only English or Spanish",no,2025-07-23_06h01.00.232,empathy_intonation_perc,2024.2.4,Win32,60.24096386,672ce4b6444bb28ed1573e5a,687ed1b7e638a4cbf2f02089,6880aff28800b0f2939d405c,,,,,,,,,,,,,86,0,,./stim/wavs/puertorican_mismatch_declarative-broad-focus_El-nino-oye-el-rio.wav,,,,,,,,,,,,,,,,,,,,,,423.3491,425.9346,1,0,2.069,,0,61,61,85,1,0,puertorican,,,,,,,,,,,,,,,,,,,,,,,,,,,,,,,,,,,,,,,,,,,,,,,,,,,,,,,,
,,,,,,,,,672ce4b6444bb28ed1573e5a,Mexican,13 or older,"no, only English or Spanish",no,2025-07-23_06h01.00.232,empathy_intonation_perc,2024.2.4,Win32,60.24096386,672ce4b6444bb28ed1573e5a,687ed1b7e638a4cbf2f02089,6880aff28800b0f2939d405c,,,,,,,,,,,,,31,1,,./stim/wavs/cuban_mismatch_interrogative-total-yn_El-nino-oye-el-rio.wav,,,,,,,,,,,,,,,,,,,,,,425.935,426.5855,1,1,0.139,,0,62,62,30,1,1,cuban,,,,,,,,,,,,,,,,,,,,,,,,,,,,,,,,,,,,,,,,,,,,,,,,,,,,,,,,
,,,,,,,,,672ce4b6444bb28ed1573e5a,Mexican,13 or older,"no, only English or Spanish",no,2025-07-23_06h01.00.232,empathy_intonation_perc,2024.2.4,Win32,60.24096386,672ce4b6444bb28ed1573e5a,687ed1b7e638a4cbf2f02089,6880aff28800b0f2939d405c,,,,,,,,,,,,,84,0,,./stim/wavs/puertorican_mismatch_declarative-broad-focus_El-bebe-comia-muy-bien.wav,,,,,,,,,,,,,,,,,,,,,,426.5858,427.1192,1,0,0.0003,,0,63,63,83,1,0,puertorican,,,,,,,,,,,,,,,,,,,,,,,,,,,,,,,,,,,,,,,,,,,,,,,,,,,,,,,,
,,,,,,,,,672ce4b6444bb28ed1573e5a,Mexican,13 or older,"no, only English or Spanish",no,2025-07-23_06h01.00.232,empathy_intonation_perc,2024.2.4,Win32,60.24096386,672ce4b6444bb28ed1573e5a,687ed1b7e638a4cbf2f02089,6880aff28800b0f2939d405c,,,,,,,,,,,,,45,0,,./stim/wavs/castilian_match_declarative-broad-focus_David-leia-el-libro.wav,,,,,,,,,,,,,,,,,,,,,,427.1195,427.6532,1,0,0.0264,,0,64,64,44,1,0,castilian,,,,,,,,,,,,,,,,,,,,,,,,,,,,,,,,,,,,,,,,,,,,,,,,,,,,,,,,
,,,,,,,,,672ce4b6444bb28ed1573e5a,Mexican,13 or older,"no, only English or Spanish",no,2025-07-23_06h01.00.232,empathy_intonation_perc,2024.2.4,Win32,60.24096386,672ce4b6444bb28ed1573e5a,687ed1b7e638a4cbf2f02089,6880aff28800b0f2939d405c,,,,,,,,,,,,,80,0,,./stim/wavs/mexican_mismatch_declarative-broad-focus_El-hombre-mira-la-luna.wav,,,,,,,,,,,,,,,,,,,,,,427.6535,429.4549,1,0,1.285,,0,65,65,79,1,0,mexican,,,,,,,,,,,,,,,,,,,,,,,,,,,,,,,,,,,,,,,,,,,,,,,,,,,,,,,,
,,,,,,,,,672ce4b6444bb28ed1573e5a,Mexican,13 or older,"no, only English or Spanish",no,2025-07-23_06h01.00.232,empathy_intonation_perc,2024.2.4,Win32,60.24096386,672ce4b6444bb28ed1573e5a,687ed1b7e638a4cbf2f02089,6880aff28800b0f2939d405c,,,,,,,,,,,,,47,0,,./stim/wavs/castilian_match_declarative-broad-focus_Manuela-vende-el-carro.wav,,,,,,,,,,,,,,,,,,,,,,429.4552,431.6072,0,1,1.6429,,0,66,66,46,1,0,castilian,,,,,,,,,,,,,,,,,,,,,,,,,,,,,,,,,,,,,,,,,,,,,,,,,,,,,,,,
,,,,,,,,,672ce4b6444bb28ed1573e5a,Mexican,13 or older,"no, only English or Spanish",no,2025-07-23_06h01.00.232,empathy_intonation_perc,2024.2.4,Win32,60.24096386,672ce4b6444bb28ed1573e5a,687ed1b7e638a4cbf2f02089,6880aff28800b0f2939d405c,,,,,,,,,,,,,88,0,,./stim/wavs/puertorican_mismatch_declarative-broad-focus_La-nina-lava-el-plato.wav,,,,,,,,,,,,,,,,,,,,,,431.6076,434.4098,0,1,2.2906,,0,67,67,87,1,0,puertorican,,,,,,,,,,,,,,,,,,,,,,,,,,,,,,,,,,,,,,,,,,,,,,,,,,,,,,,,
,,,,,,,,,672ce4b6444bb28ed1573e5a,Mexican,13 or older,"no, only English or Spanish",no,2025-07-23_06h01.00.232,empathy_intonation_perc,2024.2.4,Win32,60.24096386,672ce4b6444bb28ed1573e5a,687ed1b7e638a4cbf2f02089,6880aff28800b0f2939d405c,,,,,,,,,,,,,69,0,,./stim/wavs/castilian_mismatch_declarative-broad-focus_El-nino-oye-el-rio.wav,,,,,,,,,,,,,,,,,,,,,,434.4101,439.1312,0,1,4.2078,,0,68,68,68,1,0,castilian,,,,,,,,,,,,,,,,,,,,,,,,,,,,,,,,,,,,,,,,,,,,,,,,,,,,,,,,
,,,,,,,,,672ce4b6444bb28ed1573e5a,Mexican,13 or older,"no, only English or Spanish",no,2025-07-23_06h01.00.232,empathy_intonation_perc,2024.2.4,Win32,60.24096386,672ce4b6444bb28ed1573e5a,687ed1b7e638a4cbf2f02089,6880aff28800b0f2939d405c,,,,,,,,,,,,,41,1,,./stim/wavs/puertorican_mismatch_interrogative-total-yn_El-nino-oye-el-rio.wav,,,,,,,,,,,,,,,,,,,,,,439.1316,442.5679,0,0,2.9265,,0,69,69,40,1,1,puertorican,,,,,,,,,,,,,,,,,,,,,,,,,,,,,,,,,,,,,,,,,,,,,,,,,,,,,,,,
,,,,,,,,,672ce4b6444bb28ed1573e5a,Mexican,13 or older,"no, only English or Spanish",no,2025-07-23_06h01.00.232,empathy_intonation_perc,2024.2.4,Win32,60.24096386,672ce4b6444bb28ed1573e5a,687ed1b7e638a4cbf2f02089,6880aff28800b0f2939d405c,,,,,,,,,,,,,58,0,,./stim/wavs/mexican_match_declarative-broad-focus_Daniel-iba-a-Bolivia.wav,,,,,,,,,,,,,,,,,,,,,,442.5682,445.9714,0,1,2.8977,,0,70,70,57,1,0,mexican,,,,,,,,,,,,,,,,,,,,,,,,,,,,,,,,,,,,,,,,,,,,,,,,,,,,,,,,
,,,,,,,,,672ce4b6444bb28ed1573e5a,Mexican,13 or older,"no, only English or Spanish",no,2025-07-23_06h01.00.232,empathy_intonation_perc,2024.2.4,Win32,60.24096386,672ce4b6444bb28ed1573e5a,687ed1b7e638a4cbf2f02089,6880aff28800b0f2939d405c,,,,,,,,,,,,,20,1,,./stim/wavs/puertorican_match_interrogative-total-yn_Daniel-iba-a-Bolivia.wav,,,,,,,,,,,,,,,,,,,,,,445.9717,448.4238,0,0,1.9424,,0,71,71,19,1,1,puertorican,,,,,,,,,,,,,,,,,,,,,,,,,,,,,,,,,,,,,,,,,,,,,,,,,,,,,,,,
,,,,,,,,,672ce4b6444bb28ed1573e5a,Mexican,13 or older,"no, only English or Spanish",no,2025-07-23_06h01.00.232,empathy_intonation_perc,2024.2.4,Win32,60.24096386,672ce4b6444bb28ed1573e5a,687ed1b7e638a4cbf2f02089,6880aff28800b0f2939d405c,,,,,,,,,,,,,65,0,,./stim/wavs/puertorican_match_declarative-broad-focus_David-leia-el-libro.wav,,,,,,,,,,,,,,,,,,,,,,448.4241,450.7095,0,1,1.7779,,0,72,72,64,1,0,puertorican,,,,,,,,,,,,,,,,,,,,,,,,,,,,,,,,,,,,,,,,,,,,,,,,,,,,,,,,
,,,,,,,,,672ce4b6444bb28ed1573e5a,Mexican,13 or older,"no, only English or Spanish",no,2025-07-23_06h01.00.232,empathy_intonation_perc,2024.2.4,Win32,60.24096386,672ce4b6444bb28ed1573e5a,687ed1b7e638a4cbf2f02089,6880aff28800b0f2939d405c,,,,,,,,,,,,,18,1,,./stim/wavs/mexican_match_interrogative-total-yn_Marta-abre-el-regalo.wav,,,,,,,,,,,,,,,,,,,,,,450.7098,452.8452,1,1,1.6208,,0,73,73,17,1,0,mexican,,,,,,,,,,,,,,,,,,,,,,,,,,,,,,,,,,,,,,,,,,,,,,,,,,,,,,,,
,,,,,,,,,672ce4b6444bb28ed1573e5a,Mexican,13 or older,"no, only English or Spanish",no,2025-07-23_06h01.00.232,empathy_intonation_perc,2024.2.4,Win32,60.24096386,672ce4b6444bb28ed1573e5a,687ed1b7e638a4cbf2f02089,6880aff28800b0f2939d405c,,,,,,,,,,,,,12,1,,./stim/wavs/cuban_match_interrogative-total-yn_Marta-abre-el-regalo.wav,,,,,,,,,,,,,,,,,,,,,,452.8456,455.9149,1,1,2.557,,0,74,74,11,1,1,cuban,,,,,,,,,,,,,,,,,,,,,,,,,,,,,,,,,,,,,,,,,,,,,,,,,,,,,,,,
,,,,,,,,,672ce4b6444bb28ed1573e5a,Mexican,13 or older,"no, only English or Spanish",no,2025-07-23_06h01.00.232,empathy_intonation_perc,2024.2.4,Win32,60.24096386,672ce4b6444bb28ed1573e5a,687ed1b7e638a4cbf2f02089,6880aff28800b0f2939d405c,,,,,,,,,,,,,5,1,,./stim/wavs/castilian_match_interrogative-total-yn_Mariano-habla-del-tiempo.wav,,,,,,,,,,,,,,,,,,,,,,455.9152,459.2346,1,1,2.8153,,0,75,75,4,1,0,castilian,,,,,,,,,,,,,,,,,,,,,,,,,,,,,,,,,,,,,,,,,,,,,,,,,,,,,,,,
,,,,,,,,,672ce4b6444bb28ed1573e5a,Mexican,13 or older,"no, only English or Spanish",no,2025-07-23_06h01.00.232,empathy_intonation_perc,2024.2.4,Win32,60.24096386,672ce4b6444bb28ed1573e5a,687ed1b7e638a4cbf2f02089,6880aff28800b0f2939d405c,,,,,,,,,,,,,83,0,,./stim/wavs/mexican_mismatch_declarative-broad-focus_Mi-tia-odia-la-lluvia.wav,,,,,,,,,,,,,,,,,,,,,,459.2351,461.804,1,0,2.0551,,0,76,76,82,1,0,mexican,,,,,,,,,,,,,,,,,,,,,,,,,,,,,,,,,,,,,,,,,,,,,,,,,,,,,,,,
,,,,,,,,,672ce4b6444bb28ed1573e5a,Mexican,13 or older,"no, only English or Spanish",no,2025-07-23_06h01.00.232,empathy_intonation_perc,2024.2.4,Win32,60.24096386,672ce4b6444bb28ed1573e5a,687ed1b7e638a4cbf2f02089,6880aff28800b0f2939d405c,,,,,,,,,,,,,74,0,,./stim/wavs/cuban_mismatch_declarative-broad-focus_El-bebe-comia-muy-bien.wav,,,,,,,,,,,,,,,,,,,,,,461.8043,464.4233,0,1,2.1099,,0,77,77,73,1,0,cuban,,,,,,,,,,,,,,,,,,,,,,,,,,,,,,,,,,,,,,,,,,,,,,,,,,,,,,,,
,,,,,,,,,672ce4b6444bb28ed1573e5a,Mexican,13 or older,"no, only English or Spanish",no,2025-07-23_06h01.00.232,empathy_intonation_perc,2024.2.4,Win32,60.24096386,672ce4b6444bb28ed1573e5a,687ed1b7e638a4cbf2f02089,6880aff28800b0f2939d405c,,,,,,,,,,,,,7,1,,./stim/wavs/cuban_match_interrogative-total-yn_Ana-lleva-el-abrigo.wav,,,,,,,,,,,,,,,,,,,,,,464.4236,469.5283,0,0,4.5945,,0,78,78,6,1,1,cuban,,,,,,,,,,,,,,,,,,,,,,,,,,,,,,,,,,,,,,,,,,,,,,,,,,,,,,,,
,,,,,,,,,672ce4b6444bb28ed1573e5a,Mexican,13 or older,"no, only English or Spanish",no,2025-07-23_06h01.00.232,empathy_intonation_perc,2024.2.4,Win32,60.24096386,672ce4b6444bb28ed1573e5a,687ed1b7e638a4cbf2f02089,6880aff28800b0f2939d405c,,,,,,,,,,,,,54,0,,./stim/wavs/cuban_match_declarative-broad-focus_Maria-bebe-el-vino.wav,,,,,,,,,,,,,,,,,,,,,,469.5288,473.599,0,1,3.5373,,0,79,79,53,1,0,cuban,,,,,,,,,,,,,,,,,,,,,,,,,,,,,,,,,,,,,,,,,,,,,,,,,,,,,,,,
,,,,,,,,,672ce4b6444bb28ed1573e5a,Mexican,13 or older,"no, only English or Spanish",no,2025-07-23_06h01.00.232,empathy_intonation_perc,2024.2.4,Win32,60.24096386,672ce4b6444bb28ed1573e5a,687ed1b7e638a4cbf2f02089,6880aff28800b0f2939d405c,,,,,,,,,,,,,75,0,,./stim/wavs/cuban_mismatch_declarative-broad-focus_El-hombre-mira-la-luna.wav,,,,,,,,,,,,,,,,,,,,,,473.5994,485.1941,0,1,11.0828,,0,80,80,74,1,0,cuban,,,,,,,,,,,,,,,,,,,,,,,,,,,,,,,,,,,,,,,,,,,,,,,,,,,,,,,,
,,,,,,,,,672ce4b6444bb28ed1573e5a,Mexican,13 or older,"no, only English or Spanish",no,2025-07-23_06h01.00.232,empathy_intonation_perc,2024.2.4,Win32,60.24096386,672ce4b6444bb28ed1573e5a,687ed1b7e638a4cbf2f02089,6880aff28800b0f2939d405c,,,,,,,,,,,,,8,1,,./stim/wavs/cuban_match_interrogative-total-yn_Daniel-iba-a-Bolivia.wav,,,,,,,,,,,,,,,,,,,,,,485.1944,488.831,0,0,3.1031,,0,81,81,7,1,1,cuban,,,,,,,,,,,,,,,,,,,,,,,,,,,,,,,,,,,,,,,,,,,,,,,,,,,,,,,,
,,,,,,,,,672ce4b6444bb28ed1573e5a,Mexican,13 or older,"no, only English or Spanish",no,2025-07-23_06h01.00.232,empathy_intonation_perc,2024.2.4,Win32,60.24096386,672ce4b6444bb28ed1573e5a,687ed1b7e638a4cbf2f02089,6880aff28800b0f2939d405c,,,,,,,,,,,,,71,0,,./stim/wavs/castilian_mismatch_declarative-broad-focus_La-nina-lava-el-plato.wav,,,,,,,,,,,,,,,,,,,,,,488.8313,490.6995,1,0,1.3548,,0,82,82,70,1,0,castilian,,,,,,,,,,,,,,,,,,,,,,,,,,,,,,,,,,,,,,,,,,,,,,,,,,,,,,,,
,,,,,,,,,672ce4b6444bb28ed1573e5a,Mexican,13 or older,"no, only English or Spanish",no,2025-07-23_06h01.00.232,empathy_intonation_perc,2024.2.4,Win32,60.24096386,672ce4b6444bb28ed1573e5a,687ed1b7e638a4cbf2f02089,6880aff28800b0f2939d405c,,,,,,,,,,,,,39,1,,./stim/wavs/mexican_mismatch_interrogative-total-yn_Mi-tia-odia-la-lluvia.wav,,,,,,,,,,,,,,,,,,,,,,490.6999,491.9342,1,1,0.7183,,0,83,83,38,1,0,mexican,,,,,,,,,,,,,,,,,,,,,,,,,,,,,,,,,,,,,,,,,,,,,,,,,,,,,,,,
,,,,,,,,,672ce4b6444bb28ed1573e5a,Mexican,13 or older,"no, only English or Spanish",no,2025-07-23_06h01.00.232,empathy_intonation_perc,2024.2.4,Win32,60.24096386,672ce4b6444bb28ed1573e5a,687ed1b7e638a4cbf2f02089,6880aff28800b0f2939d405c,,,,,,,,,,,,,13,1,,./stim/wavs/mexican_match_interrogative-total-yn_Ana-lleva-el-abrigo.wav,,,,,,,,,,,,,,,,,,,,,,491.9346,493.3354,1,1,0.8916,,0,84,84,12,1,0,mexican,,,,,,,,,,,,,,,,,,,,,,,,,,,,,,,,,,,,,,,,,,,,,,,,,,,,,,,,
,,,,,,,,,672ce4b6444bb28ed1573e5a,Mexican,13 or older,"no, only English or Spanish",no,2025-07-23_06h01.00.232,empathy_intonation_perc,2024.2.4,Win32,60.24096386,672ce4b6444bb28ed1573e5a,687ed1b7e638a4cbf2f02089,6880aff28800b0f2939d405c,,,,,,,,,,,,,3,1,,./stim/wavs/castilian_match_interrogative-total-yn_Manuela-vende-el-carro.wav,,,,,,,,,,,,,,,,,,,,,,493.3357,494.6535,1,1,0.8023,,0,85,85,2,1,0,castilian,,,,,,,,,,,,,,,,,,,,,,,,,,,,,,,,,,,,,,,,,,,,,,,,,,,,,,,,
,,,,,,,,,672ce4b6444bb28ed1573e5a,Mexican,13 or older,"no, only English or Spanish",no,2025-07-23_06h01.00.232,empathy_intonation_perc,2024.2.4,Win32,60.24096386,672ce4b6444bb28ed1573e5a,687ed1b7e638a4cbf2f02089,6880aff28800b0f2939d405c,,,,,,,,,,,,,70,0,,./stim/wavs/castilian_mismatch_declarative-broad-focus_La-maestra-vive-en-Paris.wav,,,,,,,,,,,,,,,,,,,,,,494.6539,495.8712,1,0,0.7009,,0,86,86,69,1,0,castilian,,,,,,,,,,,,,,,,,,,,,,,,,,,,,,,,,,,,,,,,,,,,,,,,,,,,,,,,
,,,,,,,,,672ce4b6444bb28ed1573e5a,Mexican,13 or older,"no, only English or Spanish",no,2025-07-23_06h01.00.232,empathy_intonation_perc,2024.2.4,Win32,60.24096386,672ce4b6444bb28ed1573e5a,687ed1b7e638a4cbf2f02089,6880aff28800b0f2939d405c,,,,,,,,,,,,,1,1,,./stim/wavs/castilian_match_interrogative-total-yn_David-leia-el-libro.wav,,,,,,,,,,,,,,,,,,,,,,495.8717,497.1226,1,1,0.7465,,0,87,87,0,1,0,castilian,,,,,,,,,,,,,,,,,,,,,,,,,,,,,,,,,,,,,,,,,,,,,,,,,,,,,,,,
,,,,,,,"Great! Now we will move on. The next task consists of about 60 trials, in each of which you will see a string of letters. 
  
  Your task is to decide whether this is a real Spanish word or not.", (press the spacebar to continue),672ce4b6444bb28ed1573e5a,Mexican,13 or older,"no, only English or Spanish",no,2025-07-23_06h01.00.232,empathy_intonation_perc,2024.2.4,Win32,60.24096386,672ce4b6444bb28ed1573e5a,687ed1b7e638a4cbf2f02089,6880aff28800b0f2939d405c,,,,,,,,,,,,,,,,,,,,,,,,,,,,,,,,,,,,,,,,,,,,,,,,,,,497.127,508.067,0,0,0,0,1,,,,,,,,,,,,,,,,,,,,,,,,,,,,,,,,,,,,,,,,,,,,,,,,,
,,,,,,,"If you think it is an existing Spanish word, you type '1' (for 'REAL'), and if you think it is not an existing Spanish word, you type '0' (for 'FAKE').", (press the spacebar to continue),672ce4b6444bb28ed1573e5a,Mexican,13 or older,"no, only English or Spanish",no,2025-07-23_06h01.00.232,empathy_intonation_perc,2024.2.4,Win32,60.24096386,672ce4b6444bb28ed1573e5a,687ed1b7e638a4cbf2f02089,6880aff28800b0f2939d405c,,,,,,,,,,,,,,,,,,,,,,,,,,,,,,,,,,,,,,,,,,,,,,,,,,,508.0684,511.1868,0,1,1,1,1,,,,,,,,,,,,,,,,,,,,,,,,,,,,,,,,,,,,,,,,,,,,,,,,,
,,,,,,,"If you are sure that the word exists, even though you don’t know its exact meaning, you may still respond '1' (REAL). 
  
  But if you are not sure if it is an existing word, you should respond '0' (FAKE).
  
  Let's do a practice round...", (press the spacebar to continue),672ce4b6444bb28ed1573e5a,Mexican,13 or older,"no, only English or Spanish",no,2025-07-23_06h01.00.232,empathy_intonation_perc,2024.2.4,Win32,60.24096386,672ce4b6444bb28ed1573e5a,687ed1b7e638a4cbf2f02089,6880aff28800b0f2939d405c,,,,,,,,,,,,,,,,,,,,,,,,,,,,,,,,,,,,,,,,,,,,,,,,,,,511.1881,516.6589,0,2,2,2,1,,,,,,,,,,,,,,,,,,,,,,,,,,,,,,,,,,,,,,,,,,,,,,,,,
,,,,,,,,,672ce4b6444bb28ed1573e5a,Mexican,13 or older,"no, only English or Spanish",no,2025-07-23_06h01.00.232,empathy_intonation_perc,2024.2.4,Win32,60.24096386,672ce4b6444bb28ed1573e5a,687ed1b7e638a4cbf2f02089,6880aff28800b0f2939d405c,,,,,,,,,,,,,,0,,,,,,,,,,,,,,,,,,,,,,,,,,,,,,,,,,,,,,,,,,,,516.663,521.7474,1,0,4.5498,,521.7475,522.7483,0,0,0,0,1,0,depiste,REAL,FAKE,,,,,,,,,,,,,,,,,,,,,,,,,,,,,,,,
,,,,,,,,,672ce4b6444bb28ed1573e5a,Mexican,13 or older,"no, only English or Spanish",no,2025-07-23_06h01.00.232,empathy_intonation_perc,2024.2.4,Win32,60.24096386,672ce4b6444bb28ed1573e5a,687ed1b7e638a4cbf2f02089,6880aff28800b0f2939d405c,,,,,,,,,,,,,,1,,,,,,,,,,,,,,,,,,,,,,,,,,,,,,,,,,,,,,,,,,,,522.7492,524.967,1,1,1.693,,524.9675,525.9681,0,1,1,1,1,0,sí,REAL,FAKE,,,,,,,,,,,,,,,,,,,,,,,,,,,,,,,,
,,,,,,,,,672ce4b6444bb28ed1573e5a,Mexican,13 or older,"no, only English or Spanish",no,2025-07-23_06h01.00.232,empathy_intonation_perc,2024.2.4,Win32,60.24096386,672ce4b6444bb28ed1573e5a,687ed1b7e638a4cbf2f02089,6880aff28800b0f2939d405c,,,,,,,,,,,,,,0,,,,,,,,,,,,,,,,,,,,,,,,,,,,,,,,,,,,,,,,,,,,525.9691,528.1537,1,0,1.6573,,528.1542,529.1547,0,2,2,2,1,0,coné,REAL,FAKE,,,,,,,,,,,,,,,,,,,,,,,,,,,,,,,,
,,,,,,,,,672ce4b6444bb28ed1573e5a,Mexican,13 or older,"no, only English or Spanish",no,2025-07-23_06h01.00.232,empathy_intonation_perc,2024.2.4,Win32,60.24096386,672ce4b6444bb28ed1573e5a,687ed1b7e638a4cbf2f02089,6880aff28800b0f2939d405c,,,,,,,,,,,,,,0,,,,,,,,,,,,,,,,,,,,,,,,,,,,,,,,,,,,,,,,,,,,529.1553,530.9064,0,1,1.2227,,530.9069,531.9076,0,3,3,3,1,0,calpar,REAL,FAKE,,,,,,,,,,,,,,,,,,,,,,,,,,,,,,,,
,,,,,,,,,672ce4b6444bb28ed1573e5a,Mexican,13 or older,"no, only English or Spanish",no,2025-07-23_06h01.00.232,empathy_intonation_perc,2024.2.4,Win32,60.24096386,672ce4b6444bb28ed1573e5a,687ed1b7e638a4cbf2f02089,6880aff28800b0f2939d405c,,,,,,,,,,,,,,0,,,,,,,,,,,,,,,,,,,,,,,,,,,,,,,,,,,,,,,,,,,,531.9084,533.2922,0,1,0.8374,,533.2923,534.2931,0,4,4,4,1,0,joten,REAL,FAKE,,,,,,,,,,,,,,,,,,,,,,,,,,,,,,,,
,,,,,,,,,672ce4b6444bb28ed1573e5a,Mexican,13 or older,"no, only English or Spanish",no,2025-07-23_06h01.00.232,empathy_intonation_perc,2024.2.4,Win32,60.24096386,672ce4b6444bb28ed1573e5a,687ed1b7e638a4cbf2f02089,6880aff28800b0f2939d405c,,,,,,,,,,,,,,1,,,,,,,,,,,,,,,,,,,,,,,,,,,,,,,,,,,,,,,,,,,,534.2938,535.9782,0,0,1.1562,,535.9787,536.9792,0,5,5,5,1,0,sacapuntas,REAL,FAKE,,,,,,,,,,,,,,,,,,,,,,,,,,,,,,,,
,,,,,,,,,672ce4b6444bb28ed1573e5a,Mexican,13 or older,"no, only English or Spanish",no,2025-07-23_06h01.00.232,empathy_intonation_perc,2024.2.4,Win32,60.24096386,672ce4b6444bb28ed1573e5a,687ed1b7e638a4cbf2f02089,6880aff28800b0f2939d405c,,,,,,,,,,,,,,0,,,,,,,,,,,,,,,,,,,,,,,,,,,,,,,,,,,,,,,,,,,,536.9801,538.5975,0,1,1.0943,,538.5978,539.5984,0,6,6,6,1,0,priba,REAL,FAKE,,,,,,,,,,,,,,,,,,,,,,,,,,,,,,,,
,,,,,,,,,672ce4b6444bb28ed1573e5a,Mexican,13 or older,"no, only English or Spanish",no,2025-07-23_06h01.00.232,empathy_intonation_perc,2024.2.4,Win32,60.24096386,672ce4b6444bb28ed1573e5a,687ed1b7e638a4cbf2f02089,6880aff28800b0f2939d405c,,,,,,,,,,,,,,0,,,,,,,,,,,,,,,,,,,,,,,,,,,,,,,,,,,,,,,,,,,,539.599,542.6347,1,0,2.5068,,542.6352,543.6358,0,7,7,7,1,0,pelasula,REAL,FAKE,,,,,,,,,,,,,,,,,,,,,,,,,,,,,,,,
,,,,,,,,,672ce4b6444bb28ed1573e5a,Mexican,13 or older,"no, only English or Spanish",no,2025-07-23_06h01.00.232,empathy_intonation_perc,2024.2.4,Win32,60.24096386,672ce4b6444bb28ed1573e5a,687ed1b7e638a4cbf2f02089,6880aff28800b0f2939d405c,,,,,,,,,,,,,,1,,,,,,,,,,,,,,,,,,,,,,,,,,,,,,,,,,,,,,,,,,,,543.6364,545.5376,1,1,1.3683,,545.5382,546.5388,0,8,8,8,1,0,bien,REAL,FAKE,,,,,,,,,,,,,,,,,,,,,,,,,,,,,,,,
,,,,,,,,,672ce4b6444bb28ed1573e5a,Mexican,13 or older,"no, only English or Spanish",no,2025-07-23_06h01.00.232,empathy_intonation_perc,2024.2.4,Win32,60.24096386,672ce4b6444bb28ed1573e5a,687ed1b7e638a4cbf2f02089,6880aff28800b0f2939d405c,,,,,,,,,,,,,,1,,,,,,,,,,,,,,,,,,,,,,,,,,,,,,,,,,,,,,,,,,,,546.5396,548.2737,1,1,1.2145,,548.2738,549.2747,0,9,9,9,1,0,casa,REAL,FAKE,,,,,,,,,,,,,,,,,,,,,,,,,,,,,,,,
,,,,,,,,,672ce4b6444bb28ed1573e5a,Mexican,13 or older,"no, only English or Spanish",no,2025-07-23_06h01.00.232,empathy_intonation_perc,2024.2.4,Win32,60.24096386,672ce4b6444bb28ed1573e5a,687ed1b7e638a4cbf2f02089,6880aff28800b0f2939d405c,,,,,,,,,,,,,,0,,,,,,,,,,,,,,,,,,,,,,,,,,,,,,,,,,,,,,,,,,,,549.2754,551.2767,0,1,1.4704,,551.2768,552.2777,0,10,10,10,1,0,lejo,REAL,FAKE,,,,,,,,,,,,,,,,,,,,,,,,,,,,,,,,
,,,,,,,,,672ce4b6444bb28ed1573e5a,Mexican,13 or older,"no, only English or Spanish",no,2025-07-23_06h01.00.232,empathy_intonation_perc,2024.2.4,Win32,60.24096386,672ce4b6444bb28ed1573e5a,687ed1b7e638a4cbf2f02089,6880aff28800b0f2939d405c,,,,,,,,,,,,,,0,,,,,,,,,,,,,,,,,,,,,,,,,,,,,,,,,,,,,,,,,,,,552.2785,554.9972,1,0,2.1956,,554.9976,555.9981,0,11,11,11,1,0,pretantas,REAL,FAKE,,,,,,,,,,,,,,,,,,,,,,,,,,,,,,,,
,,,,,,,,,672ce4b6444bb28ed1573e5a,Mexican,13 or older,"no, only English or Spanish",no,2025-07-23_06h01.00.232,empathy_intonation_perc,2024.2.4,Win32,60.24096386,672ce4b6444bb28ed1573e5a,687ed1b7e638a4cbf2f02089,6880aff28800b0f2939d405c,,,,,,,,,,,,,,,,,,,,,,,,,,,,,,,,,,,,,,,,,,,,,,,,,,,,,,,,,,,,,,,,,,,,,,,,,,,555.9983,557.7336,,,,,,,,,,,,,,,,,,,,,,,,,,,,,,
,,,,,,,,,672ce4b6444bb28ed1573e5a,Mexican,13 or older,"no, only English or Spanish",no,2025-07-23_06h01.00.232,empathy_intonation_perc,2024.2.4,Win32,60.24096386,672ce4b6444bb28ed1573e5a,687ed1b7e638a4cbf2f02089,6880aff28800b0f2939d405c,,,,,,,,,,,,,,1,,,,,,,,,,,,,,,,,,,,,,,,,,,,,,,,,,,,,,,,,,,,,,,,,,,,,,,,,22,lacayo,,,,,557.74,559.3517,0,0,1.0753,,0,0,0,21,1,REAL,FAKE,,,,,,,,,,,,,,,,,
,,,,,,,,,672ce4b6444bb28ed1573e5a,Mexican,13 or older,"no, only English or Spanish",no,2025-07-23_06h01.00.232,empathy_intonation_perc,2024.2.4,Win32,60.24096386,672ce4b6444bb28ed1573e5a,687ed1b7e638a4cbf2f02089,6880aff28800b0f2939d405c,,,,,,,,,,,,,,1,,,,,,,,,,,,,,,,,,,,,,,,,,,,,,,,,,,,,,,,,,,,,,,,,,,,,,,,,46,martillo,,,,,559.3523,561.6206,1,1,1.7457,,0,1,1,45,1,REAL,FAKE,,,,,,,,,,,,,,,,,
,,,,,,,,,672ce4b6444bb28ed1573e5a,Mexican,13 or older,"no, only English or Spanish",no,2025-07-23_06h01.00.232,empathy_intonation_perc,2024.2.4,Win32,60.24096386,672ce4b6444bb28ed1573e5a,687ed1b7e638a4cbf2f02089,6880aff28800b0f2939d405c,,,,,,,,,,,,,,1,,,,,,,,,,,,,,,,,,,,,,,,,,,,,,,,,,,,,,,,,,,,,,,,,,,,,,,,,40,alfombra,,,,,561.6212,562.9385,0,0,0.7887,,0,2,2,39,1,REAL,FAKE,,,,,,,,,,,,,,,,,
,,,,,,,,,672ce4b6444bb28ed1573e5a,Mexican,13 or older,"no, only English or Spanish",no,2025-07-23_06h01.00.232,empathy_intonation_perc,2024.2.4,Win32,60.24096386,672ce4b6444bb28ed1573e5a,687ed1b7e638a4cbf2f02089,6880aff28800b0f2939d405c,,,,,,,,,,,,,,1,,,,,,,,,,,,,,,,,,,,,,,,,,,,,,,,,,,,,,,,,,,,,,,,,,,,,,,,,86,barato,,,,,562.9391,564.3065,1,1,0.8468,,0,3,3,85,1,REAL,FAKE,,,,,,,,,,,,,,,,,
,,,,,,,,,672ce4b6444bb28ed1573e5a,Mexican,13 or older,"no, only English or Spanish",no,2025-07-23_06h01.00.232,empathy_intonation_perc,2024.2.4,Win32,60.24096386,672ce4b6444bb28ed1573e5a,687ed1b7e638a4cbf2f02089,6880aff28800b0f2939d405c,,,,,,,,,,,,,,1,,,,,,,,,,,,,,,,,,,,,,,,,,,,,,,,,,,,,,,,,,,,,,,,,,,,,,,,,45,jilguero,,,,,564.307,565.8415,0,0,1.0014,,0,4,4,44,1,REAL,FAKE,,,,,,,,,,,,,,,,,
,,,,,,,,,672ce4b6444bb28ed1573e5a,Mexican,13 or older,"no, only English or Spanish",no,2025-07-23_06h01.00.232,empathy_intonation_perc,2024.2.4,Win32,60.24096386,672ce4b6444bb28ed1573e5a,687ed1b7e638a4cbf2f02089,6880aff28800b0f2939d405c,,,,,,,,,,,,,,0,,,,,,,,,,,,,,,,,,,,,,,,,,,,,,,,,,,,,,,,,,,,,,,,,,,,,,,,,63,esposante,,,,,565.8421,567.3595,1,0,0.9846,,0,5,5,62,1,REAL,FAKE,,,,,,,,,,,,,,,,,
,,,,,,,,,672ce4b6444bb28ed1573e5a,Mexican,13 or older,"no, only English or Spanish",no,2025-07-23_06h01.00.232,empathy_intonation_perc,2024.2.4,Win32,60.24096386,672ce4b6444bb28ed1573e5a,687ed1b7e638a4cbf2f02089,6880aff28800b0f2939d405c,,,,,,,,,,,,,,1,,,,,,,,,,,,,,,,,,,,,,,,,,,,,,,,,,,,,,,,,,,,,,,,,,,,,,,,,49,ganar,,,,,567.3601,569.0279,1,1,1.1458,,0,6,6,48,1,REAL,FAKE,,,,,,,,,,,,,,,,,
,,,,,,,,,672ce4b6444bb28ed1573e5a,Mexican,13 or older,"no, only English or Spanish",no,2025-07-23_06h01.00.232,empathy_intonation_perc,2024.2.4,Win32,60.24096386,672ce4b6444bb28ed1573e5a,687ed1b7e638a4cbf2f02089,6880aff28800b0f2939d405c,,,,,,,,,,,,,,1,,,,,,,,,,,,,,,,,,,,,,,,,,,,,,,,,,,,,,,,,,,,,,,,,,,,,,,,,20,ávido,,,,,569.0291,571.1969,0,0,1.6373,,0,7,7,19,1,REAL,FAKE,,,,,,,,,,,,,,,,,
,,,,,,,,,672ce4b6444bb28ed1573e5a,Mexican,13 or older,"no, only English or Spanish",no,2025-07-23_06h01.00.232,empathy_intonation_perc,2024.2.4,Win32,60.24096386,672ce4b6444bb28ed1573e5a,687ed1b7e638a4cbf2f02089,6880aff28800b0f2939d405c,,,,,,,,,,,,,,1,,,,,,,,,,,,,,,,,,,,,,,,,,,,,,,,,,,,,,,,,,,,,,,,,,,,,,,,,69,engatusar,,,,,571.1974,573.0484,1,1,1.3247,,0,8,8,68,1,REAL,FAKE,,,,,,,,,,,,,,,,,
,,,,,,,,,672ce4b6444bb28ed1573e5a,Mexican,13 or older,"no, only English or Spanish",no,2025-07-23_06h01.00.232,empathy_intonation_perc,2024.2.4,Win32,60.24096386,672ce4b6444bb28ed1573e5a,687ed1b7e638a4cbf2f02089,6880aff28800b0f2939d405c,,,,,,,,,,,,,,1,,,,,,,,,,,,,,,,,,,,,,,,,,,,,,,,,,,,,,,,,,,,,,,,,,,,,,,,,78,frondoso,,,,,573.0491,574.6335,0,0,1.0565,,0,9,9,77,1,REAL,FAKE,,,,,,,,,,,,,,,,,
,,,,,,,,,672ce4b6444bb28ed1573e5a,Mexican,13 or older,"no, only English or Spanish",no,2025-07-23_06h01.00.232,empathy_intonation_perc,2024.2.4,Win32,60.24096386,672ce4b6444bb28ed1573e5a,687ed1b7e638a4cbf2f02089,6880aff28800b0f2939d405c,,,,,,,,,,,,,,1,,,,,,,,,,,,,,,,,,,,,,,,,,,,,,,,,,,,,,,,,,,,,,,,,,,,,,,,,43,canela,,,,,574.6341,576.235,0,0,1.0719,,0,10,10,42,1,REAL,FAKE,,,,,,,,,,,,,,,,,
,,,,,,,,,672ce4b6444bb28ed1573e5a,Mexican,13 or older,"no, only English or Spanish",no,2025-07-23_06h01.00.232,empathy_intonation_perc,2024.2.4,Win32,60.24096386,672ce4b6444bb28ed1573e5a,687ed1b7e638a4cbf2f02089,6880aff28800b0f2939d405c,,,,,,,,,,,,,,0,,,,,,,,,,,,,,,,,,,,,,,,,,,,,,,,,,,,,,,,,,,,,,,,,,,,,,,,,30,alardio,,,,,576.2356,577.6865,1,0,0.9261,,0,11,11,29,1,REAL,FAKE,,,,,,,,,,,,,,,,,
,,,,,,,,,672ce4b6444bb28ed1573e5a,Mexican,13 or older,"no, only English or Spanish",no,2025-07-23_06h01.00.232,empathy_intonation_perc,2024.2.4,Win32,60.24096386,672ce4b6444bb28ed1573e5a,687ed1b7e638a4cbf2f02089,6880aff28800b0f2939d405c,,,,,,,,,,,,,,1,,,,,,,,,,,,,,,,,,,,,,,,,,,,,,,,,,,,,,,,,,,,,,,,,,,,,,,,,25,bisagra,,,,,577.6871,580.0391,0,0,1.8271,,0,12,12,24,1,REAL,FAKE,,,,,,,,,,,,,,,,,
,,,,,,,,,672ce4b6444bb28ed1573e5a,Mexican,13 or older,"no, only English or Spanish",no,2025-07-23_06h01.00.232,empathy_intonation_perc,2024.2.4,Win32,60.24096386,672ce4b6444bb28ed1573e5a,687ed1b7e638a4cbf2f02089,6880aff28800b0f2939d405c,,,,,,,,,,,,,,1,,,,,,,,,,,,,,,,,,,,,,,,,,,,,,,,,,,,,,,,,,,,,,,,,,,,,,,,,11,cenefa,,,,,580.0397,581.4569,0,0,0.868,,0,13,13,10,1,REAL,FAKE,,,,,,,,,,,,,,,,,
,,,,,,,,,672ce4b6444bb28ed1573e5a,Mexican,13 or older,"no, only English or Spanish",no,2025-07-23_06h01.00.232,empathy_intonation_perc,2024.2.4,Win32,60.24096386,672ce4b6444bb28ed1573e5a,687ed1b7e638a4cbf2f02089,6880aff28800b0f2939d405c,,,,,,,,,,,,,,1,,,,,,,,,,,,,,,,,,,,,,,,,,,,,,,,,,,,,,,,,,,,,,,,,,,,,,,,,88,acantilado,,,,,581.4575,582.7248,1,1,0.7444,,0,14,14,87,1,REAL,FAKE,,,,,,,,,,,,,,,,,
,,,,,,,,,672ce4b6444bb28ed1573e5a,Mexican,13 or older,"no, only English or Spanish",no,2025-07-23_06h01.00.232,empathy_intonation_perc,2024.2.4,Win32,60.24096386,672ce4b6444bb28ed1573e5a,687ed1b7e638a4cbf2f02089,6880aff28800b0f2939d405c,,,,,,,,,,,,,,1,,,,,,,,,,,,,,,,,,,,,,,,,,,,,,,,,,,,,,,,,,,,,,,,,,,,,,,,,54,fomentar,,,,,582.7254,583.9762,1,1,0.7244,,0,15,15,53,1,REAL,FAKE,,,,,,,,,,,,,,,,,
,,,,,,,,,672ce4b6444bb28ed1573e5a,Mexican,13 or older,"no, only English or Spanish",no,2025-07-23_06h01.00.232,empathy_intonation_perc,2024.2.4,Win32,60.24096386,672ce4b6444bb28ed1573e5a,687ed1b7e638a4cbf2f02089,6880aff28800b0f2939d405c,,,,,,,,,,,,,,0,,,,,,,,,,,,,,,,,,,,,,,,,,,,,,,,,,,,,,,,,,,,,,,,,,,,,,,,,23,lampera,,,,,583.9768,586.1285,0,1,1.6188,,0,16,16,22,1,REAL,FAKE,,,,,,,,,,,,,,,,,
,,,,,,,,,672ce4b6444bb28ed1573e5a,Mexican,13 or older,"no, only English or Spanish",no,2025-07-23_06h01.00.232,empathy_intonation_perc,2024.2.4,Win32,60.24096386,672ce4b6444bb28ed1573e5a,687ed1b7e638a4cbf2f02089,6880aff28800b0f2939d405c,,,,,,,,,,,,,,0,,,,,,,,,,,,,,,,,,,,,,,,,,,,,,,,,,,,,,,,,,,,,,,,,,,,,,,,,19,brecedad,,,,,586.1291,588.1803,0,1,1.5288,,0,17,17,18,1,REAL,FAKE,,,,,,,,,,,,,,,,,
,,,,,,,,,672ce4b6444bb28ed1573e5a,Mexican,13 or older,"no, only English or Spanish",no,2025-07-23_06h01.00.232,empathy_intonation_perc,2024.2.4,Win32,60.24096386,672ce4b6444bb28ed1573e5a,687ed1b7e638a4cbf2f02089,6880aff28800b0f2939d405c,,,,,,,,,,,,,,1,,,,,,,,,,,,,,,,,,,,,,,,,,,,,,,,,,,,,,,,,,,,,,,,,,,,,,,,,48,ladrón,,,,,588.1813,589.8986,1,1,1.189,,0,18,18,47,1,REAL,FAKE,,,,,,,,,,,,,,,,,
,,,,,,,,,672ce4b6444bb28ed1573e5a,Mexican,13 or older,"no, only English or Spanish",no,2025-07-23_06h01.00.232,empathy_intonation_perc,2024.2.4,Win32,60.24096386,672ce4b6444bb28ed1573e5a,687ed1b7e638a4cbf2f02089,6880aff28800b0f2939d405c,,,,,,,,,,,,,,1,,,,,,,,,,,,,,,,,,,,,,,,,,,,,,,,,,,,,,,,,,,,,,,,,,,,,,,,,64,orgulloso,,,,,589.8993,591.4169,0,0,0.9906,,0,19,19,63,1,REAL,FAKE,,,,,,,,,,,,,,,,,
,,,,,,,,,672ce4b6444bb28ed1573e5a,Mexican,13 or older,"no, only English or Spanish",no,2025-07-23_06h01.00.232,empathy_intonation_perc,2024.2.4,Win32,60.24096386,672ce4b6444bb28ed1573e5a,687ed1b7e638a4cbf2f02089,6880aff28800b0f2939d405c,,,,,,,,,,,,,,0,,,,,,,,,,,,,,,,,,,,,,,,,,,,,,,,,,,,,,,,,,,,,,,,,,,,,,,,,66,hacido,,,,,591.4176,592.835,1,0,0.8963,,0,20,20,65,1,REAL,FAKE,,,,,,,,,,,,,,,,,
,,,,,,,,,672ce4b6444bb28ed1573e5a,Mexican,13 or older,"no, only English or Spanish",no,2025-07-23_06h01.00.232,empathy_intonation_perc,2024.2.4,Win32,60.24096386,672ce4b6444bb28ed1573e5a,687ed1b7e638a4cbf2f02089,6880aff28800b0f2939d405c,,,,,,,,,,,,,,0,,,,,,,,,,,,,,,,,,,,,,,,,,,,,,,,,,,,,,,,,,,,,,,,,,,,,,,,,8,cadeña,,,,,592.8359,595.2874,1,0,1.9264,,0,21,21,7,1,REAL,FAKE,,,,,,,,,,,,,,,,,
,,,,,,,,,672ce4b6444bb28ed1573e5a,Mexican,13 or older,"no, only English or Spanish",no,2025-07-23_06h01.00.232,empathy_intonation_perc,2024.2.4,Win32,60.24096386,672ce4b6444bb28ed1573e5a,687ed1b7e638a4cbf2f02089,6880aff28800b0f2939d405c,,,,,,,,,,,,,,1,,,,,,,,,,,,,,,,,,,,,,,,,,,,,,,,,,,,,,,,,,,,,,,,,,,,,,,,,55,nevar,,,,,595.2881,596.6889,1,1,0.868,,0,22,22,54,1,REAL,FAKE,,,,,,,,,,,,,,,,,
,,,,,,,,,672ce4b6444bb28ed1573e5a,Mexican,13 or older,"no, only English or Spanish",no,2025-07-23_06h01.00.232,empathy_intonation_perc,2024.2.4,Win32,60.24096386,672ce4b6444bb28ed1573e5a,687ed1b7e638a4cbf2f02089,6880aff28800b0f2939d405c,,,,,,,,,,,,,,0,,,,,,,,,,,,,,,,,,,,,,,,,,,,,,,,,,,,,,,,,,,,,,,,,,,,,,,,,21,capillo,,,,,596.6895,598.1737,0,1,0.9522,,0,23,23,20,1,REAL,FAKE,,,,,,,,,,,,,,,,,
,,,,,,,,,672ce4b6444bb28ed1573e5a,Mexican,13 or older,"no, only English or Spanish",no,2025-07-23_06h01.00.232,empathy_intonation_perc,2024.2.4,Win32,60.24096386,672ce4b6444bb28ed1573e5a,687ed1b7e638a4cbf2f02089,6880aff28800b0f2939d405c,,,,,,,,,,,,,,1,,,,,,,,,,,,,,,,,,,,,,,,,,,,,,,,,,,,,,,,,,,,,,,,,,,,,,,,,61,seda,,,,,598.1744,599.9421,0,0,1.2435,,0,24,24,60,1,REAL,FAKE,,,,,,,,,,,,,,,,,
,,,,,,,,,672ce4b6444bb28ed1573e5a,Mexican,13 or older,"no, only English or Spanish",no,2025-07-23_06h01.00.232,empathy_intonation_perc,2024.2.4,Win32,60.24096386,672ce4b6444bb28ed1573e5a,687ed1b7e638a4cbf2f02089,6880aff28800b0f2939d405c,,,,,,,,,,,,,,0,,,,,,,,,,,,,,,,,,,,,,,,,,,,,,,,,,,,,,,,,,,,,,,,,,,,,,,,,72,pemición,,,,,599.943,601.7774,0,1,1.3007,,0,25,25,71,1,REAL,FAKE,,,,,,,,,,,,,,,,,
,,,,,,,,,672ce4b6444bb28ed1573e5a,Mexican,13 or older,"no, only English or Spanish",no,2025-07-23_06h01.00.232,empathy_intonation_perc,2024.2.4,Win32,60.24096386,672ce4b6444bb28ed1573e5a,687ed1b7e638a4cbf2f02089,6880aff28800b0f2939d405c,,,,,,,,,,,,,,0,,,,,,,,,,,,,,,,,,,,,,,,,,,,,,,,,,,,,,,,,,,,,,,,,,,,,,,,,10,antar,,,,,601.7782,604.2297,1,0,1.9278,,0,26,26,9,1,REAL,FAKE,,,,,,,,,,,,,,,,,
,,,,,,,,,672ce4b6444bb28ed1573e5a,Mexican,13 or older,"no, only English or Spanish",no,2025-07-23_06h01.00.232,empathy_intonation_perc,2024.2.4,Win32,60.24096386,672ce4b6444bb28ed1573e5a,687ed1b7e638a4cbf2f02089,6880aff28800b0f2939d405c,,,,,,,,,,,,,,1,,,,,,,,,,,,,,,,,,,,,,,,,,,,,,,,,,,,,,,,,,,,,,,,,,,,,,,,,80,hormiga,,,,,604.2304,605.5811,1,1,0.8195,,0,27,27,79,1,REAL,FAKE,,,,,,,,,,,,,,,,,
,,,,,,,,,672ce4b6444bb28ed1573e5a,Mexican,13 or older,"no, only English or Spanish",no,2025-07-23_06h01.00.232,empathy_intonation_perc,2024.2.4,Win32,60.24096386,672ce4b6444bb28ed1573e5a,687ed1b7e638a4cbf2f02089,6880aff28800b0f2939d405c,,,,,,,,,,,,,,1,,,,,,,,,,,,,,,,,,,,,,,,,,,,,,,,,,,,,,,,,,,,,,,,,,,,,,,,,14,yunque,,,,,605.5818,606.749,0,0,0.6362,,0,28,28,13,1,REAL,FAKE,,,,,,,,,,,,,,,,,
,,,,,,,,,672ce4b6444bb28ed1573e5a,Mexican,13 or older,"no, only English or Spanish",no,2025-07-23_06h01.00.232,empathy_intonation_perc,2024.2.4,Win32,60.24096386,672ce4b6444bb28ed1573e5a,687ed1b7e638a4cbf2f02089,6880aff28800b0f2939d405c,,,,,,,,,,,,,,0,,,,,,,,,,,,,,,,,,,,,,,,,,,,,,,,,,,,,,,,,,,,,,,,,,,,,,,,,29,decar,,,,,606.7496,609.4516,0,1,2.1724,,0,29,29,28,1,REAL,FAKE,,,,,,,,,,,,,,,,,
,,,,,,,,,672ce4b6444bb28ed1573e5a,Mexican,13 or older,"no, only English or Spanish",no,2025-07-23_06h01.00.232,empathy_intonation_perc,2024.2.4,Win32,60.24096386,672ce4b6444bb28ed1573e5a,687ed1b7e638a4cbf2f02089,6880aff28800b0f2939d405c,,,,,,,,,,,,,,1,,,,,,,,,,,,,,,,,,,,,,,,,,,,,,,,,,,,,,,,,,,,,,,,,,,,,,,,,90,clavel,,,,,609.4522,610.8865,0,0,0.9095,,0,30,30,89,1,REAL,FAKE,,,,,,,,,,,,,,,,,
,,,,,,,,,672ce4b6444bb28ed1573e5a,Mexican,13 or older,"no, only English or Spanish",no,2025-07-23_06h01.00.232,empathy_intonation_perc,2024.2.4,Win32,60.24096386,672ce4b6444bb28ed1573e5a,687ed1b7e638a4cbf2f02089,6880aff28800b0f2939d405c,,,,,,,,,,,,,,0,,,,,,,,,,,,,,,,,,,,,,,,,,,,,,,,,,,,,,,,,,,,,,,,,,,,,,,,,58,plaudir,,,,,610.8872,613.8394,0,1,2.4194,,0,31,31,57,1,REAL,FAKE,,,,,,,,,,,,,,,,,
,,,,,,,,,672ce4b6444bb28ed1573e5a,Mexican,13 or older,"no, only English or Spanish",no,2025-07-23_06h01.00.232,empathy_intonation_perc,2024.2.4,Win32,60.24096386,672ce4b6444bb28ed1573e5a,687ed1b7e638a4cbf2f02089,6880aff28800b0f2939d405c,,,,,,,,,,,,,,1,,,,,,,,,,,,,,,,,,,,,,,,,,,,,,,,,,,,,,,,,,,,,,,,,,,,,,,,,65,bizcocho,,,,,613.8402,615.6579,0,0,1.2899,,0,32,32,64,1,REAL,FAKE,,,,,,,,,,,,,,,,,
,,,,,,,,,672ce4b6444bb28ed1573e5a,Mexican,13 or older,"no, only English or Spanish",no,2025-07-23_06h01.00.232,empathy_intonation_perc,2024.2.4,Win32,60.24096386,672ce4b6444bb28ed1573e5a,687ed1b7e638a4cbf2f02089,6880aff28800b0f2939d405c,,,,,,,,,,,,,,0,,,,,,,,,,,,,,,,,,,,,,,,,,,,,,,,,,,,,,,,,,,,,,,,,,,,,,,,,70,temblo,,,,,615.6589,617.0261,1,0,0.8482,,0,33,33,69,1,REAL,FAKE,,,,,,,,,,,,,,,,,
,,,,,,,,,672ce4b6444bb28ed1573e5a,Mexican,13 or older,"no, only English or Spanish",no,2025-07-23_06h01.00.232,empathy_intonation_perc,2024.2.4,Win32,60.24096386,672ce4b6444bb28ed1573e5a,687ed1b7e638a4cbf2f02089,6880aff28800b0f2939d405c,,,,,,,,,,,,,,0,,,,,,,,,,,,,,,,,,,,,,,,,,,,,,,,,,,,,,,,,,,,,,,,,,,,,,,,,53,vegada,,,,,617.0267,618.5607,0,1,0.9847,,0,34,34,52,1,REAL,FAKE,,,,,,,,,,,,,,,,,
,,,,,,,,,672ce4b6444bb28ed1573e5a,Mexican,13 or older,"no, only English or Spanish",no,2025-07-23_06h01.00.232,empathy_intonation_perc,2024.2.4,Win32,60.24096386,672ce4b6444bb28ed1573e5a,687ed1b7e638a4cbf2f02089,6880aff28800b0f2939d405c,,,,,,,,,,,,,,1,,,,,,,,,,,,,,,,,,,,,,,,,,,,,,,,,,,,,,,,,,,,,,,,,,,,,,,,,51,candado,,,,,618.5614,619.9457,1,1,0.8565,,0,35,35,50,1,REAL,FAKE,,,,,,,,,,,,,,,,,
,,,,,,,,,672ce4b6444bb28ed1573e5a,Mexican,13 or older,"no, only English or Spanish",no,2025-07-23_06h01.00.232,empathy_intonation_perc,2024.2.4,Win32,60.24096386,672ce4b6444bb28ed1573e5a,687ed1b7e638a4cbf2f02089,6880aff28800b0f2939d405c,,,,,,,,,,,,,,1,,,,,,,,,,,,,,,,,,,,,,,,,,,,,,,,,,,,,,,,,,,,,,,,,,,,,,,,,71,polvoriento,,,,,619.9465,621.6639,0,0,1.1847,,0,36,36,70,1,REAL,FAKE,,,,,,,,,,,,,,,,,
,,,,,,,,,672ce4b6444bb28ed1573e5a,Mexican,13 or older,"no, only English or Spanish",no,2025-07-23_06h01.00.232,empathy_intonation_perc,2024.2.4,Win32,60.24096386,672ce4b6444bb28ed1573e5a,687ed1b7e638a4cbf2f02089,6880aff28800b0f2939d405c,,,,,,,,,,,,,,1,,,,,,,,,,,,,,,,,,,,,,,,,,,,,,,,,,,,,,,,,,,,,,,,,,,,,,,,,36,loro,,,,,621.6646,624.6169,1,1,2.4256,,0,37,37,35,1,REAL,FAKE,,,,,,,,,,,,,,,,,
,,,,,,,,,672ce4b6444bb28ed1573e5a,Mexican,13 or older,"no, only English or Spanish",no,2025-07-23_06h01.00.232,empathy_intonation_perc,2024.2.4,Win32,60.24096386,672ce4b6444bb28ed1573e5a,687ed1b7e638a4cbf2f02089,6880aff28800b0f2939d405c,,,,,,,,,,,,,,1,,,,,,,,,,,,,,,,,,,,,,,,,,,,,,,,,,,,,,,,,,,,,,,,,,,,,,,,,5,zapato,,,,,624.6178,627.1028,1,1,1.9524,,0,38,38,4,1,REAL,FAKE,,,,,,,,,,,,,,,,,
,,,,,,,,,672ce4b6444bb28ed1573e5a,Mexican,13 or older,"no, only English or Spanish",no,2025-07-23_06h01.00.232,empathy_intonation_perc,2024.2.4,Win32,60.24096386,672ce4b6444bb28ed1573e5a,687ed1b7e638a4cbf2f02089,6880aff28800b0f2939d405c,,,,,,,,,,,,,,1,,,,,,,,,,,,,,,,,,,,,,,,,,,,,,,,,,,,,,,,,,,,,,,,,,,,,,,,,57,tacaño,,,,,627.1038,628.8044,0,0,1.1789,,0,39,39,56,1,REAL,FAKE,,,,,,,,,,,,,,,,,
,,,,,,,,,672ce4b6444bb28ed1573e5a,Mexican,13 or older,"no, only English or Spanish",no,2025-07-23_06h01.00.232,empathy_intonation_perc,2024.2.4,Win32,60.24096386,672ce4b6444bb28ed1573e5a,687ed1b7e638a4cbf2f02089,6880aff28800b0f2939d405c,,,,,,,,,,,,,,0,,,,,,,,,,,,,,,,,,,,,,,,,,,,,,,,,,,,,,,,,,,,,,,,,,,,,,,,,82,empirador,,,,,628.8051,630.8898,1,0,1.5405,,0,40,40,81,1,REAL,FAKE,,,,,,,,,,,,,,,,,
,,,,,,,,,672ce4b6444bb28ed1573e5a,Mexican,13 or older,"no, only English or Spanish",no,2025-07-23_06h01.00.232,empathy_intonation_perc,2024.2.4,Win32,60.24096386,672ce4b6444bb28ed1573e5a,687ed1b7e638a4cbf2f02089,6880aff28800b0f2939d405c,,,,,,,,,,,,,,1,,,,,,,,,,,,,,,,,,,,,,,,,,,,,,,,,,,,,,,,,,,,,,,,,,,,,,,,,91,click the 1 key.,,,,,630.8908,633.5759,1,1,2.1595,,0,41,41,90,1,REAL,FAKE,,,,,,,,,,,,,,,,,
,,,,,,,,,672ce4b6444bb28ed1573e5a,Mexican,13 or older,"no, only English or Spanish",no,2025-07-23_06h01.00.232,empathy_intonation_perc,2024.2.4,Win32,60.24096386,672ce4b6444bb28ed1573e5a,687ed1b7e638a4cbf2f02089,6880aff28800b0f2939d405c,,,,,,,,,,,,,,1,,,,,,,,,,,,,,,,,,,,,,,,,,,,,,,,,,,,,,,,,,,,,,,,,,,,,,,,,39,torpe,,,,,633.5764,635.7114,0,0,1.6017,,0,42,42,38,1,REAL,FAKE,,,,,,,,,,,,,,,,,
,,,,,,,,,672ce4b6444bb28ed1573e5a,Mexican,13 or older,"no, only English or Spanish",no,2025-07-23_06h01.00.232,empathy_intonation_perc,2024.2.4,Win32,60.24096386,672ce4b6444bb28ed1573e5a,687ed1b7e638a4cbf2f02089,6880aff28800b0f2939d405c,,,,,,,,,,,,,,0,,,,,,,,,,,,,,,,,,,,,,,,,,,,,,,,,,,,,,,,,,,,,,,,,,,,,,,,,47,cartinar,,,,,635.7121,638.147,0,1,1.8974,,0,43,43,46,1,REAL,FAKE,,,,,,,,,,,,,,,,,
,,,,,,,,,672ce4b6444bb28ed1573e5a,Mexican,13 or older,"no, only English or Spanish",no,2025-07-23_06h01.00.232,empathy_intonation_perc,2024.2.4,Win32,60.24096386,672ce4b6444bb28ed1573e5a,687ed1b7e638a4cbf2f02089,6880aff28800b0f2939d405c,,,,,,,,,,,,,,0,,,,,,,,,,,,,,,,,,,,,,,,,,,,,,,,,,,,,,,,,,,,,,,,,,,,,,,,,42,cadallo,,,,,638.1477,639.6485,1,0,0.9678,,0,44,44,41,1,REAL,FAKE,,,,,,,,,,,,,,,,,
,,,,,,,,,672ce4b6444bb28ed1573e5a,Mexican,13 or older,"no, only English or Spanish",no,2025-07-23_06h01.00.232,empathy_intonation_perc,2024.2.4,Win32,60.24096386,672ce4b6444bb28ed1573e5a,687ed1b7e638a4cbf2f02089,6880aff28800b0f2939d405c,,,,,,,,,,,,,,0,,,,,,,,,,,,,,,,,,,,,,,,,,,,,,,,,,,,,,,,,,,,,,,,,,,,,,,,,87,grodo,,,,,639.6492,641.3837,1,0,1.2086,,0,45,45,86,1,REAL,FAKE,,,,,,,,,,,,,,,,,
,,,,,,,,,672ce4b6444bb28ed1573e5a,Mexican,13 or older,"no, only English or Spanish",no,2025-07-23_06h01.00.232,empathy_intonation_perc,2024.2.4,Win32,60.24096386,672ce4b6444bb28ed1573e5a,687ed1b7e638a4cbf2f02089,6880aff28800b0f2939d405c,,,,,,,,,,,,,,0,,,,,,,,,,,,,,,,,,,,,,,,,,,,,,,,,,,,,,,,,,,,,,,,,,,,,,,,,84,escuto,,,,,641.3843,642.7852,0,1,0.8679,,0,46,46,83,1,REAL,FAKE,,,,,,,,,,,,,,,,,
,,,,,,,,,672ce4b6444bb28ed1573e5a,Mexican,13 or older,"no, only English or Spanish",no,2025-07-23_06h01.00.232,empathy_intonation_perc,2024.2.4,Win32,60.24096386,672ce4b6444bb28ed1573e5a,687ed1b7e638a4cbf2f02089,6880aff28800b0f2939d405c,,,,,,,,,,,,,,1,,,,,,,,,,,,,,,,,,,,,,,,,,,,,,,,,,,,,,,,,,,,,,,,,,,,,,,,,34,aviso,,,,,642.7857,644.1697,0,0,0.8564,,0,47,47,33,1,REAL,FAKE,,,,,,,,,,,,,,,,,
,,,,,,,,,672ce4b6444bb28ed1573e5a,Mexican,13 or older,"no, only English or Spanish",no,2025-07-23_06h01.00.232,empathy_intonation_perc,2024.2.4,Win32,60.24096386,672ce4b6444bb28ed1573e5a,687ed1b7e638a4cbf2f02089,6880aff28800b0f2939d405c,,,,,,,,,,,,,,0,,,,,,,,,,,,,,,,,,,,,,,,,,,,,,,,,,,,,,,,,,,,,,,,,,,,,,,,,92,click the 0 key.,,,,,644.1705,645.8214,0,1,1.1198,,0,48,48,91,1,REAL,FAKE,,,,,,,,,,,,,,,,,
,,,,,,,,,672ce4b6444bb28ed1573e5a,Mexican,13 or older,"no, only English or Spanish",no,2025-07-23_06h01.00.232,empathy_intonation_perc,2024.2.4,Win32,60.24096386,672ce4b6444bb28ed1573e5a,687ed1b7e638a4cbf2f02089,6880aff28800b0f2939d405c,,,,,,,,,,,,,,0,,,,,,,,,,,,,,,,,,,,,,,,,,,,,,,,,,,,,,,,,,,,,,,,,,,,,,,,,33,pauca,,,,,645.822,647.1895,0,1,0.8442,,0,49,49,32,1,REAL,FAKE,,,,,,,,,,,,,,,,,
,,,,,,,,,672ce4b6444bb28ed1573e5a,Mexican,13 or older,"no, only English or Spanish",no,2025-07-23_06h01.00.232,empathy_intonation_perc,2024.2.4,Win32,60.24096386,672ce4b6444bb28ed1573e5a,687ed1b7e638a4cbf2f02089,6880aff28800b0f2939d405c,,,,,,,,,,,,,,0,,,,,,,,,,,,,,,,,,,,,,,,,,,,,,,,,,,,,,,,,,,,,,,,,,,,,,,,,27,acutación,,,,,647.1901,648.4907,1,0,0.7552,,0,50,50,26,1,REAL,FAKE,,,,,,,,,,,,,,,,,
,,,,,,,,,672ce4b6444bb28ed1573e5a,Mexican,13 or older,"no, only English or Spanish",no,2025-07-23_06h01.00.232,empathy_intonation_perc,2024.2.4,Win32,60.24096386,672ce4b6444bb28ed1573e5a,687ed1b7e638a4cbf2f02089,6880aff28800b0f2939d405c,,,,,,,,,,,,,,1,,,,,,,,,,,,,,,,,,,,,,,,,,,,,,,,,,,,,,,,,,,,,,,,,,,,,,,,,13,helar,,,,,648.4914,650.5094,0,0,1.4866,,0,51,51,12,1,REAL,FAKE,,,,,,,,,,,,,,,,,
,,,,,,,,,672ce4b6444bb28ed1573e5a,Mexican,13 or older,"no, only English or Spanish",no,2025-07-23_06h01.00.232,empathy_intonation_perc,2024.2.4,Win32,60.24096386,672ce4b6444bb28ed1573e5a,687ed1b7e638a4cbf2f02089,6880aff28800b0f2939d405c,,,,,,,,,,,,,,1,,,,,,,,,,,,,,,,,,,,,,,,,,,,,,,,,,,,,,,,,,,,,,,,,,,,,,,,,6,tergiversar,,,,,650.5101,652.1113,0,0,1.0681,,0,52,52,5,1,REAL,FAKE,,,,,,,,,,,,,,,,,
,,,,,,,,,672ce4b6444bb28ed1573e5a,Mexican,13 or older,"no, only English or Spanish",no,2025-07-23_06h01.00.232,empathy_intonation_perc,2024.2.4,Win32,60.24096386,672ce4b6444bb28ed1573e5a,687ed1b7e638a4cbf2f02089,6880aff28800b0f2939d405c,,,,,,,,,,,,,,0,,,,,,,,,,,,,,,,,,,,,,,,,,,,,,,,,,,,,,,,,,,,,,,,,,,,,,,,,35,rompido,,,,,652.1121,653.7126,0,1,1.0512,,0,53,53,34,1,REAL,FAKE,,,,,,,,,,,,,,,,,
,,,,,,,,,672ce4b6444bb28ed1573e5a,Mexican,13 or older,"no, only English or Spanish",no,2025-07-23_06h01.00.232,empathy_intonation_perc,2024.2.4,Win32,60.24096386,672ce4b6444bb28ed1573e5a,687ed1b7e638a4cbf2f02089,6880aff28800b0f2939d405c,,,,,,,,,,,,,,1,,,,,,,,,,,,,,,,,,,,,,,,,,,,,,,,,,,,,,,,,,,,,,,,,,,,,,,,,12,asesinato,,,,,653.7132,655.1806,1,1,0.9367,,0,54,54,11,1,REAL,FAKE,,,,,,,,,,,,,,,,,
,,,,,,,,,672ce4b6444bb28ed1573e5a,Mexican,13 or older,"no, only English or Spanish",no,2025-07-23_06h01.00.232,empathy_intonation_perc,2024.2.4,Win32,60.24096386,672ce4b6444bb28ed1573e5a,687ed1b7e638a4cbf2f02089,6880aff28800b0f2939d405c,,,,,,,,,,,,,,1,,,,,,,,,,,,,,,,,,,,,,,,,,,,,,,,,,,,,,,,,,,,,,,,,,,,,,,,,44,cuchara,,,,,655.1813,657.1995,0,0,1.4852,,0,55,55,43,1,REAL,FAKE,,,,,,,,,,,,,,,,,
,,,,,,,,,672ce4b6444bb28ed1573e5a,Mexican,13 or older,"no, only English or Spanish",no,2025-07-23_06h01.00.232,empathy_intonation_perc,2024.2.4,Win32,60.24096386,672ce4b6444bb28ed1573e5a,687ed1b7e638a4cbf2f02089,6880aff28800b0f2939d405c,,,,,,,,,,,,,,0,,,,,,,,,,,,,,,,,,,,,,,,,,,,,,,,,,,,,,,,,,,,,,,,,,,,,,,,,74,cintro,,,,,657.2002,659.8021,0,1,2.074,,0,56,56,73,1,REAL,FAKE,,,,,,,,,,,,,,,,,
,,,,,,,,,672ce4b6444bb28ed1573e5a,Mexican,13 or older,"no, only English or Spanish",no,2025-07-23_06h01.00.232,empathy_intonation_perc,2024.2.4,Win32,60.24096386,672ce4b6444bb28ed1573e5a,687ed1b7e638a4cbf2f02089,6880aff28800b0f2939d405c,,,,,,,,,,,,,,1,,,,,,,,,,,,,,,,,,,,,,,,,,,,,,,,,,,,,,,,,,,,,,,,,,,,,,,,,77,tiburón,,,,,659.8028,661.6705,1,1,1.343,,0,57,57,76,1,REAL,FAKE,,,,,,,,,,,,,,,,,
,,,,,,,,,672ce4b6444bb28ed1573e5a,Mexican,13 or older,"no, only English or Spanish",no,2025-07-23_06h01.00.232,empathy_intonation_perc,2024.2.4,Win32,60.24096386,672ce4b6444bb28ed1573e5a,687ed1b7e638a4cbf2f02089,6880aff28800b0f2939d405c,,,,,,,,,,,,,,1,,,,,,,,,,,,,,,,,,,,,,,,,,,,,,,,,,,,,,,,,,,,,,,,,,,,,,,,,2,pellizcar,,,,,661.6712,663.0553,0,0,0.8512,,0,58,58,1,1,REAL,FAKE,,,,,,,,,,,,,,,,,
,,,,,,,,,672ce4b6444bb28ed1573e5a,Mexican,13 or older,"no, only English or Spanish",no,2025-07-23_06h01.00.232,empathy_intonation_perc,2024.2.4,Win32,60.24096386,672ce4b6444bb28ed1573e5a,687ed1b7e638a4cbf2f02089,6880aff28800b0f2939d405c,,,,,,,,,,,,,,1,,,,,,,,,,,,,,,,,,,,,,,,,,,,,,,,,,,,,,,,,,,,,,,,,,,,,,,,,73,hervidor,,,,,663.0559,664.8738,0,0,1.2901,,0,59,59,72,1,REAL,FAKE,,,,,,,,,,,,,,,,,
,,,,,,,,,672ce4b6444bb28ed1573e5a,Mexican,13 or older,"no, only English or Spanish",no,2025-07-23_06h01.00.232,empathy_intonation_perc,2024.2.4,Win32,60.24096386,672ce4b6444bb28ed1573e5a,687ed1b7e638a4cbf2f02089,6880aff28800b0f2939d405c,,,,,,,,,,,,,,1,,,,,,,,,,,,,,,,,,,,,,,,,,,,,,,,,,,,,,,,,,,,,,,,,,,,,,,,,81,pozo,,,,,664.8744,666.4587,1,1,1.0553,,0,60,60,80,1,REAL,FAKE,,,,,,,,,,,,,,,,,
,,,,,,,,,672ce4b6444bb28ed1573e5a,Mexican,13 or older,"no, only English or Spanish",no,2025-07-23_06h01.00.232,empathy_intonation_perc,2024.2.4,Win32,60.24096386,672ce4b6444bb28ed1573e5a,687ed1b7e638a4cbf2f02089,6880aff28800b0f2939d405c,,,,,,,,,,,,,,0,,,,,,,,,,,,,,,,,,,,,,,,,,,,,,,,,,,,,,,,,,,,,,,,,,,,,,,,,79,tropaje,,,,,666.4594,669.2282,1,0,2.2388,,0,61,61,78,1,REAL,FAKE,,,,,,,,,,,,,,,,,
,,,,,,,,,672ce4b6444bb28ed1573e5a,Mexican,13 or older,"no, only English or Spanish",no,2025-07-23_06h01.00.232,empathy_intonation_perc,2024.2.4,Win32,60.24096386,672ce4b6444bb28ed1573e5a,687ed1b7e638a4cbf2f02089,6880aff28800b0f2939d405c,,,,,,,,,,,,,,0,,,,,,,,,,,,,,,,,,,,,,,,,,,,,,,,,,,,,,,,,,,,,,,,,,,,,,,,,16,abracer,,,,,669.2288,670.4824,0,1,0.7341,,0,62,62,15,1,REAL,FAKE,,,,,,,,,,,,,,,,,
,,,,,,,,,672ce4b6444bb28ed1573e5a,Mexican,13 or older,"no, only English or Spanish",no,2025-07-23_06h01.00.232,empathy_intonation_perc,2024.2.4,Win32,60.24096386,672ce4b6444bb28ed1573e5a,687ed1b7e638a4cbf2f02089,6880aff28800b0f2939d405c,,,,,,,,,,,,,,0,,,,,,,,,,,,,,,,,,,,,,,,,,,,,,,,,,,,,,,,,,,,,,,,,,,,,,,,,1,terzo,,,,,670.483,671.9642,0,1,0.9374,,0,63,63,0,1,REAL,FAKE,,,,,,,,,,,,,,,,,
,,,,,,,,,672ce4b6444bb28ed1573e5a,Mexican,13 or older,"no, only English or Spanish",no,2025-07-23_06h01.00.232,empathy_intonation_perc,2024.2.4,Win32,60.24096386,672ce4b6444bb28ed1573e5a,687ed1b7e638a4cbf2f02089,6880aff28800b0f2939d405c,,,,,,,,,,,,,,1,,,,,,,,,,,,,,,,,,,,,,,,,,,,,,,,,,,,,,,,,,,,,,,,,,,,,,,,,28,merodear,,,,,671.9648,674.3332,0,0,1.8371,,0,64,64,27,1,REAL,FAKE,,,,,,,,,,,,,,,,,
,,,,,,,,,672ce4b6444bb28ed1573e5a,Mexican,13 or older,"no, only English or Spanish",no,2025-07-23_06h01.00.232,empathy_intonation_perc,2024.2.4,Win32,60.24096386,672ce4b6444bb28ed1573e5a,687ed1b7e638a4cbf2f02089,6880aff28800b0f2939d405c,,,,,,,,,,,,,,1,,,,,,,,,,,,,,,,,,,,,,,,,,,,,,,,,,,,,,,,,,,,,,,,,,,,,,,,,9,hacha,,,,,674.3337,675.7346,0,0,0.8759,,0,65,65,8,1,REAL,FAKE,,,,,,,,,,,,,,,,,
,,,,,,,,,672ce4b6444bb28ed1573e5a,Mexican,13 or older,"no, only English or Spanish",no,2025-07-23_06h01.00.232,empathy_intonation_perc,2024.2.4,Win32,60.24096386,672ce4b6444bb28ed1573e5a,687ed1b7e638a4cbf2f02089,6880aff28800b0f2939d405c,,,,,,,,,,,,,,1,,,,,,,,,,,,,,,,,,,,,,,,,,,,,,,,,,,,,,,,,,,,,,,,,,,,,,,,,24,látigo,,,,,675.7353,677.4062,0,0,1.1513,,0,66,66,23,1,REAL,FAKE,,,,,,,,,,,,,,,,,
,,,,,,,,,672ce4b6444bb28ed1573e5a,Mexican,13 or older,"no, only English or Spanish",no,2025-07-23_06h01.00.232,empathy_intonation_perc,2024.2.4,Win32,60.24096386,672ce4b6444bb28ed1573e5a,687ed1b7e638a4cbf2f02089,6880aff28800b0f2939d405c,,,,,,,,,,,,,,0,,,,,,,,,,,,,,,,,,,,,,,,,,,,,,,,,,,,,,,,,,,,,,,,,,,,,,,,,18,arsa,,,,,677.4068,678.7876,0,1,0.8458,,0,67,67,17,1,REAL,FAKE,,,,,,,,,,,,,,,,,
,,,,,,,,,672ce4b6444bb28ed1573e5a,Mexican,13 or older,"no, only English or Spanish",no,2025-07-23_06h01.00.232,empathy_intonation_perc,2024.2.4,Win32,60.24096386,672ce4b6444bb28ed1573e5a,687ed1b7e638a4cbf2f02089,6880aff28800b0f2939d405c,,,,,,,,,,,,,,1,,,,,,,,,,,,,,,,,,,,,,,,,,,,,,,,,,,,,,,,,,,,,,,,,,,,,,,,,68,alegre,,,,,678.7882,680.1725,1,1,0.8538,,0,68,68,67,1,REAL,FAKE,,,,,,,,,,,,,,,,,
,,,,,,,,,672ce4b6444bb28ed1573e5a,Mexican,13 or older,"no, only English or Spanish",no,2025-07-23_06h01.00.232,empathy_intonation_perc,2024.2.4,Win32,60.24096386,672ce4b6444bb28ed1573e5a,687ed1b7e638a4cbf2f02089,6880aff28800b0f2939d405c,,,,,,,,,,,,,,1,,,,,,,,,,,,,,,,,,,,,,,,,,,,,,,,,,,,,,,,,,,,,,,,,,,,,,,,,83,guante,,,,,680.1731,681.9575,0,0,1.261,,0,69,69,82,1,REAL,FAKE,,,,,,,,,,,,,,,,,
,,,,,,,,,672ce4b6444bb28ed1573e5a,Mexican,13 or older,"no, only English or Spanish",no,2025-07-23_06h01.00.232,empathy_intonation_perc,2024.2.4,Win32,60.24096386,672ce4b6444bb28ed1573e5a,687ed1b7e638a4cbf2f02089,6880aff28800b0f2939d405c,,,,,,,,,,,,,,1,,,,,,,,,,,,,,,,,,,,,,,,,,,,,,,,,,,,,,,,,,,,,,,,,,,,,,,,,60,matar,,,,,681.9581,683.3757,0,0,0.8846,,0,70,70,59,1,REAL,FAKE,,,,,,,,,,,,,,,,,
,,,,,,,,,672ce4b6444bb28ed1573e5a,Mexican,13 or older,"no, only English or Spanish",no,2025-07-23_06h01.00.232,empathy_intonation_perc,2024.2.4,Win32,60.24096386,672ce4b6444bb28ed1573e5a,687ed1b7e638a4cbf2f02089,6880aff28800b0f2939d405c,,,,,,,,,,,,,,1,,,,,,,,,,,,,,,,,,,,,,,,,,,,,,,,,,,,,,,,,,,,,,,,,,,,,,,,,38,estornudar,,,,,683.3763,685.3109,1,1,1.4018,,0,71,71,37,1,REAL,FAKE,,,,,,,,,,,,,,,,,
,,,,,,,,,672ce4b6444bb28ed1573e5a,Mexican,13 or older,"no, only English or Spanish",no,2025-07-23_06h01.00.232,empathy_intonation_perc,2024.2.4,Win32,60.24096386,672ce4b6444bb28ed1573e5a,687ed1b7e638a4cbf2f02089,6880aff28800b0f2939d405c,,,,,,,,,,,,,,0,,,,,,,,,,,,,,,,,,,,,,,,,,,,,,,,,,,,,,,,,,,,,,,,,,,,,,,,,17,floroso,,,,,685.3116,686.562,1,0,0.7305,,0,72,72,16,1,REAL,FAKE,,,,,,,,,,,,,,,,,
,,,,,,,,,672ce4b6444bb28ed1573e5a,Mexican,13 or older,"no, only English or Spanish",no,2025-07-23_06h01.00.232,empathy_intonation_perc,2024.2.4,Win32,60.24096386,672ce4b6444bb28ed1573e5a,687ed1b7e638a4cbf2f02089,6880aff28800b0f2939d405c,,,,,,,,,,,,,,0,,,,,,,,,,,,,,,,,,,,,,,,,,,,,,,,,,,,,,,,,,,,,,,,,,,,,,,,,50,flamida,,,,,686.5628,687.8135,1,0,0.7273,,0,73,73,49,1,REAL,FAKE,,,,,,,,,,,,,,,,,
,,,,,,,,,672ce4b6444bb28ed1573e5a,Mexican,13 or older,"no, only English or Spanish",no,2025-07-23_06h01.00.232,empathy_intonation_perc,2024.2.4,Win32,60.24096386,672ce4b6444bb28ed1573e5a,687ed1b7e638a4cbf2f02089,6880aff28800b0f2939d405c,,,,,,,,,,,,,,1,,,,,,,,,,,,,,,,,,,,,,,,,,,,,,,,,,,,,,,,,,,,,,,,,,,,,,,,,62,flaco,,,,,687.8141,688.6809,0,0,0.3402,,0,74,74,61,1,REAL,FAKE,,,,,,,,,,,,,,,,,
,,,,,,,,,672ce4b6444bb28ed1573e5a,Mexican,13 or older,"no, only English or Spanish",no,2025-07-23_06h01.00.232,empathy_intonation_perc,2024.2.4,Win32,60.24096386,672ce4b6444bb28ed1573e5a,687ed1b7e638a4cbf2f02089,6880aff28800b0f2939d405c,,,,,,,,,,,,,,0,,,,,,,,,,,,,,,,,,,,,,,,,,,,,,,,,,,,,,,,,,,,,,,,,,,,,,,,,32,fatacidad,,,,,688.6816,689.8321,1,0,0.6244,,0,75,75,31,1,REAL,FAKE,,,,,,,,,,,,,,,,,
,,,,,,,,,672ce4b6444bb28ed1573e5a,Mexican,13 or older,"no, only English or Spanish",no,2025-07-23_06h01.00.232,empathy_intonation_perc,2024.2.4,Win32,60.24096386,672ce4b6444bb28ed1573e5a,687ed1b7e638a4cbf2f02089,6880aff28800b0f2939d405c,,,,,,,,,,,,,,1,,,,,,,,,,,,,,,,,,,,,,,,,,,,,,,,,,,,,,,,,,,,,,,,,,,,,,,,,52,camisa,,,,,689.8327,690.8497,0,0,0.4842,,0,76,76,51,1,REAL,FAKE,,,,,,,,,,,,,,,,,
,,,,,,,,,672ce4b6444bb28ed1573e5a,Mexican,13 or older,"no, only English or Spanish",no,2025-07-23_06h01.00.232,empathy_intonation_perc,2024.2.4,Win32,60.24096386,672ce4b6444bb28ed1573e5a,687ed1b7e638a4cbf2f02089,6880aff28800b0f2939d405c,,,,,,,,,,,,,,1,,,,,,,,,,,,,,,,,,,,,,,,,,,,,,,,,,,,,,,,,,,,,,,,,,,,,,,,,7,pésimo,,,,,690.8504,691.784,1,1,0.4075,,0,77,77,6,1,REAL,FAKE,,,,,,,,,,,,,,,,,
,,,,,,,,,672ce4b6444bb28ed1573e5a,Mexican,13 or older,"no, only English or Spanish",no,2025-07-23_06h01.00.232,empathy_intonation_perc,2024.2.4,Win32,60.24096386,672ce4b6444bb28ed1573e5a,687ed1b7e638a4cbf2f02089,6880aff28800b0f2939d405c,,,,,,,,,,,,,,1,,,,,,,,,,,,,,,,,,,,,,,,,,,,,,,,,,,,,,,,,,,,,,,,,,,,,,,,,15,regar,,,,,691.7846,693.0019,0,0,0.6895,,0,78,78,14,1,REAL,FAKE,,,,,,,,,,,,,,,,,
,,,,,,,,,672ce4b6444bb28ed1573e5a,Mexican,13 or older,"no, only English or Spanish",no,2025-07-23_06h01.00.232,empathy_intonation_perc,2024.2.4,Win32,60.24096386,672ce4b6444bb28ed1573e5a,687ed1b7e638a4cbf2f02089,6880aff28800b0f2939d405c,,,,,,,,,,,,,,1,,,,,,,,,,,,,,,,,,,,,,,,,,,,,,,,,,,,,,,,,,,,,,,,,,,,,,,,,3,pulmones,,,,,693.0026,694.3699,0,0,0.8475,,0,79,79,2,1,REAL,FAKE,,,,,,,,,,,,,,,,,
,,,,,,,,,672ce4b6444bb28ed1573e5a,Mexican,13 or older,"no, only English or Spanish",no,2025-07-23_06h01.00.232,empathy_intonation_perc,2024.2.4,Win32,60.24096386,672ce4b6444bb28ed1573e5a,687ed1b7e638a4cbf2f02089,6880aff28800b0f2939d405c,,,,,,,,,,,,,,1,,,,,,,,,,,,,,,,,,,,,,,,,,,,,,,,,,,,,,,,,,,,,,,,,,,,,,,,,75,yacer,,,,,694.3707,695.8882,0,0,0.9849,,0,80,80,74,1,REAL,FAKE,,,,,,,,,,,,,,,,,
,,,,,,,,,672ce4b6444bb28ed1573e5a,Mexican,13 or older,"no, only English or Spanish",no,2025-07-23_06h01.00.232,empathy_intonation_perc,2024.2.4,Win32,60.24096386,672ce4b6444bb28ed1573e5a,687ed1b7e638a4cbf2f02089,6880aff28800b0f2939d405c,,,,,,,,,,,,,,1,,,,,,,,,,,,,,,,,,,,,,,,,,,,,,,,,,,,,,,,,,,,,,,,,,,,,,,,,31,pandilla,,,,,695.8889,697.006,1,1,0.5852,,0,81,81,30,1,REAL,FAKE,,,,,,,,,,,,,,,,,
,,,,,,,,,672ce4b6444bb28ed1573e5a,Mexican,13 or older,"no, only English or Spanish",no,2025-07-23_06h01.00.232,empathy_intonation_perc,2024.2.4,Win32,60.24096386,672ce4b6444bb28ed1573e5a,687ed1b7e638a4cbf2f02089,6880aff28800b0f2939d405c,,,,,,,,,,,,,,0,,,,,,,,,,,,,,,,,,,,,,,,,,,,,,,,,,,,,,,,,,,,,,,,,,,,,,,,,4,batillón,,,,,697.0065,698.2238,1,0,0.6843,,0,82,82,3,1,REAL,FAKE,,,,,,,,,,,,,,,,,
,,,,,,,,,672ce4b6444bb28ed1573e5a,Mexican,13 or older,"no, only English or Spanish",no,2025-07-23_06h01.00.232,empathy_intonation_perc,2024.2.4,Win32,60.24096386,672ce4b6444bb28ed1573e5a,687ed1b7e638a4cbf2f02089,6880aff28800b0f2939d405c,,,,,,,,,,,,,,1,,,,,,,,,,,,,,,,,,,,,,,,,,,,,,,,,,,,,,,,,,,,,,,,,,,,,,,,,85,laúd,,,,,698.2247,700.2258,1,1,1.4816,,0,83,83,84,1,REAL,FAKE,,,,,,,,,,,,,,,,,
,,,,,,,,,672ce4b6444bb28ed1573e5a,Mexican,13 or older,"no, only English or Spanish",no,2025-07-23_06h01.00.232,empathy_intonation_perc,2024.2.4,Win32,60.24096386,672ce4b6444bb28ed1573e5a,687ed1b7e638a4cbf2f02089,6880aff28800b0f2939d405c,,,,,,,,,,,,,,1,,,,,,,,,,,,,,,,,,,,,,,,,,,,,,,,,,,,,,,,,,,,,,,,,,,,,,,,,26,secuestro,,,,,700.2264,701.527,0,0,0.7757,,0,84,84,25,1,REAL,FAKE,,,,,,,,,,,,,,,,,
,,,,,,,,,672ce4b6444bb28ed1573e5a,Mexican,13 or older,"no, only English or Spanish",no,2025-07-23_06h01.00.232,empathy_intonation_perc,2024.2.4,Win32,60.24096386,672ce4b6444bb28ed1573e5a,687ed1b7e638a4cbf2f02089,6880aff28800b0f2939d405c,,,,,,,,,,,,,,1,,,,,,,,,,,,,,,,,,,,,,,,,,,,,,,,,,,,,,,,,,,,,,,,,,,,,,,,,59,besar,,,,,701.5277,703.746,0,0,1.6855,,0,85,85,58,1,REAL,FAKE,,,,,,,,,,,,,,,,,
,,,,,,,,,672ce4b6444bb28ed1573e5a,Mexican,13 or older,"no, only English or Spanish",no,2025-07-23_06h01.00.232,empathy_intonation_perc,2024.2.4,Win32,60.24096386,672ce4b6444bb28ed1573e5a,687ed1b7e638a4cbf2f02089,6880aff28800b0f2939d405c,,,,,,,,,,,,,,1,,,,,,,,,,,,,,,,,,,,,,,,,,,,,,,,,,,,,,,,,,,,,,,,,,,,,,,,,56,musgo,,,,,703.7466,705.0974,0,0,0.8235,,0,86,86,55,1,REAL,FAKE,,,,,,,,,,,,,,,,,
,,,,,,,,,672ce4b6444bb28ed1573e5a,Mexican,13 or older,"no, only English or Spanish",no,2025-07-23_06h01.00.232,empathy_intonation_perc,2024.2.4,Win32,60.24096386,672ce4b6444bb28ed1573e5a,687ed1b7e638a4cbf2f02089,6880aff28800b0f2939d405c,,,,,,,,,,,,,,1,,,,,,,,,,,,,,,,,,,,,,,,,,,,,,,,,,,,,,,,,,,,,,,,,,,,,,,,,37,granuja,,,,,705.098,706.4656,1,1,0.8346,,0,87,87,36,1,REAL,FAKE,,,,,,,,,,,,,,,,,
,,,,,,,,,672ce4b6444bb28ed1573e5a,Mexican,13 or older,"no, only English or Spanish",no,2025-07-23_06h01.00.232,empathy_intonation_perc,2024.2.4,Win32,60.24096386,672ce4b6444bb28ed1573e5a,687ed1b7e638a4cbf2f02089,6880aff28800b0f2939d405c,,,,,,,,,,,,,,1,,,,,,,,,,,,,,,,,,,,,,,,,,,,,,,,,,,,,,,,,,,,,,,,,,,,,,,,,76,atar,,,,,706.4662,707.7332,0,0,0.7441,,0,88,88,75,1,REAL,FAKE,,,,,,,,,,,,,,,,,
,,,,,,,,,672ce4b6444bb28ed1573e5a,Mexican,13 or older,"no, only English or Spanish",no,2025-07-23_06h01.00.232,empathy_intonation_perc,2024.2.4,Win32,60.24096386,672ce4b6444bb28ed1573e5a,687ed1b7e638a4cbf2f02089,6880aff28800b0f2939d405c,,,,,,,,,,,,,,1,,,,,,,,,,,,,,,,,,,,,,,,,,,,,,,,,,,,,,,,,,,,,,,,,,,,,,,,,89,prisa,,,,,707.734,709.0347,0,0,0.7723,,0,89,89,88,1,REAL,FAKE,,,,,,,,,,,,,,,,,
,,,,,,,,,672ce4b6444bb28ed1573e5a,Mexican,13 or older,"no, only English or Spanish",no,2025-07-23_06h01.00.232,empathy_intonation_perc,2024.2.4,Win32,60.24096386,672ce4b6444bb28ed1573e5a,687ed1b7e638a4cbf2f02089,6880aff28800b0f2939d405c,,,,,,,,,,,,,,1,,,,,,,,,,,,,,,,,,,,,,,,,,,,,,,,,,,,,,,,,,,,,,,,,,,,,,,,,67,cabello,,,,,709.0354,711.9043,1,1,2.3359,,0,90,90,66,1,REAL,FAKE,,,,,,,,,,,,,,,,,
,,,,,,,,,672ce4b6444bb28ed1573e5a,Mexican,13 or older,"no, only English or Spanish",no,2025-07-23_06h01.00.232,empathy_intonation_perc,2024.2.4,Win32,60.24096386,672ce4b6444bb28ed1573e5a,687ed1b7e638a4cbf2f02089,6880aff28800b0f2939d405c,,,,,,,,,,,,,,1,,,,,,,,,,,,,,,,,,,,,,,,,,,,,,,,,,,,,,,,,,,,,,,,,,,,,,,,,41,rebuscar,,,,,711.9049,713.6392,0,0,1.2091,,0,91,91,40,1,REAL,FAKE,,,,,,,,,,,,,,,,,
,,,,,,,,,672ce4b6444bb28ed1573e5a,Mexican,13 or older,"no, only English or Spanish",no,2025-07-23_06h01.00.232,empathy_intonation_perc,2024.2.4,Win32,60.24096386,672ce4b6444bb28ed1573e5a,687ed1b7e638a4cbf2f02089,6880aff28800b0f2939d405c,,,,,,,,,,,,,,,,,,,,,,,,,,,,,,,,,,,,,,,,,,,,,,,,,,,,,,,,,,,,,,,,,,,,,,,,,,,,,,,,,,,,,,,,,,713.6396,725.835,,,,,,,,,,,,,,,
,,,,,,,,,672ce4b6444bb28ed1573e5a,Mexican,13 or older,"no, only English or Spanish",no,2025-07-23_06h01.00.232,empathy_intonation_perc,2024.2.4,Win32,60.24096386,672ce4b6444bb28ed1573e5a,687ed1b7e638a4cbf2f02089,6880aff28800b0f2939d405c,,,,,,,,,,,,,1,,,,,,,,,,,,,,,,,,,,,,,,,,,,,,,,,,,,,,,,,,,,,,,,,,,,,,,,,,,,,,,,,,,,,,,,,,,,,,,725.8425,733.1756,slightly agree,0,0,0,0,1,I can easily tell if someone else wants to enter a conversation.,1,0,1,0,,
,,,,,,,,,672ce4b6444bb28ed1573e5a,Mexican,13 or older,"no, only English or Spanish",no,2025-07-23_06h01.00.232,empathy_intonation_perc,2024.2.4,Win32,60.24096386,672ce4b6444bb28ed1573e5a,687ed1b7e638a4cbf2f02089,6880aff28800b0f2939d405c,,,,,,,,,,,,,2,,,,,,,,,,,,,,,,,,,,,,,,,,,,,,,,,,,,,,,,,,,,,,,,,,,,,,,,,,,,,,,,,,,,,,,,,,,,,,,733.1769,739.5651,slightly disagree,0,1,1,1,1,I prefer animals to humans.,0,1,0,0,,
,,,,,,,,,672ce4b6444bb28ed1573e5a,Mexican,13 or older,"no, only English or Spanish",no,2025-07-23_06h01.00.232,empathy_intonation_perc,2024.2.4,Win32,60.24096386,672ce4b6444bb28ed1573e5a,687ed1b7e638a4cbf2f02089,6880aff28800b0f2939d405c,,,,,,,,,,,,,3,,,,,,,,,,,,,,,,,,,,,,,,,,,,,,,,,,,,,,,,,,,,,,,,,,,,,,,,,,,,,,,,,,,,,,,,,,,,,,,739.5665,744.2534,strongly agree,0,2,2,2,1,I try to keep up with the current trends and fashions.,0,1,0,0,,
,,,,,,,,,672ce4b6444bb28ed1573e5a,Mexican,13 or older,"no, only English or Spanish",no,2025-07-23_06h01.00.232,empathy_intonation_perc,2024.2.4,Win32,60.24096386,672ce4b6444bb28ed1573e5a,687ed1b7e638a4cbf2f02089,6880aff28800b0f2939d405c,,,,,,,,,,,,,4,,,,,,,,,,,,,,,,,,,,,,,,,,,,,,,,,,,,,,,,,,,,,,,,,,,,,,,,,,,,,,,,,,,,,,,,,,,,,,,744.2548,747.807,strongly disagree,0,3,3,3,1,"I find it difficult to explain to others things that I understand easily,   when they don't understand it first time.",1,0,0,1,,
,,,,,,,,,672ce4b6444bb28ed1573e5a,Mexican,13 or older,"no, only English or Spanish",no,2025-07-23_06h01.00.232,empathy_intonation_perc,2024.2.4,Win32,60.24096386,672ce4b6444bb28ed1573e5a,687ed1b7e638a4cbf2f02089,6880aff28800b0f2939d405c,,,,,,,,,,,,,5,,,,,,,,,,,,,,,,,,,,,,,,,,,,,,,,,,,,,,,,,,,,,,,,,,,,,,,,,,,,,,,,,,,,,,,,,,,,,,,747.8079,754.6638,slightly agree,0,4,4,4,1,I dream most nights.,0,1,0,0,,
,,,,,,,,,672ce4b6444bb28ed1573e5a,Mexican,13 or older,"no, only English or Spanish",no,2025-07-23_06h01.00.232,empathy_intonation_perc,2024.2.4,Win32,60.24096386,672ce4b6444bb28ed1573e5a,687ed1b7e638a4cbf2f02089,6880aff28800b0f2939d405c,,,,,,,,,,,,,6,,,,,,,,,,,,,,,,,,,,,,,,,,,,,,,,,,,,,,,,,,,,,,,,,,,,,,,,,,,,,,,,,,,,,,,,,,,,,,,754.6648,759.2851,strongly agree,0,5,5,5,1,I really enjoy caring for other people.,1,0,1,0,,
,,,,,,,,,672ce4b6444bb28ed1573e5a,Mexican,13 or older,"no, only English or Spanish",no,2025-07-23_06h01.00.232,empathy_intonation_perc,2024.2.4,Win32,60.24096386,672ce4b6444bb28ed1573e5a,687ed1b7e638a4cbf2f02089,6880aff28800b0f2939d405c,,,,,,,,,,,,,7,,,,,,,,,,,,,,,,,,,,,,,,,,,,,,,,,,,,,,,,,,,,,,,,,,,,,,,,,,,,,,,,,,,,,,,,,,,,,,,759.2863,768.3106,slightly agree,0,6,6,6,1,I try to solve my own problems rather than discussing them with others.,0,1,0,0,,
,,,,,,,,,672ce4b6444bb28ed1573e5a,Mexican,13 or older,"no, only English or Spanish",no,2025-07-23_06h01.00.232,empathy_intonation_perc,2024.2.4,Win32,60.24096386,672ce4b6444bb28ed1573e5a,687ed1b7e638a4cbf2f02089,6880aff28800b0f2939d405c,,,,,,,,,,,,,8,,,,,,,,,,,,,,,,,,,,,,,,,,,,,,,,,,,,,,,,,,,,,,,,,,,,,,,,,,,,,,,,,,,,,,,,,,,,,,,768.3116,816.2254,strongly disagree,0,7,7,7,1,I find it hard to know what to do in a social situation.,1,0,0,1,,
,,,,,,,,,672ce4b6444bb28ed1573e5a,Mexican,13 or older,"no, only English or Spanish",no,2025-07-23_06h01.00.232,empathy_intonation_perc,2024.2.4,Win32,60.24096386,672ce4b6444bb28ed1573e5a,687ed1b7e638a4cbf2f02089,6880aff28800b0f2939d405c,,,,,,,,,,,,,9,,,,,,,,,,,,,,,,,,,,,,,,,,,,,,,,,,,,,,,,,,,,,,,,,,,,,,,,,,,,,,,,,,,,,,,,,,,,,,,816.2266,822.4314,slightly disagree,0,8,8,8,1,I am at my best first thing in the morning.,0,1,0,0,,
,,,,,,,,,672ce4b6444bb28ed1573e5a,Mexican,13 or older,"no, only English or Spanish",no,2025-07-23_06h01.00.232,empathy_intonation_perc,2024.2.4,Win32,60.24096386,672ce4b6444bb28ed1573e5a,687ed1b7e638a4cbf2f02089,6880aff28800b0f2939d405c,,,,,,,,,,,,,10,,,,,,,,,,,,,,,,,,,,,,,,,,,,,,,,,,,,,,,,,,,,,,,,,,,,,,,,,,,,,,,,,,,,,,,,,,,,,,,822.4327,830.4229,strongly disagree,0,9,9,9,1,People often tell me that I went too far in driving my point home in a discussion.,1,0,0,1,,
