instructions_exposure.started,instructions_exposure.stopped,instructions_exposure_loop.thisRepN,instructions_exposure_loop.thisTrialN,instructions_exposure_loop.thisN,instructions_exposure_loop.thisIndex,instructions_exposure_loop.ran,instructions_text,continue_text,participant_id,"What variety of Spanish are you most familiar with? (e.g., Peruvian, Spanish, Mexican)",At what age did you begin learning Spanish?,Are you proficient in any languages other than English/Spanish?,"Are you familiar with Caribbean (e.g., Caribbean, Puerto Rican) or Galician Spanish?",date,expName,psychopyVersion,OS,frameRate,id,study_id,session,trial_exposure.started,trial_exposure.stopped,key_resp_exposure.keys,key_resp_exposure.corr,key_resp_exposure.rt,key_resp_exposure.duration,key_resp.keys,exposure_loop.thisRepN,exposure_loop.thisTrialN,exposure_loop.thisN,exposure_loop.thisIndex,exposure_loop.ran,item_num,correct_response,question,path,duration,instructions_2afc.started,instructions_2afc.stopped,instructions_2afc_loop.thisRepN,instructions_2afc_loop.thisTrialN,instructions_2afc_loop.thisN,instructions_2afc_loop.thisIndex,instructions_2afc_loop.ran,practice_2afc.started,practice_2afc.stopped,key_resp_2afc_practice.keys,key_resp_2afc_practice.corr,key_resp_2afc_practice.rt,key_resp_2afc_practice.duration,trials_2afc_practice_loop.thisRepN,trials_2afc_practice_loop.thisTrialN,trials_2afc_practice_loop.thisN,trials_2afc_practice_loop.thisIndex,trials_2afc_practice_loop.ran,check_2afc.started,check_2afc.stopped,trial_2afc.started,trial_2afc.stopped,key_resp_2afc_trial.keys,key_resp_2afc_trial.corr,key_resp_2afc_trial.rt,key_resp_2afc_trial.duration,trials_2afc_loop.thisRepN,trials_2afc_loop.thisTrialN,trials_2afc_loop.thisN,trials_2afc_loop.thisIndex,trials_2afc_loop.ran,target,variety,instructions_lextale.started,instructions_lextale.stopped,instructions_lextale_loop.thisRepN,instructions_lextale_loop.thisTrialN,instructions_lextale_loop.thisN,instructions_lextale_loop.thisIndex,instructions_lextale_loop.ran,practice_lextale.started,practice_lextale.stopped,key_resp_lextale_practice.keys,key_resp_lextale_practice.corr,key_resp_lextale_practice.rt,key_resp_lextale_practice.duration,practice_feedback_lextale.started,practice_feedback_lextale.stopped,trials_lextale_practice_loop.thisRepN,trials_lextale_practice_loop.thisTrialN,trials_lextale_practice_loop.thisN,trials_lextale_practice_loop.thisIndex,trials_lextale_practice_loop.ran,stim,word,prac_button_real,prac_button_false,check_lextale.started,check_lextale.stopped,trial_lextale.started,trial_lextale.stopped,key_resp_lextale_trial.keys,key_resp_lextale_trial.corr,key_resp_lextale_trial.rt,key_resp_lextale_trial.duration,trials_lextale_loop.thisRepN,trials_lextale_loop.thisTrialN,trials_lextale_loop.thisN,trials_lextale_loop.thisIndex,trials_lextale_loop.ran,button_real,button_false,instructions_eq.started,instructions_eq.stopped,trial_eq.started,trial_eq.stopped,slider_eq_trial.response,trials_eq_loop.thisRepN,trials_eq_loop.thisTrialN,trials_eq_loop.thisN,trials_eq_loop.thisIndex,trials_eq_loop.ran,item,is_test_item,is_distractor,is_agree_score,is_disagree_score,end_exp.started,end_exp.stopped
0.0085,2.2226,0,0,0,0,1,"In the following task, you are going to hear a series of conversations.", (press the space bar to continue),6735b2a6112cf17b7b8df8d1,spanish,13 or older,"no, only English or Spanish",no,2025-07-23_02h48.05.644,empathy_intonation_perc,2024.2.4,MacIntel,60.24096386,6735b2a6112cf17b7b8df8d1,687ed1b7e638a4cbf2f02089,68808581d950f7dbd2437596,,,,,,,,,,,,,,,,,,,,,,,,,,,,,,,,,,,,,,,,,,,,,,,,,,,,,,,,,,,,,,,,,,,,,,,,,,,,,,,,,,,,,,,,,,,,,,,,,,,,,,,,,,
2.2235,3.3384,0,1,1,1,1,It is okay if you don't not 100% understand them!, (press the space bar to continue),6735b2a6112cf17b7b8df8d1,spanish,13 or older,"no, only English or Spanish",no,2025-07-23_02h48.05.644,empathy_intonation_perc,2024.2.4,MacIntel,60.24096386,6735b2a6112cf17b7b8df8d1,687ed1b7e638a4cbf2f02089,68808581d950f7dbd2437596,,,,,,,,,,,,,,,,,,,,,,,,,,,,,,,,,,,,,,,,,,,,,,,,,,,,,,,,,,,,,,,,,,,,,,,,,,,,,,,,,,,,,,,,,,,,,,,,,,,,,,,,,,
3.3399,4.355,0,2,2,2,1,"After, you will read a sentence about the conversation and decide if it's true or false.", (press the space bar to continue),6735b2a6112cf17b7b8df8d1,spanish,13 or older,"no, only English or Spanish",no,2025-07-23_02h48.05.644,empathy_intonation_perc,2024.2.4,MacIntel,60.24096386,6735b2a6112cf17b7b8df8d1,687ed1b7e638a4cbf2f02089,68808581d950f7dbd2437596,,,,,,,,,,,,,,,,,,,,,,,,,,,,,,,,,,,,,,,,,,,,,,,,,,,,,,,,,,,,,,,,,,,,,,,,,,,,,,,,,,,,,,,,,,,,,,,,,,,,,,,,,,
4.3563,5.9376,0,3,3,3,1,"If it's true, press '1' (True) and if it's false press '0' (False).", (press the space bar to continue),6735b2a6112cf17b7b8df8d1,spanish,13 or older,"no, only English or Spanish",no,2025-07-23_02h48.05.644,empathy_intonation_perc,2024.2.4,MacIntel,60.24096386,6735b2a6112cf17b7b8df8d1,687ed1b7e638a4cbf2f02089,68808581d950f7dbd2437596,,,,,,,,,,,,,,,,,,,,,,,,,,,,,,,,,,,,,,,,,,,,,,,,,,,,,,,,,,,,,,,,,,,,,,,,,,,,,,,,,,,,,,,,,,,,,,,,,,,,,,,,,,
,,,,,,,,,6735b2a6112cf17b7b8df8d1,spanish,13 or older,"no, only English or Spanish",no,2025-07-23_02h48.05.644,empathy_intonation_perc,2024.2.4,MacIntel,60.24096386,6735b2a6112cf17b7b8df8d1,687ed1b7e638a4cbf2f02089,68808581d950f7dbd2437596,5.9459,56.0219,1,1,3.0137,,,0,0,0,0,1,1,1,The son asked the mom if Aunt Marina is okay.,./stim/exposure_wavs/ga_stimuli_convo.wav,47,,,,,,,,,,,,,,,,,,,,,,,,,,,,,,,,,,,,,,,,,,,,,,,,,,,,,,,,,,,,,,,,,,,,,,,,,,,,,,,,,,,,,,,,,
,,,,,,,,,6735b2a6112cf17b7b8df8d1,spanish,13 or older,"no, only English or Spanish",no,2025-07-23_02h48.05.644,empathy_intonation_perc,2024.2.4,MacIntel,60.24096386,6735b2a6112cf17b7b8df8d1,687ed1b7e638a4cbf2f02089,68808581d950f7dbd2437596,56.0237,118.1381,0,0,2.0714,,,0,1,1,1,1,2,1,The mom asked the daughter if she already went to the supermarket.,./stim/exposure_wavs/dr_stimuli_convo.wav,60,,,,,,,,,,,,,,,,,,,,,,,,,,,,,,,,,,,,,,,,,,,,,,,,,,,,,,,,,,,,,,,,,,,,,,,,,,,,,,,,,,,,,,,,,
,,,,,,,,,6735b2a6112cf17b7b8df8d1,spanish,13 or older,"no, only English or Spanish",no,2025-07-23_02h48.05.644,empathy_intonation_perc,2024.2.4,MacIntel,60.24096386,6735b2a6112cf17b7b8df8d1,687ed1b7e638a4cbf2f02089,68808581d950f7dbd2437596,118.1398,155.8548,1,0,1.6694,,,0,2,2,2,1,3,0,The mom already has rice.,./stim/exposure_wavs/pr_stimuli_convo.wav,36,,,,,,,,,,,,,,,,,,,,,,,,,,,,,,,,,,,,,,,,,,,,,,,,,,,,,,,,,,,,,,,,,,,,,,,,,,,,,,,,,,,,,,,,,
,,,,,,,"In the following task you are going to hear a series of utterances. 

  You will decide if the utterances sound like questions or not using your keyboard.", (press the spacebar to continue),6735b2a6112cf17b7b8df8d1,spanish,13 or older,"no, only English or Spanish",no,2025-07-23_02h48.05.644,empathy_intonation_perc,2024.2.4,MacIntel,60.24096386,6735b2a6112cf17b7b8df8d1,687ed1b7e638a4cbf2f02089,68808581d950f7dbd2437596,,,,,,,,,,,,,,,,,,155.8593,161.6882,0,0,0,0,1,,,,,,,,,,,,,,,,,,,,,,,,,,,,,,,,,,,,,,,,,,,,,,,,,,,,,,,,,,,,,,,,,,,,,,,,,,,,,,,,,,
,,,,,,,"If you believe the utterance is a question, type '1' (for 'yes') and if you do not 
  believe it is a question type '0' (for 'no').

  Let's practice a bit...", (press the spacebar to continue),6735b2a6112cf17b7b8df8d1,spanish,13 or older,"no, only English or Spanish",no,2025-07-23_02h48.05.644,empathy_intonation_perc,2024.2.4,MacIntel,60.24096386,6735b2a6112cf17b7b8df8d1,687ed1b7e638a4cbf2f02089,68808581d950f7dbd2437596,,,,,,,,,,,,,,,,,,161.6902,267.4373,0,1,1,1,1,,,,,,,,,,,,,,,,,,,,,,,,,,,,,,,,,,,,,,,,,,,,,,,,,,,,,,,,,,,,,,,,,,,,,,,,,,,,,,,,,,
,,,,,,,,,6735b2a6112cf17b7b8df8d1,spanish,13 or older,"no, only English or Spanish",no,2025-07-23_02h48.05.644,empathy_intonation_perc,2024.2.4,MacIntel,60.24096386,6735b2a6112cf17b7b8df8d1,687ed1b7e638a4cbf2f02089,68808581d950f7dbd2437596,,,,,,,,,,,,,,0,,./stim/wavs/cuban_statement_filler_Cocinabas-por-la-noche.wav,,,,,,,,,267.4436,270.2212,1,0,2.2503,,0,0,0,4,1,,,,,,,,,,,,,,,,,,,,,,,,,,,,,,,,,,,,,,,,,,,,,,,,,,,,,,,,,,,,,,,,,,,,,,,
,,,,,,,,,6735b2a6112cf17b7b8df8d1,spanish,13 or older,"no, only English or Spanish",no,2025-07-23_02h48.05.644,empathy_intonation_perc,2024.2.4,MacIntel,60.24096386,6735b2a6112cf17b7b8df8d1,687ed1b7e638a4cbf2f02089,68808581d950f7dbd2437596,,,,,,,,,,,,,,0,,./stim/wavs/andalusian_statement_filler_Alberto-nunca-se-afeita.wav,,,,,,,,,270.2221,274.0035,0,1,3.25,,0,1,1,5,1,,,,,,,,,,,,,,,,,,,,,,,,,,,,,,,,,,,,,,,,,,,,,,,,,,,,,,,,,,,,,,,,,,,,,,,
,,,,,,,,,6735b2a6112cf17b7b8df8d1,spanish,13 or older,"no, only English or Spanish",no,2025-07-23_02h48.05.644,empathy_intonation_perc,2024.2.4,MacIntel,60.24096386,6735b2a6112cf17b7b8df8d1,687ed1b7e638a4cbf2f02089,68808581d950f7dbd2437596,,,,,,,,,,,,,,0,,./stim/wavs/puertorican_statement_filler_La-nina-pinta-con-su-amiga.wav,,,,,,,,,274.0041,276.3043,0,1,1.7676,,0,2,2,7,1,,,,,,,,,,,,,,,,,,,,,,,,,,,,,,,,,,,,,,,,,,,,,,,,,,,,,,,,,,,,,,,,,,,,,,,
,,,,,,,,,6735b2a6112cf17b7b8df8d1,spanish,13 or older,"no, only English or Spanish",no,2025-07-23_02h48.05.644,empathy_intonation_perc,2024.2.4,MacIntel,60.24096386,6735b2a6112cf17b7b8df8d1,687ed1b7e638a4cbf2f02089,68808581d950f7dbd2437596,,,,,,,,,,,,,,1,,./stim/wavs/argentine_question_filler_Mi-vecino-habla-mucho.wav,,,,,,,,,276.3049,278.2376,1,1,1.4002,,0,3,3,1,1,,,,,,,,,,,,,,,,,,,,,,,,,,,,,,,,,,,,,,,,,,,,,,,,,,,,,,,,,,,,,,,,,,,,,,,
,,,,,,,,,6735b2a6112cf17b7b8df8d1,spanish,13 or older,"no, only English or Spanish",no,2025-07-23_02h48.05.644,empathy_intonation_perc,2024.2.4,MacIntel,60.24096386,6735b2a6112cf17b7b8df8d1,687ed1b7e638a4cbf2f02089,68808581d950f7dbd2437596,,,,,,,,,,,,,,1,,./stim/wavs/mexican_question_filler_Felipe-no-tiene-contrasena.wav,,,,,,,,,278.2383,280.4376,1,1,1.6695,,0,4,4,3,1,,,,,,,,,,,,,,,,,,,,,,,,,,,,,,,,,,,,,,,,,,,,,,,,,,,,,,,,,,,,,,,,,,,,,,,
,,,,,,,,,6735b2a6112cf17b7b8df8d1,spanish,13 or older,"no, only English or Spanish",no,2025-07-23_02h48.05.644,empathy_intonation_perc,2024.2.4,MacIntel,60.24096386,6735b2a6112cf17b7b8df8d1,687ed1b7e638a4cbf2f02089,68808581d950f7dbd2437596,,,,,,,,,,,,,,0,,./stim/wavs/peruvian_statement_filler_El-nino-habla-con-su-madre.wav,,,,,,,,,280.4383,283.8371,0,1,2.8676,,0,5,5,6,1,,,,,,,,,,,,,,,,,,,,,,,,,,,,,,,,,,,,,,,,,,,,,,,,,,,,,,,,,,,,,,,,,,,,,,,
,,,,,,,,,6735b2a6112cf17b7b8df8d1,spanish,13 or older,"no, only English or Spanish",no,2025-07-23_02h48.05.644,empathy_intonation_perc,2024.2.4,MacIntel,60.24096386,6735b2a6112cf17b7b8df8d1,687ed1b7e638a4cbf2f02089,68808581d950f7dbd2437596,,,,,,,,,,,,,,1,,./stim/wavs/chilean_question_filler_Mi-padre-cantaba-bien.wav,,,,,,,,,283.8377,285.854,1,1,1.4944,,0,6,6,2,1,,,,,,,,,,,,,,,,,,,,,,,,,,,,,,,,,,,,,,,,,,,,,,,,,,,,,,,,,,,,,,,,,,,,,,,
,,,,,,,,,6735b2a6112cf17b7b8df8d1,spanish,13 or older,"no, only English or Spanish",no,2025-07-23_02h48.05.644,empathy_intonation_perc,2024.2.4,MacIntel,60.24096386,6735b2a6112cf17b7b8df8d1,687ed1b7e638a4cbf2f02089,68808581d950f7dbd2437596,,,,,,,,,,,,,,1,,./stim/wavs/castilian_question_filler_Mi-esposo-conoce-al-chico.wav,,,,,,,,,285.8546,288.3208,1,1,1.9384,,0,7,7,0,1,,,,,,,,,,,,,,,,,,,,,,,,,,,,,,,,,,,,,,,,,,,,,,,,,,,,,,,,,,,,,,,,,,,,,,,
,,,,,,,,,6735b2a6112cf17b7b8df8d1,spanish,13 or older,"no, only English or Spanish",no,2025-07-23_02h48.05.644,empathy_intonation_perc,2024.2.4,MacIntel,60.24096386,6735b2a6112cf17b7b8df8d1,687ed1b7e638a4cbf2f02089,68808581d950f7dbd2437596,,,,,,,,,,,,,,,,,,,,,,,,,,,,,,,,,,,,288.3213,289.7879,,,,,,,,,,,,,,,,,,,,,,,,,,,,,,,,,,,,,,,,,,,,,,,,,,,,,,,,,,,,,,,,,,,,,
,,,,,,,,,6735b2a6112cf17b7b8df8d1,spanish,13 or older,"no, only English or Spanish",no,2025-07-23_02h48.05.644,empathy_intonation_perc,2024.2.4,MacIntel,60.24096386,6735b2a6112cf17b7b8df8d1,687ed1b7e638a4cbf2f02089,68808581d950f7dbd2437596,,,,,,,,,,,,,35,1,,./stim/wavs/mexican_mismatch_interrogative-total-yn_El-hombre-mira-la-luna.wav,,,,,,,,,,,,,,,,,,,,,,289.7972,291.9045,1,1,1.5839,,0,0,0,34,1,0,mexican,,,,,,,,,,,,,,,,,,,,,,,,,,,,,,,,,,,,,,,,,,,,,,,,,,,,,,,,
,,,,,,,,,6735b2a6112cf17b7b8df8d1,spanish,13 or older,"no, only English or Spanish",no,2025-07-23_02h48.05.644,empathy_intonation_perc,2024.2.4,MacIntel,60.24096386,6735b2a6112cf17b7b8df8d1,687ed1b7e638a4cbf2f02089,68808581d950f7dbd2437596,,,,,,,,,,,,,88,0,,./stim/wavs/puertorican_mismatch_declarative-broad-focus_La-nina-lava-el-plato.wav,,,,,,,,,,,,,,,,,,,,,,291.9053,294.7208,0,1,2.2854,,0,1,1,87,1,0,puertorican,,,,,,,,,,,,,,,,,,,,,,,,,,,,,,,,,,,,,,,,,,,,,,,,,,,,,,,,
,,,,,,,,,6735b2a6112cf17b7b8df8d1,spanish,13 or older,"no, only English or Spanish",no,2025-07-23_02h48.05.644,empathy_intonation_perc,2024.2.4,MacIntel,60.24096386,6735b2a6112cf17b7b8df8d1,687ed1b7e638a4cbf2f02089,68808581d950f7dbd2437596,,,,,,,,,,,,,23,1,,./stim/wavs/puertorican_match_interrogative-total-yn_Manuela-vende-el-carro.wav,,,,,,,,,,,,,,,,,,,,,,294.7214,296.6541,0,0,1.3994,,0,2,2,22,1,1,puertorican,,,,,,,,,,,,,,,,,,,,,,,,,,,,,,,,,,,,,,,,,,,,,,,,,,,,,,,,
,,,,,,,,,6735b2a6112cf17b7b8df8d1,spanish,13 or older,"no, only English or Spanish",no,2025-07-23_02h48.05.644,empathy_intonation_perc,2024.2.4,MacIntel,60.24096386,6735b2a6112cf17b7b8df8d1,687ed1b7e638a4cbf2f02089,68808581d950f7dbd2437596,,,,,,,,,,,,,78,0,,./stim/wavs/cuban_mismatch_declarative-broad-focus_Mi-tia-odia-la-lluvia.wav,,,,,,,,,,,,,,,,,,,,,,296.6546,298.8711,0,1,1.6945,,0,3,3,77,1,0,cuban,,,,,,,,,,,,,,,,,,,,,,,,,,,,,,,,,,,,,,,,,,,,,,,,,,,,,,,,
,,,,,,,,,6735b2a6112cf17b7b8df8d1,spanish,13 or older,"no, only English or Spanish",no,2025-07-23_02h48.05.644,empathy_intonation_perc,2024.2.4,MacIntel,60.24096386,6735b2a6112cf17b7b8df8d1,687ed1b7e638a4cbf2f02089,68808581d950f7dbd2437596,,,,,,,,,,,,,12,1,,./stim/wavs/cuban_match_interrogative-total-yn_Marta-abre-el-regalo.wav,,,,,,,,,,,,,,,,,,,,,,298.8717,300.8365,0,0,1.4343,,0,4,4,11,1,1,cuban,,,,,,,,,,,,,,,,,,,,,,,,,,,,,,,,,,,,,,,,,,,,,,,,,,,,,,,,
,,,,,,,,,6735b2a6112cf17b7b8df8d1,spanish,13 or older,"no, only English or Spanish",no,2025-07-23_02h48.05.644,empathy_intonation_perc,2024.2.4,MacIntel,60.24096386,6735b2a6112cf17b7b8df8d1,687ed1b7e638a4cbf2f02089,68808581d950f7dbd2437596,,,,,,,,,,,,,65,0,,./stim/wavs/puertorican_match_declarative-broad-focus_David-leia-el-libro.wav,,,,,,,,,,,,,,,,,,,,,,300.8373,302.7542,0,1,1.3995,,0,5,5,64,1,0,puertorican,,,,,,,,,,,,,,,,,,,,,,,,,,,,,,,,,,,,,,,,,,,,,,,,,,,,,,,,
,,,,,,,,,6735b2a6112cf17b7b8df8d1,spanish,13 or older,"no, only English or Spanish",no,2025-07-23_02h48.05.644,empathy_intonation_perc,2024.2.4,MacIntel,60.24096386,6735b2a6112cf17b7b8df8d1,687ed1b7e638a4cbf2f02089,68808581d950f7dbd2437596,,,,,,,,,,,,,44,1,,./stim/wavs/puertorican_mismatch_interrogative-total-yn_Mi-madre-come-la-fruta.wav,,,,,,,,,,,,,,,,,,,,,,302.755,304.8209,0,0,1.5447,,0,6,6,43,1,1,puertorican,,,,,,,,,,,,,,,,,,,,,,,,,,,,,,,,,,,,,,,,,,,,,,,,,,,,,,,,
,,,,,,,,,6735b2a6112cf17b7b8df8d1,spanish,13 or older,"no, only English or Spanish",no,2025-07-23_02h48.05.644,empathy_intonation_perc,2024.2.4,MacIntel,60.24096386,6735b2a6112cf17b7b8df8d1,687ed1b7e638a4cbf2f02089,68808581d950f7dbd2437596,,,,,,,,,,,,,53,0,,./stim/wavs/cuban_match_declarative-broad-focus_Manuela-vende-el-carro.wav,,,,,,,,,,,,,,,,,,,,,,304.8215,307.0539,0,1,1.7096,,0,7,7,52,1,0,cuban,,,,,,,,,,,,,,,,,,,,,,,,,,,,,,,,,,,,,,,,,,,,,,,,,,,,,,,,
,,,,,,,,,6735b2a6112cf17b7b8df8d1,spanish,13 or older,"no, only English or Spanish",no,2025-07-23_02h48.05.644,empathy_intonation_perc,2024.2.4,MacIntel,60.24096386,6735b2a6112cf17b7b8df8d1,687ed1b7e638a4cbf2f02089,68808581d950f7dbd2437596,,,,,,,,,,,,,8,1,,./stim/wavs/cuban_match_interrogative-total-yn_Daniel-iba-a-Bolivia.wav,,,,,,,,,,,,,,,,,,,,,,307.0544,309.054,1,1,1.466,,0,8,8,7,1,1,cuban,,,,,,,,,,,,,,,,,,,,,,,,,,,,,,,,,,,,,,,,,,,,,,,,,,,,,,,,
,,,,,,,,,6735b2a6112cf17b7b8df8d1,spanish,13 or older,"no, only English or Spanish",no,2025-07-23_02h48.05.644,empathy_intonation_perc,2024.2.4,MacIntel,60.24096386,6735b2a6112cf17b7b8df8d1,687ed1b7e638a4cbf2f02089,68808581d950f7dbd2437596,,,,,,,,,,,,,4,1,,./stim/wavs/castilian_match_interrogative-total-yn_Maria-bebe-el-vino.wav,,,,,,,,,,,,,,,,,,,,,,309.0547,310.9373,1,1,1.3609,,0,9,9,3,1,0,castilian,,,,,,,,,,,,,,,,,,,,,,,,,,,,,,,,,,,,,,,,,,,,,,,,,,,,,,,,
,,,,,,,,,6735b2a6112cf17b7b8df8d1,spanish,13 or older,"no, only English or Spanish",no,2025-07-23_02h48.05.644,empathy_intonation_perc,2024.2.4,MacIntel,60.24096386,6735b2a6112cf17b7b8df8d1,687ed1b7e638a4cbf2f02089,68808581d950f7dbd2437596,,,,,,,,,,,,,63,0,,./stim/wavs/puertorican_match_declarative-broad-focus_Ana-lleva-el-abrigo.wav,,,,,,,,,,,,,,,,,,,,,,310.9378,312.8041,0,1,1.3349,,0,10,10,62,1,0,puertorican,,,,,,,,,,,,,,,,,,,,,,,,,,,,,,,,,,,,,,,,,,,,,,,,,,,,,,,,
,,,,,,,,,6735b2a6112cf17b7b8df8d1,spanish,13 or older,"no, only English or Spanish",no,2025-07-23_02h48.05.644,empathy_intonation_perc,2024.2.4,MacIntel,60.24096386,6735b2a6112cf17b7b8df8d1,687ed1b7e638a4cbf2f02089,68808581d950f7dbd2437596,,,,,,,,,,,,,3,1,,./stim/wavs/castilian_match_interrogative-total-yn_Manuela-vende-el-carro.wav,,,,,,,,,,,,,,,,,,,,,,312.8048,315.1039,1,1,1.7764,,0,11,11,2,1,0,castilian,,,,,,,,,,,,,,,,,,,,,,,,,,,,,,,,,,,,,,,,,,,,,,,,,,,,,,,,
,,,,,,,,,6735b2a6112cf17b7b8df8d1,spanish,13 or older,"no, only English or Spanish",no,2025-07-23_02h48.05.644,empathy_intonation_perc,2024.2.4,MacIntel,60.24096386,6735b2a6112cf17b7b8df8d1,687ed1b7e638a4cbf2f02089,68808581d950f7dbd2437596,,,,,,,,,,,,,45,0,,./stim/wavs/castilian_match_declarative-broad-focus_David-leia-el-libro.wav,,,,,,,,,,,,,,,,,,,,,,315.1045,317.304,1,0,1.6707,,0,12,12,44,1,0,castilian,,,,,,,,,,,,,,,,,,,,,,,,,,,,,,,,,,,,,,,,,,,,,,,,,,,,,,,,
,,,,,,,,,6735b2a6112cf17b7b8df8d1,spanish,13 or older,"no, only English or Spanish",no,2025-07-23_02h48.05.644,empathy_intonation_perc,2024.2.4,MacIntel,60.24096386,6735b2a6112cf17b7b8df8d1,687ed1b7e638a4cbf2f02089,68808581d950f7dbd2437596,,,,,,,,,,,,,82,0,,./stim/wavs/mexican_mismatch_declarative-broad-focus_Mi-novio-viene-del-lago.wav,,,,,,,,,,,,,,,,,,,,,,317.3045,319.2208,0,1,1.3828,,0,13,13,81,1,0,mexican,,,,,,,,,,,,,,,,,,,,,,,,,,,,,,,,,,,,,,,,,,,,,,,,,,,,,,,,
,,,,,,,,,6735b2a6112cf17b7b8df8d1,spanish,13 or older,"no, only English or Spanish",no,2025-07-23_02h48.05.644,empathy_intonation_perc,2024.2.4,MacIntel,60.24096386,6735b2a6112cf17b7b8df8d1,687ed1b7e638a4cbf2f02089,68808581d950f7dbd2437596,,,,,,,,,,,,,67,0,,./stim/wavs/puertorican_match_declarative-broad-focus_Manuela-vende-el-carro.wav,,,,,,,,,,,,,,,,,,,,,,319.2215,322.3707,0,1,2.6277,,0,14,14,66,1,0,puertorican,,,,,,,,,,,,,,,,,,,,,,,,,,,,,,,,,,,,,,,,,,,,,,,,,,,,,,,,
,,,,,,,,,6735b2a6112cf17b7b8df8d1,spanish,13 or older,"no, only English or Spanish",no,2025-07-23_02h48.05.644,empathy_intonation_perc,2024.2.4,MacIntel,60.24096386,6735b2a6112cf17b7b8df8d1,687ed1b7e638a4cbf2f02089,68808581d950f7dbd2437596,,,,,,,,,,,,,19,1,,./stim/wavs/puertorican_match_interrogative-total-yn_Ana-lleva-el-abrigo.wav,,,,,,,,,,,,,,,,,,,,,,322.3715,324.2708,1,1,1.3688,,0,15,15,18,1,1,puertorican,,,,,,,,,,,,,,,,,,,,,,,,,,,,,,,,,,,,,,,,,,,,,,,,,,,,,,,,
,,,,,,,,,6735b2a6112cf17b7b8df8d1,spanish,13 or older,"no, only English or Spanish",no,2025-07-23_02h48.05.644,empathy_intonation_perc,2024.2.4,MacIntel,60.24096386,6735b2a6112cf17b7b8df8d1,687ed1b7e638a4cbf2f02089,68808581d950f7dbd2437596,,,,,,,,,,,,,47,0,,./stim/wavs/castilian_match_declarative-broad-focus_Manuela-vende-el-carro.wav,,,,,,,,,,,,,,,,,,,,,,324.2715,327.3206,0,1,2.5261,,0,16,16,46,1,0,castilian,,,,,,,,,,,,,,,,,,,,,,,,,,,,,,,,,,,,,,,,,,,,,,,,,,,,,,,,
,,,,,,,,,6735b2a6112cf17b7b8df8d1,spanish,13 or older,"no, only English or Spanish",no,2025-07-23_02h48.05.644,empathy_intonation_perc,2024.2.4,MacIntel,60.24096386,6735b2a6112cf17b7b8df8d1,687ed1b7e638a4cbf2f02089,68808581d950f7dbd2437596,,,,,,,,,,,,,61,0,,./stim/wavs/mexican_match_declarative-broad-focus_Mariano-habla-del-tiempo.wav,,,,,,,,,,,,,,,,,,,,,,327.3211,329.9041,1,0,2.0512,,0,17,17,60,1,0,mexican,,,,,,,,,,,,,,,,,,,,,,,,,,,,,,,,,,,,,,,,,,,,,,,,,,,,,,,,
,,,,,,,,,6735b2a6112cf17b7b8df8d1,spanish,13 or older,"no, only English or Spanish",no,2025-07-23_02h48.05.644,empathy_intonation_perc,2024.2.4,MacIntel,60.24096386,6735b2a6112cf17b7b8df8d1,687ed1b7e638a4cbf2f02089,68808581d950f7dbd2437596,,,,,,,,,,,,,76,0,,./stim/wavs/cuban_mismatch_declarative-broad-focus_La-nina-lava-el-plato.wav,,,,,,,,,,,,,,,,,,,,,,329.9047,331.954,0,1,1.5285,,0,18,18,75,1,0,cuban,,,,,,,,,,,,,,,,,,,,,,,,,,,,,,,,,,,,,,,,,,,,,,,,,,,,,,,,
,,,,,,,,,6735b2a6112cf17b7b8df8d1,spanish,13 or older,"no, only English or Spanish",no,2025-07-23_02h48.05.644,empathy_intonation_perc,2024.2.4,MacIntel,60.24096386,6735b2a6112cf17b7b8df8d1,687ed1b7e638a4cbf2f02089,68808581d950f7dbd2437596,,,,,,,,,,,,,15,1,,./stim/wavs/mexican_match_interrogative-total-yn_David-leia-el-libro.wav,,,,,,,,,,,,,,,,,,,,,,331.9546,334.2039,1,1,1.7278,,0,19,19,14,1,0,mexican,,,,,,,,,,,,,,,,,,,,,,,,,,,,,,,,,,,,,,,,,,,,,,,,,,,,,,,,
,,,,,,,,,6735b2a6112cf17b7b8df8d1,spanish,13 or older,"no, only English or Spanish",no,2025-07-23_02h48.05.644,empathy_intonation_perc,2024.2.4,MacIntel,60.24096386,6735b2a6112cf17b7b8df8d1,687ed1b7e638a4cbf2f02089,68808581d950f7dbd2437596,,,,,,,,,,,,,29,1,,./stim/wavs/castilian_mismatch_interrogative-total-yn_Mi-tia-odia-la-lluvia.wav,,,,,,,,,,,,,,,,,,,,,,334.2044,338.5041,0,0,3.7667,,0,20,20,28,1,0,castilian,,,,,,,,,,,,,,,,,,,,,,,,,,,,,,,,,,,,,,,,,,,,,,,,,,,,,,,,
,,,,,,,,,6735b2a6112cf17b7b8df8d1,spanish,13 or older,"no, only English or Spanish",no,2025-07-23_02h48.05.644,empathy_intonation_perc,2024.2.4,MacIntel,60.24096386,6735b2a6112cf17b7b8df8d1,687ed1b7e638a4cbf2f02089,68808581d950f7dbd2437596,,,,,,,,,,,,,36,1,,./stim/wavs/mexican_mismatch_interrogative-total-yn_El-nino-oye-el-rio.wav,,,,,,,,,,,,,,,,,,,,,,338.5048,340.9536,0,0,1.9271,,0,21,21,35,1,0,mexican,,,,,,,,,,,,,,,,,,,,,,,,,,,,,,,,,,,,,,,,,,,,,,,,,,,,,,,,
,,,,,,,,,6735b2a6112cf17b7b8df8d1,spanish,13 or older,"no, only English or Spanish",no,2025-07-23_02h48.05.644,empathy_intonation_perc,2024.2.4,MacIntel,60.24096386,6735b2a6112cf17b7b8df8d1,687ed1b7e638a4cbf2f02089,68808581d950f7dbd2437596,,,,,,,,,,,,,81,0,,./stim/wavs/mexican_mismatch_declarative-broad-focus_La-maestra-vive-en-Paris.wav,,,,,,,,,,,,,,,,,,,,,,340.9541,343.1535,1,0,1.6668,,0,22,22,80,1,0,mexican,,,,,,,,,,,,,,,,,,,,,,,,,,,,,,,,,,,,,,,,,,,,,,,,,,,,,,,,
,,,,,,,,,6735b2a6112cf17b7b8df8d1,spanish,13 or older,"no, only English or Spanish",no,2025-07-23_02h48.05.644,empathy_intonation_perc,2024.2.4,MacIntel,60.24096386,6735b2a6112cf17b7b8df8d1,687ed1b7e638a4cbf2f02089,68808581d950f7dbd2437596,,,,,,,,,,,,,49,0,,./stim/wavs/castilian_match_declarative-broad-focus_Mariano-habla-del-tiempo.wav,,,,,,,,,,,,,,,,,,,,,,343.1542,345.9707,0,1,2.2842,,0,23,23,48,1,0,castilian,,,,,,,,,,,,,,,,,,,,,,,,,,,,,,,,,,,,,,,,,,,,,,,,,,,,,,,,
,,,,,,,,,6735b2a6112cf17b7b8df8d1,spanish,13 or older,"no, only English or Spanish",no,2025-07-23_02h48.05.644,empathy_intonation_perc,2024.2.4,MacIntel,60.24096386,6735b2a6112cf17b7b8df8d1,687ed1b7e638a4cbf2f02089,68808581d950f7dbd2437596,,,,,,,,,,,,,57,0,,./stim/wavs/mexican_match_declarative-broad-focus_Ana-lleva-el-abrigo.wav,,,,,,,,,,,,,,,,,,,,,,345.9714,348.6041,0,1,2.1001,,0,24,24,56,1,0,mexican,,,,,,,,,,,,,,,,,,,,,,,,,,,,,,,,,,,,,,,,,,,,,,,,,,,,,,,,
,,,,,,,,,6735b2a6112cf17b7b8df8d1,spanish,13 or older,"no, only English or Spanish",no,2025-07-23_02h48.05.644,empathy_intonation_perc,2024.2.4,MacIntel,60.24096386,6735b2a6112cf17b7b8df8d1,687ed1b7e638a4cbf2f02089,68808581d950f7dbd2437596,,,,,,,,,,,,,5,1,,./stim/wavs/castilian_match_interrogative-total-yn_Mariano-habla-del-tiempo.wav,,,,,,,,,,,,,,,,,,,,,,348.6047,351.2207,1,1,2.0837,,0,25,25,4,1,0,castilian,,,,,,,,,,,,,,,,,,,,,,,,,,,,,,,,,,,,,,,,,,,,,,,,,,,,,,,,
,,,,,,,,,6735b2a6112cf17b7b8df8d1,spanish,13 or older,"no, only English or Spanish",no,2025-07-23_02h48.05.644,empathy_intonation_perc,2024.2.4,MacIntel,60.24096386,6735b2a6112cf17b7b8df8d1,687ed1b7e638a4cbf2f02089,68808581d950f7dbd2437596,,,,,,,,,,,,,85,0,,./stim/wavs/puertorican_mismatch_declarative-broad-focus_El-hombre-mira-la-luna.wav,,,,,,,,,,,,,,,,,,,,,,351.2214,353.9041,0,1,2.1515,,0,26,26,84,1,0,puertorican,,,,,,,,,,,,,,,,,,,,,,,,,,,,,,,,,,,,,,,,,,,,,,,,,,,,,,,,
,,,,,,,,,6735b2a6112cf17b7b8df8d1,spanish,13 or older,"no, only English or Spanish",no,2025-07-23_02h48.05.644,empathy_intonation_perc,2024.2.4,MacIntel,60.24096386,6735b2a6112cf17b7b8df8d1,687ed1b7e638a4cbf2f02089,68808581d950f7dbd2437596,,,,,,,,,,,,,50,0,,./stim/wavs/castilian_match_declarative-broad-focus_Marta-abre-el-regalo.wav,,,,,,,,,,,,,,,,,,,,,,353.9049,356.3206,0,1,1.8945,,0,27,27,49,1,0,castilian,,,,,,,,,,,,,,,,,,,,,,,,,,,,,,,,,,,,,,,,,,,,,,,,,,,,,,,,
,,,,,,,,,6735b2a6112cf17b7b8df8d1,spanish,13 or older,"no, only English or Spanish",no,2025-07-23_02h48.05.644,empathy_intonation_perc,2024.2.4,MacIntel,60.24096386,6735b2a6112cf17b7b8df8d1,687ed1b7e638a4cbf2f02089,68808581d950f7dbd2437596,,,,,,,,,,,,,10,1,,./stim/wavs/cuban_match_interrogative-total-yn_Maria-bebe-el-vino.wav,,,,,,,,,,,,,,,,,,,,,,356.3212,358.3872,1,1,1.5442,,0,28,28,9,1,1,cuban,,,,,,,,,,,,,,,,,,,,,,,,,,,,,,,,,,,,,,,,,,,,,,,,,,,,,,,,
,,,,,,,,,6735b2a6112cf17b7b8df8d1,spanish,13 or older,"no, only English or Spanish",no,2025-07-23_02h48.05.644,empathy_intonation_perc,2024.2.4,MacIntel,60.24096386,6735b2a6112cf17b7b8df8d1,687ed1b7e638a4cbf2f02089,68808581d950f7dbd2437596,,,,,,,,,,,,,42,1,,./stim/wavs/puertorican_mismatch_interrogative-total-yn_La-maestra-vive-en-Paris.wav,,,,,,,,,,,,,,,,,,,,,,358.3878,360.4874,0,0,1.5691,,0,29,29,41,1,1,puertorican,,,,,,,,,,,,,,,,,,,,,,,,,,,,,,,,,,,,,,,,,,,,,,,,,,,,,,,,
,,,,,,,,,6735b2a6112cf17b7b8df8d1,spanish,13 or older,"no, only English or Spanish",no,2025-07-23_02h48.05.644,empathy_intonation_perc,2024.2.4,MacIntel,60.24096386,6735b2a6112cf17b7b8df8d1,687ed1b7e638a4cbf2f02089,68808581d950f7dbd2437596,,,,,,,,,,,,,40,1,,./stim/wavs/puertorican_mismatch_interrogative-total-yn_El-hombre-mira-la-luna.wav,,,,,,,,,,,,,,,,,,,,,,360.488,362.5206,1,1,1.5044,,0,30,30,39,1,1,puertorican,,,,,,,,,,,,,,,,,,,,,,,,,,,,,,,,,,,,,,,,,,,,,,,,,,,,,,,,
,,,,,,,,,6735b2a6112cf17b7b8df8d1,spanish,13 or older,"no, only English or Spanish",no,2025-07-23_02h48.05.644,empathy_intonation_perc,2024.2.4,MacIntel,60.24096386,6735b2a6112cf17b7b8df8d1,687ed1b7e638a4cbf2f02089,68808581d950f7dbd2437596,,,,,,,,,,,,,62,0,,./stim/wavs/mexican_match_declarative-broad-focus_Marta-abre-el-regalo.wav,,,,,,,,,,,,,,,,,,,,,,362.5213,364.9373,1,0,1.8875,,0,31,31,61,1,0,mexican,,,,,,,,,,,,,,,,,,,,,,,,,,,,,,,,,,,,,,,,,,,,,,,,,,,,,,,,
,,,,,,,,,6735b2a6112cf17b7b8df8d1,spanish,13 or older,"no, only English or Spanish",no,2025-07-23_02h48.05.644,empathy_intonation_perc,2024.2.4,MacIntel,60.24096386,6735b2a6112cf17b7b8df8d1,687ed1b7e638a4cbf2f02089,68808581d950f7dbd2437596,,,,,,,,,,,,,77,0,,./stim/wavs/cuban_mismatch_declarative-broad-focus_Mi-novio-viene-del-lago.wav,,,,,,,,,,,,,,,,,,,,,,364.9379,367.4373,1,0,1.9679,,0,32,32,76,1,0,cuban,,,,,,,,,,,,,,,,,,,,,,,,,,,,,,,,,,,,,,,,,,,,,,,,,,,,,,,,
,,,,,,,,,6735b2a6112cf17b7b8df8d1,spanish,13 or older,"no, only English or Spanish",no,2025-07-23_02h48.05.644,empathy_intonation_perc,2024.2.4,MacIntel,60.24096386,6735b2a6112cf17b7b8df8d1,687ed1b7e638a4cbf2f02089,68808581d950f7dbd2437596,,,,,,,,,,,,,14,1,,./stim/wavs/mexican_match_interrogative-total-yn_Daniel-iba-a-Bolivia.wav,,,,,,,,,,,,,,,,,,,,,,367.4381,370.7704,1,1,2.8108,,0,33,33,13,1,0,mexican,,,,,,,,,,,,,,,,,,,,,,,,,,,,,,,,,,,,,,,,,,,,,,,,,,,,,,,,
,,,,,,,,,6735b2a6112cf17b7b8df8d1,spanish,13 or older,"no, only English or Spanish",no,2025-07-23_02h48.05.644,empathy_intonation_perc,2024.2.4,MacIntel,60.24096386,6735b2a6112cf17b7b8df8d1,687ed1b7e638a4cbf2f02089,68808581d950f7dbd2437596,,,,,,,,,,,,,13,1,,./stim/wavs/mexican_match_interrogative-total-yn_Ana-lleva-el-abrigo.wav,,,,,,,,,,,,,,,,,,,,,,370.771,373.2705,1,1,1.9758,,0,34,34,12,1,0,mexican,,,,,,,,,,,,,,,,,,,,,,,,,,,,,,,,,,,,,,,,,,,,,,,,,,,,,,,,
,,,,,,,,,6735b2a6112cf17b7b8df8d1,spanish,13 or older,"no, only English or Spanish",no,2025-07-23_02h48.05.644,empathy_intonation_perc,2024.2.4,MacIntel,60.24096386,6735b2a6112cf17b7b8df8d1,687ed1b7e638a4cbf2f02089,68808581d950f7dbd2437596,,,,,,,,,,,,,28,1,,./stim/wavs/castilian_mismatch_interrogative-total-yn_Mi-novio-viene-del-lago.wav,,,,,,,,,,,,,,,,,,,,,,373.271,377.4042,1,1,3.6114,,0,35,35,27,1,0,castilian,,,,,,,,,,,,,,,,,,,,,,,,,,,,,,,,,,,,,,,,,,,,,,,,,,,,,,,,
,,,,,,,,,6735b2a6112cf17b7b8df8d1,spanish,13 or older,"no, only English or Spanish",no,2025-07-23_02h48.05.644,empathy_intonation_perc,2024.2.4,MacIntel,60.24096386,6735b2a6112cf17b7b8df8d1,687ed1b7e638a4cbf2f02089,68808581d950f7dbd2437596,,,,,,,,,,,,,69,0,,./stim/wavs/castilian_mismatch_declarative-broad-focus_El-nino-oye-el-rio.wav,,,,,,,,,,,,,,,,,,,,,,377.4048,381.0707,1,0,3.1352,,0,36,36,68,1,0,castilian,,,,,,,,,,,,,,,,,,,,,,,,,,,,,,,,,,,,,,,,,,,,,,,,,,,,,,,,
,,,,,,,,,6735b2a6112cf17b7b8df8d1,spanish,13 or older,"no, only English or Spanish",no,2025-07-23_02h48.05.644,empathy_intonation_perc,2024.2.4,MacIntel,60.24096386,6735b2a6112cf17b7b8df8d1,687ed1b7e638a4cbf2f02089,68808581d950f7dbd2437596,,,,,,,,,,,,,32,1,,./stim/wavs/cuban_mismatch_interrogative-total-yn_Mi-madre-come-la-fruta.wav,,,,,,,,,,,,,,,,,,,,,,381.0715,383.6038,0,0,2.0111,,0,37,37,31,1,1,cuban,,,,,,,,,,,,,,,,,,,,,,,,,,,,,,,,,,,,,,,,,,,,,,,,,,,,,,,,
,,,,,,,,,6735b2a6112cf17b7b8df8d1,spanish,13 or older,"no, only English or Spanish",no,2025-07-23_02h48.05.644,empathy_intonation_perc,2024.2.4,MacIntel,60.24096386,6735b2a6112cf17b7b8df8d1,687ed1b7e638a4cbf2f02089,68808581d950f7dbd2437596,,,,,,,,,,,,,1,1,,./stim/wavs/castilian_match_interrogative-total-yn_David-leia-el-libro.wav,,,,,,,,,,,,,,,,,,,,,,383.6045,386.5205,0,0,2.3856,,0,38,38,0,1,0,castilian,,,,,,,,,,,,,,,,,,,,,,,,,,,,,,,,,,,,,,,,,,,,,,,,,,,,,,,,
,,,,,,,,,6735b2a6112cf17b7b8df8d1,spanish,13 or older,"no, only English or Spanish",no,2025-07-23_02h48.05.644,empathy_intonation_perc,2024.2.4,MacIntel,60.24096386,6735b2a6112cf17b7b8df8d1,687ed1b7e638a4cbf2f02089,68808581d950f7dbd2437596,,,,,,,,,,,,,68,0,,./stim/wavs/puertorican_match_declarative-broad-focus_Maria-bebe-el-vino.wav,,,,,,,,,,,,,,,,,,,,,,386.5211,388.4703,1,0,1.4271,,0,39,39,67,1,0,puertorican,,,,,,,,,,,,,,,,,,,,,,,,,,,,,,,,,,,,,,,,,,,,,,,,,,,,,,,,
,,,,,,,,,6735b2a6112cf17b7b8df8d1,spanish,13 or older,"no, only English or Spanish",no,2025-07-23_02h48.05.644,empathy_intonation_perc,2024.2.4,MacIntel,60.24096386,6735b2a6112cf17b7b8df8d1,687ed1b7e638a4cbf2f02089,68808581d950f7dbd2437596,,,,,,,,,,,,,25,1,,./stim/wavs/castilian_mismatch_interrogative-total-yn_La-maestra-vive-en-Paris.wav,,,,,,,,,,,,,,,,,,,,,,388.4709,391.304,1,1,2.3017,,0,40,40,24,1,0,castilian,,,,,,,,,,,,,,,,,,,,,,,,,,,,,,,,,,,,,,,,,,,,,,,,,,,,,,,,
,,,,,,,,,6735b2a6112cf17b7b8df8d1,spanish,13 or older,"no, only English or Spanish",no,2025-07-23_02h48.05.644,empathy_intonation_perc,2024.2.4,MacIntel,60.24096386,6735b2a6112cf17b7b8df8d1,687ed1b7e638a4cbf2f02089,68808581d950f7dbd2437596,,,,,,,,,,,,,37,1,,./stim/wavs/mexican_mismatch_interrogative-total-yn_La-maestra-vive-en-Paris.wav,,,,,,,,,,,,,,,,,,,,,,391.3046,407.2706,0,0,15.4325,,0,41,41,36,1,0,mexican,,,,,,,,,,,,,,,,,,,,,,,,,,,,,,,,,,,,,,,,,,,,,,,,,,,,,,,,
,,,,,,,,,6735b2a6112cf17b7b8df8d1,spanish,13 or older,"no, only English or Spanish",no,2025-07-23_02h48.05.644,empathy_intonation_perc,2024.2.4,MacIntel,60.24096386,6735b2a6112cf17b7b8df8d1,687ed1b7e638a4cbf2f02089,68808581d950f7dbd2437596,,,,,,,,,,,,,51,0,,./stim/wavs/cuban_match_declarative-broad-focus_Ana-lleva-el-abrigo.wav,,,,,,,,,,,,,,,,,,,,,,407.2712,413.4536,0,1,5.6598,,0,42,42,50,1,0,cuban,,,,,,,,,,,,,,,,,,,,,,,,,,,,,,,,,,,,,,,,,,,,,,,,,,,,,,,,
,,,,,,,,,6735b2a6112cf17b7b8df8d1,spanish,13 or older,"no, only English or Spanish",no,2025-07-23_02h48.05.644,empathy_intonation_perc,2024.2.4,MacIntel,60.24096386,6735b2a6112cf17b7b8df8d1,687ed1b7e638a4cbf2f02089,68808581d950f7dbd2437596,,,,,,,,,,,,,11,1,,./stim/wavs/cuban_match_interrogative-total-yn_Mariano-habla-del-tiempo.wav,,,,,,,,,,,,,,,,,,,,,,413.4541,418.4539,0,0,4.4693,,0,43,43,10,1,1,cuban,,,,,,,,,,,,,,,,,,,,,,,,,,,,,,,,,,,,,,,,,,,,,,,,,,,,,,,,
,,,,,,,,,6735b2a6112cf17b7b8df8d1,spanish,13 or older,"no, only English or Spanish",no,2025-07-23_02h48.05.644,empathy_intonation_perc,2024.2.4,MacIntel,60.24096386,6735b2a6112cf17b7b8df8d1,687ed1b7e638a4cbf2f02089,68808581d950f7dbd2437596,,,,,,,,,,,,,84,0,,./stim/wavs/puertorican_mismatch_declarative-broad-focus_El-bebe-comia-muy-bien.wav,,,,,,,,,,,,,,,,,,,,,,418.4545,420.5203,1,0,1.5444,,0,44,44,83,1,0,puertorican,,,,,,,,,,,,,,,,,,,,,,,,,,,,,,,,,,,,,,,,,,,,,,,,,,,,,,,,
,,,,,,,,,6735b2a6112cf17b7b8df8d1,spanish,13 or older,"no, only English or Spanish",no,2025-07-23_02h48.05.644,empathy_intonation_perc,2024.2.4,MacIntel,60.24096386,6735b2a6112cf17b7b8df8d1,687ed1b7e638a4cbf2f02089,68808581d950f7dbd2437596,,,,,,,,,,,,,60,0,,./stim/wavs/mexican_match_declarative-broad-focus_Emilio-ama-la-marcha.wav,,,,,,,,,,,,,,,,,,,,,,420.521,421.387,1,0,0.3445,,0,45,45,59,1,0,mexican,,,,,,,,,,,,,,,,,,,,,,,,,,,,,,,,,,,,,,,,,,,,,,,,,,,,,,,,
,,,,,,,,,6735b2a6112cf17b7b8df8d1,spanish,13 or older,"no, only English or Spanish",no,2025-07-23_02h48.05.644,empathy_intonation_perc,2024.2.4,MacIntel,60.24096386,6735b2a6112cf17b7b8df8d1,687ed1b7e638a4cbf2f02089,68808581d950f7dbd2437596,,,,,,,,,,,,,18,1,,./stim/wavs/mexican_match_interrogative-total-yn_Marta-abre-el-regalo.wav,,,,,,,,,,,,,,,,,,,,,,421.3877,423.2862,1,1,1.3777,,0,46,46,17,1,0,mexican,,,,,,,,,,,,,,,,,,,,,,,,,,,,,,,,,,,,,,,,,,,,,,,,,,,,,,,,
,,,,,,,,,6735b2a6112cf17b7b8df8d1,spanish,13 or older,"no, only English or Spanish",no,2025-07-23_02h48.05.644,empathy_intonation_perc,2024.2.4,MacIntel,60.24096386,6735b2a6112cf17b7b8df8d1,687ed1b7e638a4cbf2f02089,68808581d950f7dbd2437596,,,,,,,,,,,,,66,0,,./stim/wavs/puertorican_match_declarative-broad-focus_Emilio-ama-la-marcha.wav,,,,,,,,,,,,,,,,,,,,,,423.2868,423.8203,0,1,0.0104,,0,47,47,65,1,0,puertorican,,,,,,,,,,,,,,,,,,,,,,,,,,,,,,,,,,,,,,,,,,,,,,,,,,,,,,,,
,,,,,,,,,6735b2a6112cf17b7b8df8d1,spanish,13 or older,"no, only English or Spanish",no,2025-07-23_02h48.05.644,empathy_intonation_perc,2024.2.4,MacIntel,60.24096386,6735b2a6112cf17b7b8df8d1,687ed1b7e638a4cbf2f02089,68808581d950f7dbd2437596,,,,,,,,,,,,,75,0,,./stim/wavs/cuban_mismatch_declarative-broad-focus_El-hombre-mira-la-luna.wav,,,,,,,,,,,,,,,,,,,,,,423.8209,424.6038,1,0,0.2505,,0,48,48,74,1,0,cuban,,,,,,,,,,,,,,,,,,,,,,,,,,,,,,,,,,,,,,,,,,,,,,,,,,,,,,,,
,,,,,,,,,6735b2a6112cf17b7b8df8d1,spanish,13 or older,"no, only English or Spanish",no,2025-07-23_02h48.05.644,empathy_intonation_perc,2024.2.4,MacIntel,60.24096386,6735b2a6112cf17b7b8df8d1,687ed1b7e638a4cbf2f02089,68808581d950f7dbd2437596,,,,,,,,,,,,,20,1,,./stim/wavs/puertorican_match_interrogative-total-yn_Daniel-iba-a-Bolivia.wav,,,,,,,,,,,,,,,,,,,,,,424.6044,425.5038,1,1,0.3774,,0,49,49,19,1,1,puertorican,,,,,,,,,,,,,,,,,,,,,,,,,,,,,,,,,,,,,,,,,,,,,,,,,,,,,,,,
,,,,,,,,,6735b2a6112cf17b7b8df8d1,spanish,13 or older,"no, only English or Spanish",no,2025-07-23_02h48.05.644,empathy_intonation_perc,2024.2.4,MacIntel,60.24096386,6735b2a6112cf17b7b8df8d1,687ed1b7e638a4cbf2f02089,68808581d950f7dbd2437596,,,,,,,,,,,,,72,0,,./stim/wavs/castilian_mismatch_declarative-broad-focus_Mi-novio-viene-del-lago.wav,,,,,,,,,,,,,,,,,,,,,,425.5044,426.2369,0,1,0.2112,,0,50,50,71,1,0,castilian,,,,,,,,,,,,,,,,,,,,,,,,,,,,,,,,,,,,,,,,,,,,,,,,,,,,,,,,
,,,,,,,,,6735b2a6112cf17b7b8df8d1,spanish,13 or older,"no, only English or Spanish",no,2025-07-23_02h48.05.644,empathy_intonation_perc,2024.2.4,MacIntel,60.24096386,6735b2a6112cf17b7b8df8d1,687ed1b7e638a4cbf2f02089,68808581d950f7dbd2437596,,,,,,,,,,,,,54,0,,./stim/wavs/cuban_match_declarative-broad-focus_Maria-bebe-el-vino.wav,,,,,,,,,,,,,,,,,,,,,,426.2376,429.0362,0,1,2.2679,,0,51,51,53,1,0,cuban,,,,,,,,,,,,,,,,,,,,,,,,,,,,,,,,,,,,,,,,,,,,,,,,,,,,,,,,
,,,,,,,,,6735b2a6112cf17b7b8df8d1,spanish,13 or older,"no, only English or Spanish",no,2025-07-23_02h48.05.644,empathy_intonation_perc,2024.2.4,MacIntel,60.24096386,6735b2a6112cf17b7b8df8d1,687ed1b7e638a4cbf2f02089,68808581d950f7dbd2437596,,,,,,,,,,,,,80,0,,./stim/wavs/mexican_mismatch_declarative-broad-focus_El-hombre-mira-la-luna.wav,,,,,,,,,,,,,,,,,,,,,,429.0369,430.7529,0,1,1.2003,,0,52,52,79,1,0,mexican,,,,,,,,,,,,,,,,,,,,,,,,,,,,,,,,,,,,,,,,,,,,,,,,,,,,,,,,
,,,,,,,,,6735b2a6112cf17b7b8df8d1,spanish,13 or older,"no, only English or Spanish",no,2025-07-23_02h48.05.644,empathy_intonation_perc,2024.2.4,MacIntel,60.24096386,6735b2a6112cf17b7b8df8d1,687ed1b7e638a4cbf2f02089,68808581d950f7dbd2437596,,,,,,,,,,,,,2,1,,./stim/wavs/castilian_match_interrogative-total-yn_Emilio-ama-la-marcha.wav,,,,,,,,,,,,,,,,,,,,,,430.7535,433.4204,0,0,2.1524,,0,53,53,1,1,0,castilian,,,,,,,,,,,,,,,,,,,,,,,,,,,,,,,,,,,,,,,,,,,,,,,,,,,,,,,,
,,,,,,,,,6735b2a6112cf17b7b8df8d1,spanish,13 or older,"no, only English or Spanish",no,2025-07-23_02h48.05.644,empathy_intonation_perc,2024.2.4,MacIntel,60.24096386,6735b2a6112cf17b7b8df8d1,687ed1b7e638a4cbf2f02089,68808581d950f7dbd2437596,,,,,,,,,,,,,17,1,,./stim/wavs/mexican_match_interrogative-total-yn_Mariano-habla-del-tiempo.wav,,,,,,,,,,,,,,,,,,,,,,433.4211,434.9362,1,1,0.9826,,0,54,54,16,1,0,mexican,,,,,,,,,,,,,,,,,,,,,,,,,,,,,,,,,,,,,,,,,,,,,,,,,,,,,,,,
,,,,,,,,,6735b2a6112cf17b7b8df8d1,spanish,13 or older,"no, only English or Spanish",no,2025-07-23_02h48.05.644,empathy_intonation_perc,2024.2.4,MacIntel,60.24096386,6735b2a6112cf17b7b8df8d1,687ed1b7e638a4cbf2f02089,68808581d950f7dbd2437596,,,,,,,,,,,,,56,0,,./stim/wavs/cuban_match_declarative-broad-focus_Marta-abre-el-regalo.wav,,,,,,,,,,,,,,,,,,,,,,434.9369,436.2203,1,0,0.7779,,0,55,55,55,1,0,cuban,,,,,,,,,,,,,,,,,,,,,,,,,,,,,,,,,,,,,,,,,,,,,,,,,,,,,,,,
,,,,,,,,,6735b2a6112cf17b7b8df8d1,spanish,13 or older,"no, only English or Spanish",no,2025-07-23_02h48.05.644,empathy_intonation_perc,2024.2.4,MacIntel,60.24096386,6735b2a6112cf17b7b8df8d1,687ed1b7e638a4cbf2f02089,68808581d950f7dbd2437596,,,,,,,,,,,,,64,0,,./stim/wavs/puertorican_match_declarative-broad-focus_Daniel-iba-a-Bolivia.wav,,,,,,,,,,,,,,,,,,,,,,436.221,437.4705,0,1,0.7168,,0,56,56,63,1,0,puertorican,,,,,,,,,,,,,,,,,,,,,,,,,,,,,,,,,,,,,,,,,,,,,,,,,,,,,,,,
,,,,,,,,,6735b2a6112cf17b7b8df8d1,spanish,13 or older,"no, only English or Spanish",no,2025-07-23_02h48.05.644,empathy_intonation_perc,2024.2.4,MacIntel,60.24096386,6735b2a6112cf17b7b8df8d1,687ed1b7e638a4cbf2f02089,68808581d950f7dbd2437596,,,,,,,,,,,,,46,0,,./stim/wavs/castilian_match_declarative-broad-focus_Emilio-ama-la-marcha.wav,,,,,,,,,,,,,,,,,,,,,,437.4711,439.1369,0,1,1.1371,,0,57,57,45,1,0,castilian,,,,,,,,,,,,,,,,,,,,,,,,,,,,,,,,,,,,,,,,,,,,,,,,,,,,,,,,
,,,,,,,,,6735b2a6112cf17b7b8df8d1,spanish,13 or older,"no, only English or Spanish",no,2025-07-23_02h48.05.644,empathy_intonation_perc,2024.2.4,MacIntel,60.24096386,6735b2a6112cf17b7b8df8d1,687ed1b7e638a4cbf2f02089,68808581d950f7dbd2437596,,,,,,,,,,,,,43,1,,./stim/wavs/puertorican_mismatch_interrogative-total-yn_La-nina-lava-el-plato.wav,,,,,,,,,,,,,,,,,,,,,,439.1375,440.5037,0,0,0.845,,0,58,58,42,1,1,puertorican,,,,,,,,,,,,,,,,,,,,,,,,,,,,,,,,,,,,,,,,,,,,,,,,,,,,,,,,
,,,,,,,,,6735b2a6112cf17b7b8df8d1,spanish,13 or older,"no, only English or Spanish",no,2025-07-23_02h48.05.644,empathy_intonation_perc,2024.2.4,MacIntel,60.24096386,6735b2a6112cf17b7b8df8d1,687ed1b7e638a4cbf2f02089,68808581d950f7dbd2437596,,,,,,,,,,,,,38,1,,./stim/wavs/mexican_mismatch_interrogative-total-yn_Mi-novio-viene-del-lago.wav,,,,,,,,,,,,,,,,,,,,,,440.5043,441.237,1,1,0.2026,,0,59,59,37,1,0,mexican,,,,,,,,,,,,,,,,,,,,,,,,,,,,,,,,,,,,,,,,,,,,,,,,,,,,,,,,
,,,,,,,,,6735b2a6112cf17b7b8df8d1,spanish,13 or older,"no, only English or Spanish",no,2025-07-23_02h48.05.644,empathy_intonation_perc,2024.2.4,MacIntel,60.24096386,6735b2a6112cf17b7b8df8d1,687ed1b7e638a4cbf2f02089,68808581d950f7dbd2437596,,,,,,,,,,,,,52,0,,./stim/wavs/cuban_match_declarative-broad-focus_Daniel-iba-a-Bolivia.wav,,,,,,,,,,,,,,,,,,,,,,441.2377,442.1371,1,0,0.3668,,0,60,60,51,1,0,cuban,,,,,,,,,,,,,,,,,,,,,,,,,,,,,,,,,,,,,,,,,,,,,,,,,,,,,,,,
,,,,,,,,,6735b2a6112cf17b7b8df8d1,spanish,13 or older,"no, only English or Spanish",no,2025-07-23_02h48.05.644,empathy_intonation_perc,2024.2.4,MacIntel,60.24096386,6735b2a6112cf17b7b8df8d1,687ed1b7e638a4cbf2f02089,68808581d950f7dbd2437596,,,,,,,,,,,,,24,1,,./stim/wavs/puertorican_match_interrogative-total-yn_Maria-bebe-el-vino.wav,,,,,,,,,,,,,,,,,,,,,,442.1378,444.4537,0,0,1.7955,,0,61,61,23,1,1,puertorican,,,,,,,,,,,,,,,,,,,,,,,,,,,,,,,,,,,,,,,,,,,,,,,,,,,,,,,,
,,,,,,,,,6735b2a6112cf17b7b8df8d1,spanish,13 or older,"no, only English or Spanish",no,2025-07-23_02h48.05.644,empathy_intonation_perc,2024.2.4,MacIntel,60.24096386,6735b2a6112cf17b7b8df8d1,687ed1b7e638a4cbf2f02089,68808581d950f7dbd2437596,,,,,,,,,,,,,86,0,,./stim/wavs/puertorican_mismatch_declarative-broad-focus_El-nino-oye-el-rio.wav,,,,,,,,,,,,,,,,,,,,,,444.4543,446.0526,1,0,1.0747,,0,62,62,85,1,0,puertorican,,,,,,,,,,,,,,,,,,,,,,,,,,,,,,,,,,,,,,,,,,,,,,,,,,,,,,,,
,,,,,,,,,6735b2a6112cf17b7b8df8d1,spanish,13 or older,"no, only English or Spanish",no,2025-07-23_02h48.05.644,empathy_intonation_perc,2024.2.4,MacIntel,60.24096386,6735b2a6112cf17b7b8df8d1,687ed1b7e638a4cbf2f02089,68808581d950f7dbd2437596,,,,,,,,,,,,,39,1,,./stim/wavs/mexican_mismatch_interrogative-total-yn_Mi-tia-odia-la-lluvia.wav,,,,,,,,,,,,,,,,,,,,,,446.0531,448.0027,1,1,1.4327,,0,63,63,38,1,0,mexican,,,,,,,,,,,,,,,,,,,,,,,,,,,,,,,,,,,,,,,,,,,,,,,,,,,,,,,,
,,,,,,,,,6735b2a6112cf17b7b8df8d1,spanish,13 or older,"no, only English or Spanish",no,2025-07-23_02h48.05.644,empathy_intonation_perc,2024.2.4,MacIntel,60.24096386,6735b2a6112cf17b7b8df8d1,687ed1b7e638a4cbf2f02089,68808581d950f7dbd2437596,,,,,,,,,,,,,58,0,,./stim/wavs/mexican_match_declarative-broad-focus_Daniel-iba-a-Bolivia.wav,,,,,,,,,,,,,,,,,,,,,,448.0034,449.7538,1,0,1.2338,,0,64,64,57,1,0,mexican,,,,,,,,,,,,,,,,,,,,,,,,,,,,,,,,,,,,,,,,,,,,,,,,,,,,,,,,
,,,,,,,,,6735b2a6112cf17b7b8df8d1,spanish,13 or older,"no, only English or Spanish",no,2025-07-23_02h48.05.644,empathy_intonation_perc,2024.2.4,MacIntel,60.24096386,6735b2a6112cf17b7b8df8d1,687ed1b7e638a4cbf2f02089,68808581d950f7dbd2437596,,,,,,,,,,,,,55,0,,./stim/wavs/cuban_match_declarative-broad-focus_Mariano-habla-del-tiempo.wav,,,,,,,,,,,,,,,,,,,,,,449.7544,451.1693,0,1,0.8835,,0,65,65,54,1,0,cuban,,,,,,,,,,,,,,,,,,,,,,,,,,,,,,,,,,,,,,,,,,,,,,,,,,,,,,,,
,,,,,,,,,6735b2a6112cf17b7b8df8d1,spanish,13 or older,"no, only English or Spanish",no,2025-07-23_02h48.05.644,empathy_intonation_perc,2024.2.4,MacIntel,60.24096386,6735b2a6112cf17b7b8df8d1,687ed1b7e638a4cbf2f02089,68808581d950f7dbd2437596,,,,,,,,,,,,,79,0,,./stim/wavs/mexican_mismatch_declarative-broad-focus_El-bebe-comia-muy-bien.wav,,,,,,,,,,,,,,,,,,,,,,451.1699,454.9703,0,1,3.2862,,0,66,66,78,1,0,mexican,,,,,,,,,,,,,,,,,,,,,,,,,,,,,,,,,,,,,,,,,,,,,,,,,,,,,,,,
,,,,,,,,,6735b2a6112cf17b7b8df8d1,spanish,13 or older,"no, only English or Spanish",no,2025-07-23_02h48.05.644,empathy_intonation_perc,2024.2.4,MacIntel,60.24096386,6735b2a6112cf17b7b8df8d1,687ed1b7e638a4cbf2f02089,68808581d950f7dbd2437596,,,,,,,,,,,,,27,1,,./stim/wavs/castilian_mismatch_interrogative-total-yn_Mi-madre-come-la-fruta.wav,,,,,,,,,,,,,,,,,,,,,,454.971,457.2868,0,0,1.7937,,0,67,67,26,1,0,castilian,,,,,,,,,,,,,,,,,,,,,,,,,,,,,,,,,,,,,,,,,,,,,,,,,,,,,,,,
,,,,,,,,,6735b2a6112cf17b7b8df8d1,spanish,13 or older,"no, only English or Spanish",no,2025-07-23_02h48.05.644,empathy_intonation_perc,2024.2.4,MacIntel,60.24096386,6735b2a6112cf17b7b8df8d1,687ed1b7e638a4cbf2f02089,68808581d950f7dbd2437596,,,,,,,,,,,,,9,1,,./stim/wavs/cuban_match_interrogative-total-yn_Manuela-vende-el-carro.wav,,,,,,,,,,,,,,,,,,,,,,457.2874,463.8537,0,0,6.0351,,0,68,68,8,1,1,cuban,,,,,,,,,,,,,,,,,,,,,,,,,,,,,,,,,,,,,,,,,,,,,,,,,,,,,,,,
,,,,,,,,,6735b2a6112cf17b7b8df8d1,spanish,13 or older,"no, only English or Spanish",no,2025-07-23_02h48.05.644,empathy_intonation_perc,2024.2.4,MacIntel,60.24096386,6735b2a6112cf17b7b8df8d1,687ed1b7e638a4cbf2f02089,68808581d950f7dbd2437596,,,,,,,,,,,,,26,1,,./stim/wavs/castilian_mismatch_interrogative-total-yn_La-nina-lava-el-plato.wav,,,,,,,,,,,,,,,,,,,,,,463.8542,466.7194,0,0,2.3347,,0,69,69,25,1,0,castilian,,,,,,,,,,,,,,,,,,,,,,,,,,,,,,,,,,,,,,,,,,,,,,,,,,,,,,,,
,,,,,,,,,6735b2a6112cf17b7b8df8d1,spanish,13 or older,"no, only English or Spanish",no,2025-07-23_02h48.05.644,empathy_intonation_perc,2024.2.4,MacIntel,60.24096386,6735b2a6112cf17b7b8df8d1,687ed1b7e638a4cbf2f02089,68808581d950f7dbd2437596,,,,,,,,,,,,,83,0,,./stim/wavs/mexican_mismatch_declarative-broad-focus_Mi-tia-odia-la-lluvia.wav,,,,,,,,,,,,,,,,,,,,,,466.7201,467.6537,1,0,0.4006,,0,70,70,82,1,0,mexican,,,,,,,,,,,,,,,,,,,,,,,,,,,,,,,,,,,,,,,,,,,,,,,,,,,,,,,,
,,,,,,,,,6735b2a6112cf17b7b8df8d1,spanish,13 or older,"no, only English or Spanish",no,2025-07-23_02h48.05.644,empathy_intonation_perc,2024.2.4,MacIntel,60.24096386,6735b2a6112cf17b7b8df8d1,687ed1b7e638a4cbf2f02089,68808581d950f7dbd2437596,,,,,,,,,,,,,71,0,,./stim/wavs/castilian_mismatch_declarative-broad-focus_La-nina-lava-el-plato.wav,,,,,,,,,,,,,,,,,,,,,,467.6545,470.2203,0,1,2.0337,,0,71,71,70,1,0,castilian,,,,,,,,,,,,,,,,,,,,,,,,,,,,,,,,,,,,,,,,,,,,,,,,,,,,,,,,
,,,,,,,,,6735b2a6112cf17b7b8df8d1,spanish,13 or older,"no, only English or Spanish",no,2025-07-23_02h48.05.644,empathy_intonation_perc,2024.2.4,MacIntel,60.24096386,6735b2a6112cf17b7b8df8d1,687ed1b7e638a4cbf2f02089,68808581d950f7dbd2437596,,,,,,,,,,,,,59,0,,./stim/wavs/mexican_match_declarative-broad-focus_David-leia-el-libro.wav,,,,,,,,,,,,,,,,,,,,,,470.2212,474.387,0,1,3.6359,,0,72,72,58,1,0,mexican,,,,,,,,,,,,,,,,,,,,,,,,,,,,,,,,,,,,,,,,,,,,,,,,,,,,,,,,
,,,,,,,,,6735b2a6112cf17b7b8df8d1,spanish,13 or older,"no, only English or Spanish",no,2025-07-23_02h48.05.644,empathy_intonation_perc,2024.2.4,MacIntel,60.24096386,6735b2a6112cf17b7b8df8d1,687ed1b7e638a4cbf2f02089,68808581d950f7dbd2437596,,,,,,,,,,,,,48,0,,./stim/wavs/castilian_match_declarative-broad-focus_Maria-bebe-el-vino.wav,,,,,,,,,,,,,,,,,,,,,,474.3878,476.037,0,1,1.1277,,0,73,73,47,1,0,castilian,,,,,,,,,,,,,,,,,,,,,,,,,,,,,,,,,,,,,,,,,,,,,,,,,,,,,,,,
,,,,,,,,,6735b2a6112cf17b7b8df8d1,spanish,13 or older,"no, only English or Spanish",no,2025-07-23_02h48.05.644,empathy_intonation_perc,2024.2.4,MacIntel,60.24096386,6735b2a6112cf17b7b8df8d1,687ed1b7e638a4cbf2f02089,68808581d950f7dbd2437596,,,,,,,,,,,,,33,1,,./stim/wavs/cuban_mismatch_interrogative-total-yn_Mi-novio-viene-del-lago.wav,,,,,,,,,,,,,,,,,,,,,,476.0376,477.7036,1,1,1.1367,,0,74,74,32,1,1,cuban,,,,,,,,,,,,,,,,,,,,,,,,,,,,,,,,,,,,,,,,,,,,,,,,,,,,,,,,
,,,,,,,,,6735b2a6112cf17b7b8df8d1,spanish,13 or older,"no, only English or Spanish",no,2025-07-23_02h48.05.644,empathy_intonation_perc,2024.2.4,MacIntel,60.24096386,6735b2a6112cf17b7b8df8d1,687ed1b7e638a4cbf2f02089,68808581d950f7dbd2437596,,,,,,,,,,,,,74,0,,./stim/wavs/cuban_mismatch_declarative-broad-focus_El-bebe-comia-muy-bien.wav,,,,,,,,,,,,,,,,,,,,,,477.7043,480.2203,1,0,1.9869,,0,75,75,73,1,0,cuban,,,,,,,,,,,,,,,,,,,,,,,,,,,,,,,,,,,,,,,,,,,,,,,,,,,,,,,,
,,,,,,,,,6735b2a6112cf17b7b8df8d1,spanish,13 or older,"no, only English or Spanish",no,2025-07-23_02h48.05.644,empathy_intonation_perc,2024.2.4,MacIntel,60.24096386,6735b2a6112cf17b7b8df8d1,687ed1b7e638a4cbf2f02089,68808581d950f7dbd2437596,,,,,,,,,,,,,73,0,,./stim/wavs/castilian_mismatch_declarative-broad-focus_Mi-tia-odia-la-lluvia.wav,,,,,,,,,,,,,,,,,,,,,,480.221,485.2035,1,0,4.4578,,0,76,76,72,1,0,castilian,,,,,,,,,,,,,,,,,,,,,,,,,,,,,,,,,,,,,,,,,,,,,,,,,,,,,,,,
,,,,,,,,,6735b2a6112cf17b7b8df8d1,spanish,13 or older,"no, only English or Spanish",no,2025-07-23_02h48.05.644,empathy_intonation_perc,2024.2.4,MacIntel,60.24096386,6735b2a6112cf17b7b8df8d1,687ed1b7e638a4cbf2f02089,68808581d950f7dbd2437596,,,,,,,,,,,,,41,1,,./stim/wavs/puertorican_mismatch_interrogative-total-yn_El-nino-oye-el-rio.wav,,,,,,,,,,,,,,,,,,,,,,485.2039,494.3527,1,1,8.6168,,0,77,77,40,1,1,puertorican,,,,,,,,,,,,,,,,,,,,,,,,,,,,,,,,,,,,,,,,,,,,,,,,,,,,,,,,
,,,,,,,,,6735b2a6112cf17b7b8df8d1,spanish,13 or older,"no, only English or Spanish",no,2025-07-23_02h48.05.644,empathy_intonation_perc,2024.2.4,MacIntel,60.24096386,6735b2a6112cf17b7b8df8d1,687ed1b7e638a4cbf2f02089,68808581d950f7dbd2437596,,,,,,,,,,,,,21,1,,./stim/wavs/puertorican_match_interrogative-total-yn_David-leia-el-libro.wav,,,,,,,,,,,,,,,,,,,,,,494.3533,498.7368,1,1,3.8768,,0,78,78,20,1,1,puertorican,,,,,,,,,,,,,,,,,,,,,,,,,,,,,,,,,,,,,,,,,,,,,,,,,,,,,,,,
,,,,,,,,,6735b2a6112cf17b7b8df8d1,spanish,13 or older,"no, only English or Spanish",no,2025-07-23_02h48.05.644,empathy_intonation_perc,2024.2.4,MacIntel,60.24096386,6735b2a6112cf17b7b8df8d1,687ed1b7e638a4cbf2f02089,68808581d950f7dbd2437596,,,,,,,,,,,,,87,0,,./stim/wavs/puertorican_mismatch_declarative-broad-focus_La-maestra-vive-en-Paris.wav,,,,,,,,,,,,,,,,,,,,,,498.7372,500.4857,0,1,1.2266,,0,79,79,86,1,0,puertorican,,,,,,,,,,,,,,,,,,,,,,,,,,,,,,,,,,,,,,,,,,,,,,,,,,,,,,,,
,,,,,,,,,6735b2a6112cf17b7b8df8d1,spanish,13 or older,"no, only English or Spanish",no,2025-07-23_02h48.05.644,empathy_intonation_perc,2024.2.4,MacIntel,60.24096386,6735b2a6112cf17b7b8df8d1,687ed1b7e638a4cbf2f02089,68808581d950f7dbd2437596,,,,,,,,,,,,,70,0,,./stim/wavs/castilian_mismatch_declarative-broad-focus_La-maestra-vive-en-Paris.wav,,,,,,,,,,,,,,,,,,,,,,500.4863,502.0702,0,1,1.0672,,0,80,80,69,1,0,castilian,,,,,,,,,,,,,,,,,,,,,,,,,,,,,,,,,,,,,,,,,,,,,,,,,,,,,,,,
,,,,,,,,,6735b2a6112cf17b7b8df8d1,spanish,13 or older,"no, only English or Spanish",no,2025-07-23_02h48.05.644,empathy_intonation_perc,2024.2.4,MacIntel,60.24096386,6735b2a6112cf17b7b8df8d1,687ed1b7e638a4cbf2f02089,68808581d950f7dbd2437596,,,,,,,,,,,,,22,1,,./stim/wavs/puertorican_match_interrogative-total-yn_Emilio-ama-la-marcha.wav,,,,,,,,,,,,,,,,,,,,,,502.0709,504.6202,0,0,2.019,,0,81,81,21,1,1,puertorican,,,,,,,,,,,,,,,,,,,,,,,,,,,,,,,,,,,,,,,,,,,,,,,,,,,,,,,,
,,,,,,,,,6735b2a6112cf17b7b8df8d1,spanish,13 or older,"no, only English or Spanish",no,2025-07-23_02h48.05.644,empathy_intonation_perc,2024.2.4,MacIntel,60.24096386,6735b2a6112cf17b7b8df8d1,687ed1b7e638a4cbf2f02089,68808581d950f7dbd2437596,,,,,,,,,,,,,30,1,,./stim/wavs/cuban_mismatch_interrogative-total-yn_El-hombre-mira-la-luna.wav,,,,,,,,,,,,,,,,,,,,,,504.6208,506.1369,0,0,0.9843,,0,82,82,29,1,1,cuban,,,,,,,,,,,,,,,,,,,,,,,,,,,,,,,,,,,,,,,,,,,,,,,,,,,,,,,,
,,,,,,,,,6735b2a6112cf17b7b8df8d1,spanish,13 or older,"no, only English or Spanish",no,2025-07-23_02h48.05.644,empathy_intonation_perc,2024.2.4,MacIntel,60.24096386,6735b2a6112cf17b7b8df8d1,687ed1b7e638a4cbf2f02089,68808581d950f7dbd2437596,,,,,,,,,,,,,6,1,,./stim/wavs/castilian_match_interrogative-total-yn_Marta-abre-el-regalo.wav,,,,,,,,,,,,,,,,,,,,,,506.1375,508.9036,0,0,2.2336,,0,83,83,5,1,0,castilian,,,,,,,,,,,,,,,,,,,,,,,,,,,,,,,,,,,,,,,,,,,,,,,,,,,,,,,,
,,,,,,,,,6735b2a6112cf17b7b8df8d1,spanish,13 or older,"no, only English or Spanish",no,2025-07-23_02h48.05.644,empathy_intonation_perc,2024.2.4,MacIntel,60.24096386,6735b2a6112cf17b7b8df8d1,687ed1b7e638a4cbf2f02089,68808581d950f7dbd2437596,,,,,,,,,,,,,16,1,,./stim/wavs/mexican_match_interrogative-total-yn_Emilio-ama-la-marcha.wav,,,,,,,,,,,,,,,,,,,,,,508.9042,513.0868,0,0,3.6534,,0,84,84,15,1,0,mexican,,,,,,,,,,,,,,,,,,,,,,,,,,,,,,,,,,,,,,,,,,,,,,,,,,,,,,,,
,,,,,,,,,6735b2a6112cf17b7b8df8d1,spanish,13 or older,"no, only English or Spanish",no,2025-07-23_02h48.05.644,empathy_intonation_perc,2024.2.4,MacIntel,60.24096386,6735b2a6112cf17b7b8df8d1,687ed1b7e638a4cbf2f02089,68808581d950f7dbd2437596,,,,,,,,,,,,,34,1,,./stim/wavs/cuban_mismatch_interrogative-total-yn_Mi-tia-odia-la-lluvia.wav,,,,,,,,,,,,,,,,,,,,,,513.0875,514.6193,0,0,0.999,,0,85,85,33,1,1,cuban,,,,,,,,,,,,,,,,,,,,,,,,,,,,,,,,,,,,,,,,,,,,,,,,,,,,,,,,
,,,,,,,,,6735b2a6112cf17b7b8df8d1,spanish,13 or older,"no, only English or Spanish",no,2025-07-23_02h48.05.644,empathy_intonation_perc,2024.2.4,MacIntel,60.24096386,6735b2a6112cf17b7b8df8d1,687ed1b7e638a4cbf2f02089,68808581d950f7dbd2437596,,,,,,,,,,,,,31,1,,./stim/wavs/cuban_mismatch_interrogative-total-yn_El-nino-oye-el-rio.wav,,,,,,,,,,,,,,,,,,,,,,514.62,518.4527,0,0,3.3163,,0,86,86,30,1,1,cuban,,,,,,,,,,,,,,,,,,,,,,,,,,,,,,,,,,,,,,,,,,,,,,,,,,,,,,,,
,,,,,,,,,6735b2a6112cf17b7b8df8d1,spanish,13 or older,"no, only English or Spanish",no,2025-07-23_02h48.05.644,empathy_intonation_perc,2024.2.4,MacIntel,60.24096386,6735b2a6112cf17b7b8df8d1,687ed1b7e638a4cbf2f02089,68808581d950f7dbd2437596,,,,,,,,,,,,,7,1,,./stim/wavs/cuban_match_interrogative-total-yn_Ana-lleva-el-abrigo.wav,,,,,,,,,,,,,,,,,,,,,,518.4533,530.67,0,0,11.7098,,0,87,87,6,1,1,cuban,,,,,,,,,,,,,,,,,,,,,,,,,,,,,,,,,,,,,,,,,,,,,,,,,,,,,,,,
,,,,,,,"Great! Now we will move on. The next task consists of about 60 trials, in each of which you will see a string of letters. 
  
  Your task is to decide whether this is a real Spanish word or not.", (press the spacebar to continue),6735b2a6112cf17b7b8df8d1,spanish,13 or older,"no, only English or Spanish",no,2025-07-23_02h48.05.644,empathy_intonation_perc,2024.2.4,MacIntel,60.24096386,6735b2a6112cf17b7b8df8d1,687ed1b7e638a4cbf2f02089,68808581d950f7dbd2437596,,,,,,,,,,,,,,,,,,,,,,,,,,,,,,,,,,,,,,,,,,,,,,,,,,,530.6751,864.2361,0,0,0,0,1,,,,,,,,,,,,,,,,,,,,,,,,,,,,,,,,,,,,,,,,,,,,,,,,,
,,,,,,,"If you think it is an existing Spanish word, you type '1' (for 'REAL'), and if you think it is not an existing Spanish word, you type '0' (for 'FAKE').", (press the spacebar to continue),6735b2a6112cf17b7b8df8d1,spanish,13 or older,"no, only English or Spanish",no,2025-07-23_02h48.05.644,empathy_intonation_perc,2024.2.4,MacIntel,60.24096386,6735b2a6112cf17b7b8df8d1,687ed1b7e638a4cbf2f02089,68808581d950f7dbd2437596,,,,,,,,,,,,,,,,,,,,,,,,,,,,,,,,,,,,,,,,,,,,,,,,,,,864.2375,865.8684,0,1,1,1,1,,,,,,,,,,,,,,,,,,,,,,,,,,,,,,,,,,,,,,,,,,,,,,,,,
,,,,,,,"If you are sure that the word exists, even though you don’t know its exact meaning, you may still respond '1' (REAL). 
  
  But if you are not sure if it is an existing word, you should respond '0' (FAKE).
  
  Let's do a practice round...", (press the spacebar to continue),6735b2a6112cf17b7b8df8d1,spanish,13 or older,"no, only English or Spanish",no,2025-07-23_02h48.05.644,empathy_intonation_perc,2024.2.4,MacIntel,60.24096386,6735b2a6112cf17b7b8df8d1,687ed1b7e638a4cbf2f02089,68808581d950f7dbd2437596,,,,,,,,,,,,,,,,,,,,,,,,,,,,,,,,,,,,,,,,,,,,,,,,,,,865.8703,867.2024,0,2,2,2,1,,,,,,,,,,,,,,,,,,,,,,,,,,,,,,,,,,,,,,,,,,,,,,,,,
,,,,,,,,,6735b2a6112cf17b7b8df8d1,spanish,13 or older,"no, only English or Spanish",no,2025-07-23_02h48.05.644,empathy_intonation_perc,2024.2.4,MacIntel,60.24096386,6735b2a6112cf17b7b8df8d1,687ed1b7e638a4cbf2f02089,68808581d950f7dbd2437596,,,,,,,,,,,,,,0,,,,,,,,,,,,,,,,,,,,,,,,,,,,,,,,,,,,,,,,,,,,867.2071,870.0361,0,1,2.2974,,870.0364,871.036,0,0,0,0,1,0,depiste,REAL,FAKE,,,,,,,,,,,,,,,,,,,,,,,,,,,,,,,,
,,,,,,,,,6735b2a6112cf17b7b8df8d1,spanish,13 or older,"no, only English or Spanish",no,2025-07-23_02h48.05.644,empathy_intonation_perc,2024.2.4,MacIntel,60.24096386,6735b2a6112cf17b7b8df8d1,687ed1b7e638a4cbf2f02089,68808581d950f7dbd2437596,,,,,,,,,,,,,,1,,,,,,,,,,,,,,,,,,,,,,,,,,,,,,,,,,,,,,,,,,,,871.0374,873.0692,1,1,1.5009,,873.0692,874.0691,0,1,1,1,1,0,sí,REAL,FAKE,,,,,,,,,,,,,,,,,,,,,,,,,,,,,,,,
,,,,,,,,,6735b2a6112cf17b7b8df8d1,spanish,13 or older,"no, only English or Spanish",no,2025-07-23_02h48.05.644,empathy_intonation_perc,2024.2.4,MacIntel,60.24096386,6735b2a6112cf17b7b8df8d1,687ed1b7e638a4cbf2f02089,68808581d950f7dbd2437596,,,,,,,,,,,,,,0,,,,,,,,,,,,,,,,,,,,,,,,,,,,,,,,,,,,,,,,,,,,874.0704,879.2023,0,1,4.5975,,879.2023,880.2024,0,2,2,2,1,0,coné,REAL,FAKE,,,,,,,,,,,,,,,,,,,,,,,,,,,,,,,,
,,,,,,,,,6735b2a6112cf17b7b8df8d1,spanish,13 or older,"no, only English or Spanish",no,2025-07-23_02h48.05.644,empathy_intonation_perc,2024.2.4,MacIntel,60.24096386,6735b2a6112cf17b7b8df8d1,687ed1b7e638a4cbf2f02089,68808581d950f7dbd2437596,,,,,,,,,,,,,,0,,,,,,,,,,,,,,,,,,,,,,,,,,,,,,,,,,,,,,,,,,,,880.2036,882.1514,0,1,1.4131,,882.1515,883.1524,0,3,3,3,1,0,calpar,REAL,FAKE,,,,,,,,,,,,,,,,,,,,,,,,,,,,,,,,
,,,,,,,,,6735b2a6112cf17b7b8df8d1,spanish,13 or older,"no, only English or Spanish",no,2025-07-23_02h48.05.644,empathy_intonation_perc,2024.2.4,MacIntel,60.24096386,6735b2a6112cf17b7b8df8d1,687ed1b7e638a4cbf2f02089,68808581d950f7dbd2437596,,,,,,,,,,,,,,0,,,,,,,,,,,,,,,,,,,,,,,,,,,,,,,,,,,,,,,,,,,,883.1536,884.7523,0,1,1.0642,,884.7524,885.7524,0,4,4,4,1,0,joten,REAL,FAKE,,,,,,,,,,,,,,,,,,,,,,,,,,,,,,,,
,,,,,,,,,6735b2a6112cf17b7b8df8d1,spanish,13 or older,"no, only English or Spanish",no,2025-07-23_02h48.05.644,empathy_intonation_perc,2024.2.4,MacIntel,60.24096386,6735b2a6112cf17b7b8df8d1,687ed1b7e638a4cbf2f02089,68808581d950f7dbd2437596,,,,,,,,,,,,,,1,,,,,,,,,,,,,,,,,,,,,,,,,,,,,,,,,,,,,,,,,,,,885.7535,886.9191,0,0,0.6226,,886.9201,887.919,0,5,5,5,1,0,sacapuntas,REAL,FAKE,,,,,,,,,,,,,,,,,,,,,,,,,,,,,,,,
,,,,,,,,,6735b2a6112cf17b7b8df8d1,spanish,13 or older,"no, only English or Spanish",no,2025-07-23_02h48.05.644,empathy_intonation_perc,2024.2.4,MacIntel,60.24096386,6735b2a6112cf17b7b8df8d1,687ed1b7e638a4cbf2f02089,68808581d950f7dbd2437596,,,,,,,,,,,,,,0,,,,,,,,,,,,,,,,,,,,,,,,,,,,,,,,,,,,,,,,,,,,887.9203,889.1522,0,1,0.697,,889.1528,890.1524,0,6,6,6,1,0,priba,REAL,FAKE,,,,,,,,,,,,,,,,,,,,,,,,,,,,,,,,
,,,,,,,,,6735b2a6112cf17b7b8df8d1,spanish,13 or older,"no, only English or Spanish",no,2025-07-23_02h48.05.644,empathy_intonation_perc,2024.2.4,MacIntel,60.24096386,6735b2a6112cf17b7b8df8d1,687ed1b7e638a4cbf2f02089,68808581d950f7dbd2437596,,,,,,,,,,,,,,0,,,,,,,,,,,,,,,,,,,,,,,,,,,,,,,,,,,,,,,,,,,,890.1535,891.3349,0,1,0.641,,891.335,892.3356,0,7,7,7,1,0,pelasula,REAL,FAKE,,,,,,,,,,,,,,,,,,,,,,,,,,,,,,,,
,,,,,,,,,6735b2a6112cf17b7b8df8d1,spanish,13 or older,"no, only English or Spanish",no,2025-07-23_02h48.05.644,empathy_intonation_perc,2024.2.4,MacIntel,60.24096386,6735b2a6112cf17b7b8df8d1,687ed1b7e638a4cbf2f02089,68808581d950f7dbd2437596,,,,,,,,,,,,,,1,,,,,,,,,,,,,,,,,,,,,,,,,,,,,,,,,,,,,,,,,,,,892.3368,893.3523,1,1,0.4755,,893.3524,894.3524,0,8,8,8,1,0,bien,REAL,FAKE,,,,,,,,,,,,,,,,,,,,,,,,,,,,,,,,
,,,,,,,,,6735b2a6112cf17b7b8df8d1,spanish,13 or older,"no, only English or Spanish",no,2025-07-23_02h48.05.644,empathy_intonation_perc,2024.2.4,MacIntel,60.24096386,6735b2a6112cf17b7b8df8d1,687ed1b7e638a4cbf2f02089,68808581d950f7dbd2437596,,,,,,,,,,,,,,1,,,,,,,,,,,,,,,,,,,,,,,,,,,,,,,,,,,,,,,,,,,,894.3536,895.519,1,1,0.6336,,895.519,896.5191,0,9,9,9,1,0,casa,REAL,FAKE,,,,,,,,,,,,,,,,,,,,,,,,,,,,,,,,
,,,,,,,,,6735b2a6112cf17b7b8df8d1,spanish,13 or older,"no, only English or Spanish",no,2025-07-23_02h48.05.644,empathy_intonation_perc,2024.2.4,MacIntel,60.24096386,6735b2a6112cf17b7b8df8d1,687ed1b7e638a4cbf2f02089,68808581d950f7dbd2437596,,,,,,,,,,,,,,0,,,,,,,,,,,,,,,,,,,,,,,,,,,,,,,,,,,,,,,,,,,,896.5202,897.7357,0,1,0.6765,,897.7358,898.7348,0,10,10,10,1,0,lejo,REAL,FAKE,,,,,,,,,,,,,,,,,,,,,,,,,,,,,,,,
,,,,,,,,,6735b2a6112cf17b7b8df8d1,spanish,13 or older,"no, only English or Spanish",no,2025-07-23_02h48.05.644,empathy_intonation_perc,2024.2.4,MacIntel,60.24096386,6735b2a6112cf17b7b8df8d1,687ed1b7e638a4cbf2f02089,68808581d950f7dbd2437596,,,,,,,,,,,,,,0,,,,,,,,,,,,,,,,,,,,,,,,,,,,,,,,,,,,,,,,,,,,898.7359,899.9348,0,1,0.6577,,899.9349,900.9357,0,11,11,11,1,0,pretantas,REAL,FAKE,,,,,,,,,,,,,,,,,,,,,,,,,,,,,,,,
,,,,,,,,,6735b2a6112cf17b7b8df8d1,spanish,13 or older,"no, only English or Spanish",no,2025-07-23_02h48.05.644,empathy_intonation_perc,2024.2.4,MacIntel,60.24096386,6735b2a6112cf17b7b8df8d1,687ed1b7e638a4cbf2f02089,68808581d950f7dbd2437596,,,,,,,,,,,,,,,,,,,,,,,,,,,,,,,,,,,,,,,,,,,,,,,,,,,,,,,,,,,,,,,,,,,,,,,,,,,900.936,901.8193,,,,,,,,,,,,,,,,,,,,,,,,,,,,,,
,,,,,,,,,6735b2a6112cf17b7b8df8d1,spanish,13 or older,"no, only English or Spanish",no,2025-07-23_02h48.05.644,empathy_intonation_perc,2024.2.4,MacIntel,60.24096386,6735b2a6112cf17b7b8df8d1,687ed1b7e638a4cbf2f02089,68808581d950f7dbd2437596,,,,,,,,,,,,,,1,,,,,,,,,,,,,,,,,,,,,,,,,,,,,,,,,,,,,,,,,,,,,,,,,,,,,,,,,54,fomentar,,,,,901.8267,903.0019,0,0,0.6457,,0,0,0,53,1,REAL,FAKE,,,,,,,,,,,,,,,,,
,,,,,,,,,6735b2a6112cf17b7b8df8d1,spanish,13 or older,"no, only English or Spanish",no,2025-07-23_02h48.05.644,empathy_intonation_perc,2024.2.4,MacIntel,60.24096386,6735b2a6112cf17b7b8df8d1,687ed1b7e638a4cbf2f02089,68808581d950f7dbd2437596,,,,,,,,,,,,,,1,,,,,,,,,,,,,,,,,,,,,,,,,,,,,,,,,,,,,,,,,,,,,,,,,,,,,,,,,80,hormiga,,,,,903.0031,904.5357,0,0,0.9886,,0,1,1,79,1,REAL,FAKE,,,,,,,,,,,,,,,,,
,,,,,,,,,6735b2a6112cf17b7b8df8d1,spanish,13 or older,"no, only English or Spanish",no,2025-07-23_02h48.05.644,empathy_intonation_perc,2024.2.4,MacIntel,60.24096386,6735b2a6112cf17b7b8df8d1,687ed1b7e638a4cbf2f02089,68808581d950f7dbd2437596,,,,,,,,,,,,,,1,,,,,,,,,,,,,,,,,,,,,,,,,,,,,,,,,,,,,,,,,,,,,,,,,,,,,,,,,40,alfombra,,,,,904.5369,905.6691,0,0,0.5904,,0,2,2,39,1,REAL,FAKE,,,,,,,,,,,,,,,,,
,,,,,,,,,6735b2a6112cf17b7b8df8d1,spanish,13 or older,"no, only English or Spanish",no,2025-07-23_02h48.05.644,empathy_intonation_perc,2024.2.4,MacIntel,60.24096386,6735b2a6112cf17b7b8df8d1,687ed1b7e638a4cbf2f02089,68808581d950f7dbd2437596,,,,,,,,,,,,,,0,,,,,,,,,,,,,,,,,,,,,,,,,,,,,,,,,,,,,,,,,,,,,,,,,,,,,,,,,17,floroso,,,,,905.6703,906.8182,0,1,0.6138,,0,3,3,16,1,REAL,FAKE,,,,,,,,,,,,,,,,,
,,,,,,,,,6735b2a6112cf17b7b8df8d1,spanish,13 or older,"no, only English or Spanish",no,2025-07-23_02h48.05.644,empathy_intonation_perc,2024.2.4,MacIntel,60.24096386,6735b2a6112cf17b7b8df8d1,687ed1b7e638a4cbf2f02089,68808581d950f7dbd2437596,,,,,,,,,,,,,,0,,,,,,,,,,,,,,,,,,,,,,,,,,,,,,,,,,,,,,,,,,,,,,,,,,,,,,,,,21,capillo,,,,,906.8193,908.0523,0,1,0.7154,,0,4,4,20,1,REAL,FAKE,,,,,,,,,,,,,,,,,
,,,,,,,,,6735b2a6112cf17b7b8df8d1,spanish,13 or older,"no, only English or Spanish",no,2025-07-23_02h48.05.644,empathy_intonation_perc,2024.2.4,MacIntel,60.24096386,6735b2a6112cf17b7b8df8d1,687ed1b7e638a4cbf2f02089,68808581d950f7dbd2437596,,,,,,,,,,,,,,1,,,,,,,,,,,,,,,,,,,,,,,,,,,,,,,,,,,,,,,,,,,,,,,,,,,,,,,,,83,guante,,,,,908.0532,909.1357,1,1,0.5426,,0,5,5,82,1,REAL,FAKE,,,,,,,,,,,,,,,,,
,,,,,,,,,6735b2a6112cf17b7b8df8d1,spanish,13 or older,"no, only English or Spanish",no,2025-07-23_02h48.05.644,empathy_intonation_perc,2024.2.4,MacIntel,60.24096386,6735b2a6112cf17b7b8df8d1,687ed1b7e638a4cbf2f02089,68808581d950f7dbd2437596,,,,,,,,,,,,,,0,,,,,,,,,,,,,,,,,,,,,,,,,,,,,,,,,,,,,,,,,,,,,,,,,,,,,,,,,50,flamida,,,,,909.1369,910.3348,0,1,0.6638,,0,6,6,49,1,REAL,FAKE,,,,,,,,,,,,,,,,,
,,,,,,,,,6735b2a6112cf17b7b8df8d1,spanish,13 or older,"no, only English or Spanish",no,2025-07-23_02h48.05.644,empathy_intonation_perc,2024.2.4,MacIntel,60.24096386,6735b2a6112cf17b7b8df8d1,687ed1b7e638a4cbf2f02089,68808581d950f7dbd2437596,,,,,,,,,,,,,,0,,,,,,,,,,,,,,,,,,,,,,,,,,,,,,,,,,,,,,,,,,,,,,,,,,,,,,,,,18,arsa,,,,,910.3358,911.4023,1,0,0.5337,,0,7,7,17,1,REAL,FAKE,,,,,,,,,,,,,,,,,
,,,,,,,,,6735b2a6112cf17b7b8df8d1,spanish,13 or older,"no, only English or Spanish",no,2025-07-23_02h48.05.644,empathy_intonation_perc,2024.2.4,MacIntel,60.24096386,6735b2a6112cf17b7b8df8d1,687ed1b7e638a4cbf2f02089,68808581d950f7dbd2437596,,,,,,,,,,,,,,1,,,,,,,,,,,,,,,,,,,,,,,,,,,,,,,,,,,,,,,,,,,,,,,,,,,,,,,,,75,yacer,,,,,911.4032,912.5024,0,0,0.562,,0,8,8,74,1,REAL,FAKE,,,,,,,,,,,,,,,,,
,,,,,,,,,6735b2a6112cf17b7b8df8d1,spanish,13 or older,"no, only English or Spanish",no,2025-07-23_02h48.05.644,empathy_intonation_perc,2024.2.4,MacIntel,60.24096386,6735b2a6112cf17b7b8df8d1,687ed1b7e638a4cbf2f02089,68808581d950f7dbd2437596,,,,,,,,,,,,,,1,,,,,,,,,,,,,,,,,,,,,,,,,,,,,,,,,,,,,,,,,,,,,,,,,,,,,,,,,71,polvoriento,,,,,912.5037,913.5691,0,0,0.5335,,0,9,9,70,1,REAL,FAKE,,,,,,,,,,,,,,,,,
,,,,,,,,,6735b2a6112cf17b7b8df8d1,spanish,13 or older,"no, only English or Spanish",no,2025-07-23_02h48.05.644,empathy_intonation_perc,2024.2.4,MacIntel,60.24096386,6735b2a6112cf17b7b8df8d1,687ed1b7e638a4cbf2f02089,68808581d950f7dbd2437596,,,,,,,,,,,,,,1,,,,,,,,,,,,,,,,,,,,,,,,,,,,,,,,,,,,,,,,,,,,,,,,,,,,,,,,,62,flaco,,,,,913.5701,914.7023,0,0,0.5973,,0,10,10,61,1,REAL,FAKE,,,,,,,,,,,,,,,,,
,,,,,,,,,6735b2a6112cf17b7b8df8d1,spanish,13 or older,"no, only English or Spanish",no,2025-07-23_02h48.05.644,empathy_intonation_perc,2024.2.4,MacIntel,60.24096386,6735b2a6112cf17b7b8df8d1,687ed1b7e638a4cbf2f02089,68808581d950f7dbd2437596,,,,,,,,,,,,,,0,,,,,,,,,,,,,,,,,,,,,,,,,,,,,,,,,,,,,,,,,,,,,,,,,,,,,,,,,23,lampera,,,,,914.7035,916.1514,1,0,0.9144,,0,11,11,22,1,REAL,FAKE,,,,,,,,,,,,,,,,,
,,,,,,,,,6735b2a6112cf17b7b8df8d1,spanish,13 or older,"no, only English or Spanish",no,2025-07-23_02h48.05.644,empathy_intonation_perc,2024.2.4,MacIntel,60.24096386,6735b2a6112cf17b7b8df8d1,687ed1b7e638a4cbf2f02089,68808581d950f7dbd2437596,,,,,,,,,,,,,,1,,,,,,,,,,,,,,,,,,,,,,,,,,,,,,,,,,,,,,,,,,,,,,,,,,,,,,,,,12,asesinato,,,,,916.1523,917.6523,1,1,0.9569,,0,12,12,11,1,REAL,FAKE,,,,,,,,,,,,,,,,,
,,,,,,,,,6735b2a6112cf17b7b8df8d1,spanish,13 or older,"no, only English or Spanish",no,2025-07-23_02h48.05.644,empathy_intonation_perc,2024.2.4,MacIntel,60.24096386,6735b2a6112cf17b7b8df8d1,687ed1b7e638a4cbf2f02089,68808581d950f7dbd2437596,,,,,,,,,,,,,,0,,,,,,,,,,,,,,,,,,,,,,,,,,,,,,,,,,,,,,,,,,,,,,,,,,,,,,,,,84,escuto,,,,,917.6534,918.7689,0,1,0.5767,,0,13,13,83,1,REAL,FAKE,,,,,,,,,,,,,,,,,
,,,,,,,,,6735b2a6112cf17b7b8df8d1,spanish,13 or older,"no, only English or Spanish",no,2025-07-23_02h48.05.644,empathy_intonation_perc,2024.2.4,MacIntel,60.24096386,6735b2a6112cf17b7b8df8d1,687ed1b7e638a4cbf2f02089,68808581d950f7dbd2437596,,,,,,,,,,,,,,0,,,,,,,,,,,,,,,,,,,,,,,,,,,,,,,,,,,,,,,,,,,,,,,,,,,,,,,,,42,cadallo,,,,,918.7698,920.2191,0,1,0.9112,,0,14,14,41,1,REAL,FAKE,,,,,,,,,,,,,,,,,
,,,,,,,,,6735b2a6112cf17b7b8df8d1,spanish,13 or older,"no, only English or Spanish",no,2025-07-23_02h48.05.644,empathy_intonation_perc,2024.2.4,MacIntel,60.24096386,6735b2a6112cf17b7b8df8d1,687ed1b7e638a4cbf2f02089,68808581d950f7dbd2437596,,,,,,,,,,,,,,1,,,,,,,,,,,,,,,,,,,,,,,,,,,,,,,,,,,,,,,,,,,,,,,,,,,,,,,,,73,hervidor,,,,,920.2202,921.4851,0,0,0.7261,,0,15,15,72,1,REAL,FAKE,,,,,,,,,,,,,,,,,
,,,,,,,,,6735b2a6112cf17b7b8df8d1,spanish,13 or older,"no, only English or Spanish",no,2025-07-23_02h48.05.644,empathy_intonation_perc,2024.2.4,MacIntel,60.24096386,6735b2a6112cf17b7b8df8d1,687ed1b7e638a4cbf2f02089,68808581d950f7dbd2437596,,,,,,,,,,,,,,0,,,,,,,,,,,,,,,,,,,,,,,,,,,,,,,,,,,,,,,,,,,,,,,,,,,,,,,,,33,pauca,,,,,921.4861,922.6024,0,1,0.5738,,0,16,16,32,1,REAL,FAKE,,,,,,,,,,,,,,,,,
,,,,,,,,,6735b2a6112cf17b7b8df8d1,spanish,13 or older,"no, only English or Spanish",no,2025-07-23_02h48.05.644,empathy_intonation_perc,2024.2.4,MacIntel,60.24096386,6735b2a6112cf17b7b8df8d1,687ed1b7e638a4cbf2f02089,68808581d950f7dbd2437596,,,,,,,,,,,,,,0,,,,,,,,,,,,,,,,,,,,,,,,,,,,,,,,,,,,,,,,,,,,,,,,,,,,,,,,,58,plaudir,,,,,922.6034,923.7688,0,1,0.6339,,0,17,17,57,1,REAL,FAKE,,,,,,,,,,,,,,,,,
,,,,,,,,,6735b2a6112cf17b7b8df8d1,spanish,13 or older,"no, only English or Spanish",no,2025-07-23_02h48.05.644,empathy_intonation_perc,2024.2.4,MacIntel,60.24096386,6735b2a6112cf17b7b8df8d1,687ed1b7e638a4cbf2f02089,68808581d950f7dbd2437596,,,,,,,,,,,,,,1,,,,,,,,,,,,,,,,,,,,,,,,,,,,,,,,,,,,,,,,,,,,,,,,,,,,,,,,,45,jilguero,,,,,923.7698,925.0188,0,0,0.7176,,0,18,18,44,1,REAL,FAKE,,,,,,,,,,,,,,,,,
,,,,,,,,,6735b2a6112cf17b7b8df8d1,spanish,13 or older,"no, only English or Spanish",no,2025-07-23_02h48.05.644,empathy_intonation_perc,2024.2.4,MacIntel,60.24096386,6735b2a6112cf17b7b8df8d1,687ed1b7e638a4cbf2f02089,68808581d950f7dbd2437596,,,,,,,,,,,,,,1,,,,,,,,,,,,,,,,,,,,,,,,,,,,,,,,,,,,,,,,,,,,,,,,,,,,,,,,,31,pandilla,,,,,925.0198,926.9188,0,0,1.3597,,0,19,19,30,1,REAL,FAKE,,,,,,,,,,,,,,,,,
,,,,,,,,,6735b2a6112cf17b7b8df8d1,spanish,13 or older,"no, only English or Spanish",no,2025-07-23_02h48.05.644,empathy_intonation_perc,2024.2.4,MacIntel,60.24096386,6735b2a6112cf17b7b8df8d1,687ed1b7e638a4cbf2f02089,68808581d950f7dbd2437596,,,,,,,,,,,,,,1,,,,,,,,,,,,,,,,,,,,,,,,,,,,,,,,,,,,,,,,,,,,,,,,,,,,,,,,,46,martillo,,,,,926.9198,928.1523,0,0,0.69,,0,20,20,45,1,REAL,FAKE,,,,,,,,,,,,,,,,,
,,,,,,,,,6735b2a6112cf17b7b8df8d1,spanish,13 or older,"no, only English or Spanish",no,2025-07-23_02h48.05.644,empathy_intonation_perc,2024.2.4,MacIntel,60.24096386,6735b2a6112cf17b7b8df8d1,687ed1b7e638a4cbf2f02089,68808581d950f7dbd2437596,,,,,,,,,,,,,,1,,,,,,,,,,,,,,,,,,,,,,,,,,,,,,,,,,,,,,,,,,,,,,,,,,,,,,,,,91,click the 1 key.,,,,,928.1536,929.7022,1,1,1.0082,,0,21,21,90,1,REAL,FAKE,,,,,,,,,,,,,,,,,
,,,,,,,,,6735b2a6112cf17b7b8df8d1,spanish,13 or older,"no, only English or Spanish",no,2025-07-23_02h48.05.644,empathy_intonation_perc,2024.2.4,MacIntel,60.24096386,6735b2a6112cf17b7b8df8d1,687ed1b7e638a4cbf2f02089,68808581d950f7dbd2437596,,,,,,,,,,,,,,1,,,,,,,,,,,,,,,,,,,,,,,,,,,,,,,,,,,,,,,,,,,,,,,,,,,,,,,,,36,loro,,,,,929.7033,930.8523,0,0,0.6068,,0,22,22,35,1,REAL,FAKE,,,,,,,,,,,,,,,,,
,,,,,,,,,6735b2a6112cf17b7b8df8d1,spanish,13 or older,"no, only English or Spanish",no,2025-07-23_02h48.05.644,empathy_intonation_perc,2024.2.4,MacIntel,60.24096386,6735b2a6112cf17b7b8df8d1,687ed1b7e638a4cbf2f02089,68808581d950f7dbd2437596,,,,,,,,,,,,,,1,,,,,,,,,,,,,,,,,,,,,,,,,,,,,,,,,,,,,,,,,,,,,,,,,,,,,,,,,49,ganar,,,,,930.8535,932.1021,0,0,0.7182,,0,23,23,48,1,REAL,FAKE,,,,,,,,,,,,,,,,,
,,,,,,,,,6735b2a6112cf17b7b8df8d1,spanish,13 or older,"no, only English or Spanish",no,2025-07-23_02h48.05.644,empathy_intonation_perc,2024.2.4,MacIntel,60.24096386,6735b2a6112cf17b7b8df8d1,687ed1b7e638a4cbf2f02089,68808581d950f7dbd2437596,,,,,,,,,,,,,,1,,,,,,,,,,,,,,,,,,,,,,,,,,,,,,,,,,,,,,,,,,,,,,,,,,,,,,,,,44,cuchara,,,,,932.1031,933.686,0,0,1.0515,,0,24,24,43,1,REAL,FAKE,,,,,,,,,,,,,,,,,
,,,,,,,,,6735b2a6112cf17b7b8df8d1,spanish,13 or older,"no, only English or Spanish",no,2025-07-23_02h48.05.644,empathy_intonation_perc,2024.2.4,MacIntel,60.24096386,6735b2a6112cf17b7b8df8d1,687ed1b7e638a4cbf2f02089,68808581d950f7dbd2437596,,,,,,,,,,,,,,0,,,,,,,,,,,,,,,,,,,,,,,,,,,,,,,,,,,,,,,,,,,,,,,,,,,,,,,,,10,antar,,,,,933.6868,935.0526,0,1,0.8349,,0,25,25,9,1,REAL,FAKE,,,,,,,,,,,,,,,,,
,,,,,,,,,6735b2a6112cf17b7b8df8d1,spanish,13 or older,"no, only English or Spanish",no,2025-07-23_02h48.05.644,empathy_intonation_perc,2024.2.4,MacIntel,60.24096386,6735b2a6112cf17b7b8df8d1,687ed1b7e638a4cbf2f02089,68808581d950f7dbd2437596,,,,,,,,,,,,,,1,,,,,,,,,,,,,,,,,,,,,,,,,,,,,,,,,,,,,,,,,,,,,,,,,,,,,,,,,86,barato,,,,,935.0537,936.3026,0,0,0.7222,,0,26,26,85,1,REAL,FAKE,,,,,,,,,,,,,,,,,
,,,,,,,,,6735b2a6112cf17b7b8df8d1,spanish,13 or older,"no, only English or Spanish",no,2025-07-23_02h48.05.644,empathy_intonation_perc,2024.2.4,MacIntel,60.24096386,6735b2a6112cf17b7b8df8d1,687ed1b7e638a4cbf2f02089,68808581d950f7dbd2437596,,,,,,,,,,,,,,1,,,,,,,,,,,,,,,,,,,,,,,,,,,,,,,,,,,,,,,,,,,,,,,,,,,,,,,,,11,cenefa,,,,,936.3036,937.6689,0,0,0.8243,,0,27,27,10,1,REAL,FAKE,,,,,,,,,,,,,,,,,
,,,,,,,,,6735b2a6112cf17b7b8df8d1,spanish,13 or older,"no, only English or Spanish",no,2025-07-23_02h48.05.644,empathy_intonation_perc,2024.2.4,MacIntel,60.24096386,6735b2a6112cf17b7b8df8d1,687ed1b7e638a4cbf2f02089,68808581d950f7dbd2437596,,,,,,,,,,,,,,1,,,,,,,,,,,,,,,,,,,,,,,,,,,,,,,,,,,,,,,,,,,,,,,,,,,,,,,,,9,hacha,,,,,937.67,938.7689,0,0,0.5675,,0,28,28,8,1,REAL,FAKE,,,,,,,,,,,,,,,,,
,,,,,,,,,6735b2a6112cf17b7b8df8d1,spanish,13 or older,"no, only English or Spanish",no,2025-07-23_02h48.05.644,empathy_intonation_perc,2024.2.4,MacIntel,60.24096386,6735b2a6112cf17b7b8df8d1,687ed1b7e638a4cbf2f02089,68808581d950f7dbd2437596,,,,,,,,,,,,,,0,,,,,,,,,,,,,,,,,,,,,,,,,,,,,,,,,,,,,,,,,,,,,,,,,,,,,,,,,72,pemición,,,,,938.7699,940.0348,0,1,0.7411,,0,29,29,71,1,REAL,FAKE,,,,,,,,,,,,,,,,,
,,,,,,,,,6735b2a6112cf17b7b8df8d1,spanish,13 or older,"no, only English or Spanish",no,2025-07-23_02h48.05.644,empathy_intonation_perc,2024.2.4,MacIntel,60.24096386,6735b2a6112cf17b7b8df8d1,687ed1b7e638a4cbf2f02089,68808581d950f7dbd2437596,,,,,,,,,,,,,,1,,,,,,,,,,,,,,,,,,,,,,,,,,,,,,,,,,,,,,,,,,,,,,,,,,,,,,,,,38,estornudar,,,,,940.0358,941.5519,0,0,0.9982,,0,30,30,37,1,REAL,FAKE,,,,,,,,,,,,,,,,,
,,,,,,,,,6735b2a6112cf17b7b8df8d1,spanish,13 or older,"no, only English or Spanish",no,2025-07-23_02h48.05.644,empathy_intonation_perc,2024.2.4,MacIntel,60.24096386,6735b2a6112cf17b7b8df8d1,687ed1b7e638a4cbf2f02089,68808581d950f7dbd2437596,,,,,,,,,,,,,,1,,,,,,,,,,,,,,,,,,,,,,,,,,,,,,,,,,,,,,,,,,,,,,,,,,,,,,,,,6,tergiversar,,,,,941.5528,942.5689,0,0,0.4719,,0,31,31,5,1,REAL,FAKE,,,,,,,,,,,,,,,,,
,,,,,,,,,6735b2a6112cf17b7b8df8d1,spanish,13 or older,"no, only English or Spanish",no,2025-07-23_02h48.05.644,empathy_intonation_perc,2024.2.4,MacIntel,60.24096386,6735b2a6112cf17b7b8df8d1,687ed1b7e638a4cbf2f02089,68808581d950f7dbd2437596,,,,,,,,,,,,,,1,,,,,,,,,,,,,,,,,,,,,,,,,,,,,,,,,,,,,,,,,,,,,,,,,,,,,,,,,2,pellizcar,,,,,942.5699,943.6855,0,0,0.5831,,0,32,32,1,1,REAL,FAKE,,,,,,,,,,,,,,,,,
,,,,,,,,,6735b2a6112cf17b7b8df8d1,spanish,13 or older,"no, only English or Spanish",no,2025-07-23_02h48.05.644,empathy_intonation_perc,2024.2.4,MacIntel,60.24096386,6735b2a6112cf17b7b8df8d1,687ed1b7e638a4cbf2f02089,68808581d950f7dbd2437596,,,,,,,,,,,,,,1,,,,,,,,,,,,,,,,,,,,,,,,,,,,,,,,,,,,,,,,,,,,,,,,,,,,,,,,,77,tiburón,,,,,943.6864,944.7187,0,0,0.5007,,0,33,33,76,1,REAL,FAKE,,,,,,,,,,,,,,,,,
,,,,,,,,,6735b2a6112cf17b7b8df8d1,spanish,13 or older,"no, only English or Spanish",no,2025-07-23_02h48.05.644,empathy_intonation_perc,2024.2.4,MacIntel,60.24096386,6735b2a6112cf17b7b8df8d1,687ed1b7e638a4cbf2f02089,68808581d950f7dbd2437596,,,,,,,,,,,,,,1,,,,,,,,,,,,,,,,,,,,,,,,,,,,,,,,,,,,,,,,,,,,,,,,,,,,,,,,,43,canela,,,,,944.7196,945.9522,1,1,0.6973,,0,34,34,42,1,REAL,FAKE,,,,,,,,,,,,,,,,,
,,,,,,,,,6735b2a6112cf17b7b8df8d1,spanish,13 or older,"no, only English or Spanish",no,2025-07-23_02h48.05.644,empathy_intonation_perc,2024.2.4,MacIntel,60.24096386,6735b2a6112cf17b7b8df8d1,687ed1b7e638a4cbf2f02089,68808581d950f7dbd2437596,,,,,,,,,,,,,,1,,,,,,,,,,,,,,,,,,,,,,,,,,,,,,,,,,,,,,,,,,,,,,,,,,,,,,,,,14,yunque,,,,,945.9533,947.1021,0,0,0.6178,,0,35,35,13,1,REAL,FAKE,,,,,,,,,,,,,,,,,
,,,,,,,,,6735b2a6112cf17b7b8df8d1,spanish,13 or older,"no, only English or Spanish",no,2025-07-23_02h48.05.644,empathy_intonation_perc,2024.2.4,MacIntel,60.24096386,6735b2a6112cf17b7b8df8d1,687ed1b7e638a4cbf2f02089,68808581d950f7dbd2437596,,,,,,,,,,,,,,1,,,,,,,,,,,,,,,,,,,,,,,,,,,,,,,,,,,,,,,,,,,,,,,,,,,,,,,,,68,alegre,,,,,947.103,948.318,0,0,0.6807,,0,36,36,67,1,REAL,FAKE,,,,,,,,,,,,,,,,,
,,,,,,,,,6735b2a6112cf17b7b8df8d1,spanish,13 or older,"no, only English or Spanish",no,2025-07-23_02h48.05.644,empathy_intonation_perc,2024.2.4,MacIntel,60.24096386,6735b2a6112cf17b7b8df8d1,687ed1b7e638a4cbf2f02089,68808581d950f7dbd2437596,,,,,,,,,,,,,,1,,,,,,,,,,,,,,,,,,,,,,,,,,,,,,,,,,,,,,,,,,,,,,,,,,,,,,,,,22,lacayo,,,,,948.3192,949.5022,0,0,0.6568,,0,37,37,21,1,REAL,FAKE,,,,,,,,,,,,,,,,,
,,,,,,,,,6735b2a6112cf17b7b8df8d1,spanish,13 or older,"no, only English or Spanish",no,2025-07-23_02h48.05.644,empathy_intonation_perc,2024.2.4,MacIntel,60.24096386,6735b2a6112cf17b7b8df8d1,687ed1b7e638a4cbf2f02089,68808581d950f7dbd2437596,,,,,,,,,,,,,,1,,,,,,,,,,,,,,,,,,,,,,,,,,,,,,,,,,,,,,,,,,,,,,,,,,,,,,,,,26,secuestro,,,,,949.5034,950.7522,0,0,0.7062,,0,38,38,25,1,REAL,FAKE,,,,,,,,,,,,,,,,,
,,,,,,,,,6735b2a6112cf17b7b8df8d1,spanish,13 or older,"no, only English or Spanish",no,2025-07-23_02h48.05.644,empathy_intonation_perc,2024.2.4,MacIntel,60.24096386,6735b2a6112cf17b7b8df8d1,687ed1b7e638a4cbf2f02089,68808581d950f7dbd2437596,,,,,,,,,,,,,,1,,,,,,,,,,,,,,,,,,,,,,,,,,,,,,,,,,,,,,,,,,,,,,,,,,,,,,,,,37,granuja,,,,,950.7535,952.068,0,0,0.7725,,0,39,39,36,1,REAL,FAKE,,,,,,,,,,,,,,,,,
,,,,,,,,,6735b2a6112cf17b7b8df8d1,spanish,13 or older,"no, only English or Spanish",no,2025-07-23_02h48.05.644,empathy_intonation_perc,2024.2.4,MacIntel,60.24096386,6735b2a6112cf17b7b8df8d1,687ed1b7e638a4cbf2f02089,68808581d950f7dbd2437596,,,,,,,,,,,,,,0,,,,,,,,,,,,,,,,,,,,,,,,,,,,,,,,,,,,,,,,,,,,,,,,,,,,,,,,,30,alardio,,,,,952.0693,953.5187,0,1,0.9312,,0,40,40,29,1,REAL,FAKE,,,,,,,,,,,,,,,,,
,,,,,,,,,6735b2a6112cf17b7b8df8d1,spanish,13 or older,"no, only English or Spanish",no,2025-07-23_02h48.05.644,empathy_intonation_perc,2024.2.4,MacIntel,60.24096386,6735b2a6112cf17b7b8df8d1,687ed1b7e638a4cbf2f02089,68808581d950f7dbd2437596,,,,,,,,,,,,,,1,,,,,,,,,,,,,,,,,,,,,,,,,,,,,,,,,,,,,,,,,,,,,,,,,,,,,,,,,7,pésimo,,,,,953.5196,954.852,0,0,0.7995,,0,41,41,6,1,REAL,FAKE,,,,,,,,,,,,,,,,,
,,,,,,,,,6735b2a6112cf17b7b8df8d1,spanish,13 or older,"no, only English or Spanish",no,2025-07-23_02h48.05.644,empathy_intonation_perc,2024.2.4,MacIntel,60.24096386,6735b2a6112cf17b7b8df8d1,687ed1b7e638a4cbf2f02089,68808581d950f7dbd2437596,,,,,,,,,,,,,,0,,,,,,,,,,,,,,,,,,,,,,,,,,,,,,,,,,,,,,,,,,,,,,,,,,,,,,,,,19,brecedad,,,,,954.8528,956.0179,0,1,0.6236,,0,42,42,18,1,REAL,FAKE,,,,,,,,,,,,,,,,,
,,,,,,,,,6735b2a6112cf17b7b8df8d1,spanish,13 or older,"no, only English or Spanish",no,2025-07-23_02h48.05.644,empathy_intonation_perc,2024.2.4,MacIntel,60.24096386,6735b2a6112cf17b7b8df8d1,687ed1b7e638a4cbf2f02089,68808581d950f7dbd2437596,,,,,,,,,,,,,,1,,,,,,,,,,,,,,,,,,,,,,,,,,,,,,,,,,,,,,,,,,,,,,,,,,,,,,,,,48,ladrón,,,,,956.019,957.2021,0,0,0.6506,,0,43,43,47,1,REAL,FAKE,,,,,,,,,,,,,,,,,
,,,,,,,,,6735b2a6112cf17b7b8df8d1,spanish,13 or older,"no, only English or Spanish",no,2025-07-23_02h48.05.644,empathy_intonation_perc,2024.2.4,MacIntel,60.24096386,6735b2a6112cf17b7b8df8d1,687ed1b7e638a4cbf2f02089,68808581d950f7dbd2437596,,,,,,,,,,,,,,1,,,,,,,,,,,,,,,,,,,,,,,,,,,,,,,,,,,,,,,,,,,,,,,,,,,,,,,,,61,seda,,,,,957.203,958.7689,0,0,1.0324,,0,44,44,60,1,REAL,FAKE,,,,,,,,,,,,,,,,,
,,,,,,,,,6735b2a6112cf17b7b8df8d1,spanish,13 or older,"no, only English or Spanish",no,2025-07-23_02h48.05.644,empathy_intonation_perc,2024.2.4,MacIntel,60.24096386,6735b2a6112cf17b7b8df8d1,687ed1b7e638a4cbf2f02089,68808581d950f7dbd2437596,,,,,,,,,,,,,,1,,,,,,,,,,,,,,,,,,,,,,,,,,,,,,,,,,,,,,,,,,,,,,,,,,,,,,,,,64,orgulloso,,,,,958.7703,960.0847,0,0,0.7728,,0,45,45,63,1,REAL,FAKE,,,,,,,,,,,,,,,,,
,,,,,,,,,6735b2a6112cf17b7b8df8d1,spanish,13 or older,"no, only English or Spanish",no,2025-07-23_02h48.05.644,empathy_intonation_perc,2024.2.4,MacIntel,60.24096386,6735b2a6112cf17b7b8df8d1,687ed1b7e638a4cbf2f02089,68808581d950f7dbd2437596,,,,,,,,,,,,,,1,,,,,,,,,,,,,,,,,,,,,,,,,,,,,,,,,,,,,,,,,,,,,,,,,,,,,,,,,51,candado,,,,,960.0859,961.2513,0,0,0.6427,,0,46,46,50,1,REAL,FAKE,,,,,,,,,,,,,,,,,
,,,,,,,,,6735b2a6112cf17b7b8df8d1,spanish,13 or older,"no, only English or Spanish",no,2025-07-23_02h48.05.644,empathy_intonation_perc,2024.2.4,MacIntel,60.24096386,6735b2a6112cf17b7b8df8d1,687ed1b7e638a4cbf2f02089,68808581d950f7dbd2437596,,,,,,,,,,,,,,1,,,,,,,,,,,,,,,,,,,,,,,,,,,,,,,,,,,,,,,,,,,,,,,,,,,,,,,,,3,pulmones,,,,,961.2523,964.0021,0,0,2.2353,,0,47,47,2,1,REAL,FAKE,,,,,,,,,,,,,,,,,
,,,,,,,,,6735b2a6112cf17b7b8df8d1,spanish,13 or older,"no, only English or Spanish",no,2025-07-23_02h48.05.644,empathy_intonation_perc,2024.2.4,MacIntel,60.24096386,6735b2a6112cf17b7b8df8d1,687ed1b7e638a4cbf2f02089,68808581d950f7dbd2437596,,,,,,,,,,,,,,1,,,,,,,,,,,,,,,,,,,,,,,,,,,,,,,,,,,,,,,,,,,,,,,,,,,,,,,,,39,torpe,,,,,964.0031,965.2846,0,0,0.7394,,0,48,48,38,1,REAL,FAKE,,,,,,,,,,,,,,,,,
,,,,,,,,,6735b2a6112cf17b7b8df8d1,spanish,13 or older,"no, only English or Spanish",no,2025-07-23_02h48.05.644,empathy_intonation_perc,2024.2.4,MacIntel,60.24096386,6735b2a6112cf17b7b8df8d1,687ed1b7e638a4cbf2f02089,68808581d950f7dbd2437596,,,,,,,,,,,,,,1,,,,,,,,,,,,,,,,,,,,,,,,,,,,,,,,,,,,,,,,,,,,,,,,,,,,,,,,,90,clavel,,,,,965.2858,966.702,0,0,0.8986,,0,49,49,89,1,REAL,FAKE,,,,,,,,,,,,,,,,,
,,,,,,,,,6735b2a6112cf17b7b8df8d1,spanish,13 or older,"no, only English or Spanish",no,2025-07-23_02h48.05.644,empathy_intonation_perc,2024.2.4,MacIntel,60.24096386,6735b2a6112cf17b7b8df8d1,687ed1b7e638a4cbf2f02089,68808581d950f7dbd2437596,,,,,,,,,,,,,,0,,,,,,,,,,,,,,,,,,,,,,,,,,,,,,,,,,,,,,,,,,,,,,,,,,,,,,,,,35,rompido,,,,,966.7028,967.8688,0,1,0.6246,,0,50,50,34,1,REAL,FAKE,,,,,,,,,,,,,,,,,
,,,,,,,,,6735b2a6112cf17b7b8df8d1,spanish,13 or older,"no, only English or Spanish",no,2025-07-23_02h48.05.644,empathy_intonation_perc,2024.2.4,MacIntel,60.24096386,6735b2a6112cf17b7b8df8d1,687ed1b7e638a4cbf2f02089,68808581d950f7dbd2437596,,,,,,,,,,,,,,1,,,,,,,,,,,,,,,,,,,,,,,,,,,,,,,,,,,,,,,,,,,,,,,,,,,,,,,,,41,rebuscar,,,,,967.87,969.252,0,0,0.8502,,0,51,51,40,1,REAL,FAKE,,,,,,,,,,,,,,,,,
,,,,,,,,,6735b2a6112cf17b7b8df8d1,spanish,13 or older,"no, only English or Spanish",no,2025-07-23_02h48.05.644,empathy_intonation_perc,2024.2.4,MacIntel,60.24096386,6735b2a6112cf17b7b8df8d1,687ed1b7e638a4cbf2f02089,68808581d950f7dbd2437596,,,,,,,,,,,,,,0,,,,,,,,,,,,,,,,,,,,,,,,,,,,,,,,,,,,,,,,,,,,,,,,,,,,,,,,,63,esposante,,,,,969.2531,971.2522,0,1,1.4591,,0,52,52,62,1,REAL,FAKE,,,,,,,,,,,,,,,,,
,,,,,,,,,6735b2a6112cf17b7b8df8d1,spanish,13 or older,"no, only English or Spanish",no,2025-07-23_02h48.05.644,empathy_intonation_perc,2024.2.4,MacIntel,60.24096386,6735b2a6112cf17b7b8df8d1,687ed1b7e638a4cbf2f02089,68808581d950f7dbd2437596,,,,,,,,,,,,,,0,,,,,,,,,,,,,,,,,,,,,,,,,,,,,,,,,,,,,,,,,,,,,,,,,,,,,,,,,82,empirador,,,,,971.2535,972.3012,0,1,0.5059,,0,53,53,81,1,REAL,FAKE,,,,,,,,,,,,,,,,,
,,,,,,,,,6735b2a6112cf17b7b8df8d1,spanish,13 or older,"no, only English or Spanish",no,2025-07-23_02h48.05.644,empathy_intonation_perc,2024.2.4,MacIntel,60.24096386,6735b2a6112cf17b7b8df8d1,687ed1b7e638a4cbf2f02089,68808581d950f7dbd2437596,,,,,,,,,,,,,,1,,,,,,,,,,,,,,,,,,,,,,,,,,,,,,,,,,,,,,,,,,,,,,,,,,,,,,,,,89,prisa,,,,,972.3024,973.3179,1,1,0.4916,,0,54,54,88,1,REAL,FAKE,,,,,,,,,,,,,,,,,
,,,,,,,,,6735b2a6112cf17b7b8df8d1,spanish,13 or older,"no, only English or Spanish",no,2025-07-23_02h48.05.644,empathy_intonation_perc,2024.2.4,MacIntel,60.24096386,6735b2a6112cf17b7b8df8d1,687ed1b7e638a4cbf2f02089,68808581d950f7dbd2437596,,,,,,,,,,,,,,1,,,,,,,,,,,,,,,,,,,,,,,,,,,,,,,,,,,,,,,,,,,,,,,,,,,,,,,,,69,engatusar,,,,,973.3189,975.4689,0,0,1.6299,,0,55,55,68,1,REAL,FAKE,,,,,,,,,,,,,,,,,
,,,,,,,,,6735b2a6112cf17b7b8df8d1,spanish,13 or older,"no, only English or Spanish",no,2025-07-23_02h48.05.644,empathy_intonation_perc,2024.2.4,MacIntel,60.24096386,6735b2a6112cf17b7b8df8d1,687ed1b7e638a4cbf2f02089,68808581d950f7dbd2437596,,,,,,,,,,,,,,1,,,,,,,,,,,,,,,,,,,,,,,,,,,,,,,,,,,,,,,,,,,,,,,,,,,,,,,,,13,helar,,,,,975.47,977.0187,0,0,1.0071,,0,56,56,12,1,REAL,FAKE,,,,,,,,,,,,,,,,,
,,,,,,,,,6735b2a6112cf17b7b8df8d1,spanish,13 or older,"no, only English or Spanish",no,2025-07-23_02h48.05.644,empathy_intonation_perc,2024.2.4,MacIntel,60.24096386,6735b2a6112cf17b7b8df8d1,687ed1b7e638a4cbf2f02089,68808581d950f7dbd2437596,,,,,,,,,,,,,,0,,,,,,,,,,,,,,,,,,,,,,,,,,,,,,,,,,,,,,,,,,,,,,,,,,,,,,,,,87,grodo,,,,,977.0197,978.1679,0,1,0.6119,,0,57,57,86,1,REAL,FAKE,,,,,,,,,,,,,,,,,
,,,,,,,,,6735b2a6112cf17b7b8df8d1,spanish,13 or older,"no, only English or Spanish",no,2025-07-23_02h48.05.644,empathy_intonation_perc,2024.2.4,MacIntel,60.24096386,6735b2a6112cf17b7b8df8d1,687ed1b7e638a4cbf2f02089,68808581d950f7dbd2437596,,,,,,,,,,,,,,1,,,,,,,,,,,,,,,,,,,,,,,,,,,,,,,,,,,,,,,,,,,,,,,,,,,,,,,,,78,frondoso,,,,,978.169,979.2854,0,0,0.6012,,0,58,58,77,1,REAL,FAKE,,,,,,,,,,,,,,,,,
,,,,,,,,,6735b2a6112cf17b7b8df8d1,spanish,13 or older,"no, only English or Spanish",no,2025-07-23_02h48.05.644,empathy_intonation_perc,2024.2.4,MacIntel,60.24096386,6735b2a6112cf17b7b8df8d1,687ed1b7e638a4cbf2f02089,68808581d950f7dbd2437596,,,,,,,,,,,,,,0,,,,,,,,,,,,,,,,,,,,,,,,,,,,,,,,,,,,,,,,,,,,,,,,,,,,,,,,,47,cartinar,,,,,979.2864,980.3687,0,1,0.5471,,0,59,59,46,1,REAL,FAKE,,,,,,,,,,,,,,,,,
,,,,,,,,,6735b2a6112cf17b7b8df8d1,spanish,13 or older,"no, only English or Spanish",no,2025-07-23_02h48.05.644,empathy_intonation_perc,2024.2.4,MacIntel,60.24096386,6735b2a6112cf17b7b8df8d1,687ed1b7e638a4cbf2f02089,68808581d950f7dbd2437596,,,,,,,,,,,,,,1,,,,,,,,,,,,,,,,,,,,,,,,,,,,,,,,,,,,,,,,,,,,,,,,,,,,,,,,,15,regar,,,,,980.3697,981.8847,0,0,0.9772,,0,60,60,14,1,REAL,FAKE,,,,,,,,,,,,,,,,,
,,,,,,,,,6735b2a6112cf17b7b8df8d1,spanish,13 or older,"no, only English or Spanish",no,2025-07-23_02h48.05.644,empathy_intonation_perc,2024.2.4,MacIntel,60.24096386,6735b2a6112cf17b7b8df8d1,687ed1b7e638a4cbf2f02089,68808581d950f7dbd2437596,,,,,,,,,,,,,,1,,,,,,,,,,,,,,,,,,,,,,,,,,,,,,,,,,,,,,,,,,,,,,,,,,,,,,,,,5,zapato,,,,,981.8856,983.3189,0,0,0.8908,,0,61,61,4,1,REAL,FAKE,,,,,,,,,,,,,,,,,
,,,,,,,,,6735b2a6112cf17b7b8df8d1,spanish,13 or older,"no, only English or Spanish",no,2025-07-23_02h48.05.644,empathy_intonation_perc,2024.2.4,MacIntel,60.24096386,6735b2a6112cf17b7b8df8d1,687ed1b7e638a4cbf2f02089,68808581d950f7dbd2437596,,,,,,,,,,,,,,1,,,,,,,,,,,,,,,,,,,,,,,,,,,,,,,,,,,,,,,,,,,,,,,,,,,,,,,,,67,cabello,,,,,983.32,984.5189,0,0,0.6569,,0,62,62,66,1,REAL,FAKE,,,,,,,,,,,,,,,,,
,,,,,,,,,6735b2a6112cf17b7b8df8d1,spanish,13 or older,"no, only English or Spanish",no,2025-07-23_02h48.05.644,empathy_intonation_perc,2024.2.4,MacIntel,60.24096386,6735b2a6112cf17b7b8df8d1,687ed1b7e638a4cbf2f02089,68808581d950f7dbd2437596,,,,,,,,,,,,,,0,,,,,,,,,,,,,,,,,,,,,,,,,,,,,,,,,,,,,,,,,,,,,,,,,,,,,,,,,92,click the 0 key.,,,,,984.52,986.7188,0,1,1.6547,,0,63,63,91,1,REAL,FAKE,,,,,,,,,,,,,,,,,
,,,,,,,,,6735b2a6112cf17b7b8df8d1,spanish,13 or older,"no, only English or Spanish",no,2025-07-23_02h48.05.644,empathy_intonation_perc,2024.2.4,MacIntel,60.24096386,6735b2a6112cf17b7b8df8d1,687ed1b7e638a4cbf2f02089,68808581d950f7dbd2437596,,,,,,,,,,,,,,0,,,,,,,,,,,,,,,,,,,,,,,,,,,,,,,,,,,,,,,,,,,,,,,,,,,,,,,,,53,vegada,,,,,986.72,988.152,0,1,0.8903,,0,64,64,52,1,REAL,FAKE,,,,,,,,,,,,,,,,,
,,,,,,,,,6735b2a6112cf17b7b8df8d1,spanish,13 or older,"no, only English or Spanish",no,2025-07-23_02h48.05.644,empathy_intonation_perc,2024.2.4,MacIntel,60.24096386,6735b2a6112cf17b7b8df8d1,687ed1b7e638a4cbf2f02089,68808581d950f7dbd2437596,,,,,,,,,,,,,,1,,,,,,,,,,,,,,,,,,,,,,,,,,,,,,,,,,,,,,,,,,,,,,,,,,,,,,,,,76,atar,,,,,988.1529,989.4686,0,0,0.784,,0,65,65,75,1,REAL,FAKE,,,,,,,,,,,,,,,,,
,,,,,,,,,6735b2a6112cf17b7b8df8d1,spanish,13 or older,"no, only English or Spanish",no,2025-07-23_02h48.05.644,empathy_intonation_perc,2024.2.4,MacIntel,60.24096386,6735b2a6112cf17b7b8df8d1,687ed1b7e638a4cbf2f02089,68808581d950f7dbd2437596,,,,,,,,,,,,,,1,,,,,,,,,,,,,,,,,,,,,,,,,,,,,,,,,,,,,,,,,,,,,,,,,,,,,,,,,20,ávido,,,,,989.4696,990.652,0,0,0.6473,,0,66,66,19,1,REAL,FAKE,,,,,,,,,,,,,,,,,
,,,,,,,,,6735b2a6112cf17b7b8df8d1,spanish,13 or older,"no, only English or Spanish",no,2025-07-23_02h48.05.644,empathy_intonation_perc,2024.2.4,MacIntel,60.24096386,6735b2a6112cf17b7b8df8d1,687ed1b7e638a4cbf2f02089,68808581d950f7dbd2437596,,,,,,,,,,,,,,0,,,,,,,,,,,,,,,,,,,,,,,,,,,,,,,,,,,,,,,,,,,,,,,,,,,,,,,,,79,tropaje,,,,,990.653,991.9855,0,1,0.7875,,0,67,67,78,1,REAL,FAKE,,,,,,,,,,,,,,,,,
,,,,,,,,,6735b2a6112cf17b7b8df8d1,spanish,13 or older,"no, only English or Spanish",no,2025-07-23_02h48.05.644,empathy_intonation_perc,2024.2.4,MacIntel,60.24096386,6735b2a6112cf17b7b8df8d1,687ed1b7e638a4cbf2f02089,68808581d950f7dbd2437596,,,,,,,,,,,,,,1,,,,,,,,,,,,,,,,,,,,,,,,,,,,,,,,,,,,,,,,,,,,,,,,,,,,,,,,,59,besar,,,,,991.9867,993.1688,0,0,0.6375,,0,68,68,58,1,REAL,FAKE,,,,,,,,,,,,,,,,,
,,,,,,,,,6735b2a6112cf17b7b8df8d1,spanish,13 or older,"no, only English or Spanish",no,2025-07-23_02h48.05.644,empathy_intonation_perc,2024.2.4,MacIntel,60.24096386,6735b2a6112cf17b7b8df8d1,687ed1b7e638a4cbf2f02089,68808581d950f7dbd2437596,,,,,,,,,,,,,,1,,,,,,,,,,,,,,,,,,,,,,,,,,,,,,,,,,,,,,,,,,,,,,,,,,,,,,,,,55,nevar,,,,,993.1699,995.4345,0,0,1.7241,,0,69,69,54,1,REAL,FAKE,,,,,,,,,,,,,,,,,
,,,,,,,,,6735b2a6112cf17b7b8df8d1,spanish,13 or older,"no, only English or Spanish",no,2025-07-23_02h48.05.644,empathy_intonation_perc,2024.2.4,MacIntel,60.24096386,6735b2a6112cf17b7b8df8d1,687ed1b7e638a4cbf2f02089,68808581d950f7dbd2437596,,,,,,,,,,,,,,1,,,,,,,,,,,,,,,,,,,,,,,,,,,,,,,,,,,,,,,,,,,,,,,,,,,,,,,,,65,bizcocho,,,,,995.4356,996.6187,0,0,0.6533,,0,70,70,64,1,REAL,FAKE,,,,,,,,,,,,,,,,,
,,,,,,,,,6735b2a6112cf17b7b8df8d1,spanish,13 or older,"no, only English or Spanish",no,2025-07-23_02h48.05.644,empathy_intonation_perc,2024.2.4,MacIntel,60.24096386,6735b2a6112cf17b7b8df8d1,687ed1b7e638a4cbf2f02089,68808581d950f7dbd2437596,,,,,,,,,,,,,,1,,,,,,,,,,,,,,,,,,,,,,,,,,,,,,,,,,,,,,,,,,,,,,,,,,,,,,,,,25,bisagra,,,,,996.6196,999.1354,0,0,1.9789,,0,71,71,24,1,REAL,FAKE,,,,,,,,,,,,,,,,,
,,,,,,,,,6735b2a6112cf17b7b8df8d1,spanish,13 or older,"no, only English or Spanish",no,2025-07-23_02h48.05.644,empathy_intonation_perc,2024.2.4,MacIntel,60.24096386,6735b2a6112cf17b7b8df8d1,687ed1b7e638a4cbf2f02089,68808581d950f7dbd2437596,,,,,,,,,,,,,,0,,,,,,,,,,,,,,,,,,,,,,,,,,,,,,,,,,,,,,,,,,,,,,,,,,,,,,,,,70,temblo,,,,,999.1364,1002.1353,0,1,2.4673,,0,72,72,69,1,REAL,FAKE,,,,,,,,,,,,,,,,,
,,,,,,,,,6735b2a6112cf17b7b8df8d1,spanish,13 or older,"no, only English or Spanish",no,2025-07-23_02h48.05.644,empathy_intonation_perc,2024.2.4,MacIntel,60.24096386,6735b2a6112cf17b7b8df8d1,687ed1b7e638a4cbf2f02089,68808581d950f7dbd2437596,,,,,,,,,,,,,,0,,,,,,,,,,,,,,,,,,,,,,,,,,,,,,,,,,,,,,,,,,,,,,,,,,,,,,,,,66,hacido,,,,,1002.1365,1003.5521,0,1,0.8714,,0,73,73,65,1,REAL,FAKE,,,,,,,,,,,,,,,,,
,,,,,,,,,6735b2a6112cf17b7b8df8d1,spanish,13 or older,"no, only English or Spanish",no,2025-07-23_02h48.05.644,empathy_intonation_perc,2024.2.4,MacIntel,60.24096386,6735b2a6112cf17b7b8df8d1,687ed1b7e638a4cbf2f02089,68808581d950f7dbd2437596,,,,,,,,,,,,,,0,,,,,,,,,,,,,,,,,,,,,,,,,,,,,,,,,,,,,,,,,,,,,,,,,,,,,,,,,4,batillón,,,,,1003.5533,1004.918,0,1,0.8323,,0,74,74,3,1,REAL,FAKE,,,,,,,,,,,,,,,,,
,,,,,,,,,6735b2a6112cf17b7b8df8d1,spanish,13 or older,"no, only English or Spanish",no,2025-07-23_02h48.05.644,empathy_intonation_perc,2024.2.4,MacIntel,60.24096386,6735b2a6112cf17b7b8df8d1,687ed1b7e638a4cbf2f02089,68808581d950f7dbd2437596,,,,,,,,,,,,,,1,,,,,,,,,,,,,,,,,,,,,,,,,,,,,,,,,,,,,,,,,,,,,,,,,,,,,,,,,52,camisa,,,,,1004.919,1006.6354,1,1,1.1929,,0,75,75,51,1,REAL,FAKE,,,,,,,,,,,,,,,,,
,,,,,,,,,6735b2a6112cf17b7b8df8d1,spanish,13 or older,"no, only English or Spanish",no,2025-07-23_02h48.05.644,empathy_intonation_perc,2024.2.4,MacIntel,60.24096386,6735b2a6112cf17b7b8df8d1,687ed1b7e638a4cbf2f02089,68808581d950f7dbd2437596,,,,,,,,,,,,,,0,,,,,,,,,,,,,,,,,,,,,,,,,,,,,,,,,,,,,,,,,,,,,,,,,,,,,,,,,74,cintro,,,,,1006.6365,1008.3016,0,1,1.1331,,0,76,76,73,1,REAL,FAKE,,,,,,,,,,,,,,,,,
,,,,,,,,,6735b2a6112cf17b7b8df8d1,spanish,13 or older,"no, only English or Spanish",no,2025-07-23_02h48.05.644,empathy_intonation_perc,2024.2.4,MacIntel,60.24096386,6735b2a6112cf17b7b8df8d1,687ed1b7e638a4cbf2f02089,68808581d950f7dbd2437596,,,,,,,,,,,,,,1,,,,,,,,,,,,,,,,,,,,,,,,,,,,,,,,,,,,,,,,,,,,,,,,,,,,,,,,,57,tacaño,,,,,1008.3026,1010.0187,0,0,1.1755,,0,77,77,56,1,REAL,FAKE,,,,,,,,,,,,,,,,,
,,,,,,,,,6735b2a6112cf17b7b8df8d1,spanish,13 or older,"no, only English or Spanish",no,2025-07-23_02h48.05.644,empathy_intonation_perc,2024.2.4,MacIntel,60.24096386,6735b2a6112cf17b7b8df8d1,687ed1b7e638a4cbf2f02089,68808581d950f7dbd2437596,,,,,,,,,,,,,,0,,,,,,,,,,,,,,,,,,,,,,,,,,,,,,,,,,,,,,,,,,,,,,,,,,,,,,,,,8,cadeña,,,,,1010.0199,1013.752,0,1,3.1903,,0,78,78,7,1,REAL,FAKE,,,,,,,,,,,,,,,,,
,,,,,,,,,6735b2a6112cf17b7b8df8d1,spanish,13 or older,"no, only English or Spanish",no,2025-07-23_02h48.05.644,empathy_intonation_perc,2024.2.4,MacIntel,60.24096386,6735b2a6112cf17b7b8df8d1,687ed1b7e638a4cbf2f02089,68808581d950f7dbd2437596,,,,,,,,,,,,,,0,,,,,,,,,,,,,,,,,,,,,,,,,,,,,,,,,,,,,,,,,,,,,,,,,,,,,,,,,16,abracer,,,,,1013.7531,1024.8685,0,1,10.5838,,0,79,79,15,1,REAL,FAKE,,,,,,,,,,,,,,,,,
,,,,,,,,,6735b2a6112cf17b7b8df8d1,spanish,13 or older,"no, only English or Spanish",no,2025-07-23_02h48.05.644,empathy_intonation_perc,2024.2.4,MacIntel,60.24096386,6735b2a6112cf17b7b8df8d1,687ed1b7e638a4cbf2f02089,68808581d950f7dbd2437596,,,,,,,,,,,,,,1,,,,,,,,,,,,,,,,,,,,,,,,,,,,,,,,,,,,,,,,,,,,,,,,,,,,,,,,,60,matar,,,,,1024.8694,1026.4853,0,0,1.083,,0,80,80,59,1,REAL,FAKE,,,,,,,,,,,,,,,,,
,,,,,,,,,6735b2a6112cf17b7b8df8d1,spanish,13 or older,"no, only English or Spanish",no,2025-07-23_02h48.05.644,empathy_intonation_perc,2024.2.4,MacIntel,60.24096386,6735b2a6112cf17b7b8df8d1,687ed1b7e638a4cbf2f02089,68808581d950f7dbd2437596,,,,,,,,,,,,,,1,,,,,,,,,,,,,,,,,,,,,,,,,,,,,,,,,,,,,,,,,,,,,,,,,,,,,,,,,85,laúd,,,,,1026.4864,1028.5686,0,0,1.5392,,0,81,81,84,1,REAL,FAKE,,,,,,,,,,,,,,,,,
,,,,,,,,,6735b2a6112cf17b7b8df8d1,spanish,13 or older,"no, only English or Spanish",no,2025-07-23_02h48.05.644,empathy_intonation_perc,2024.2.4,MacIntel,60.24096386,6735b2a6112cf17b7b8df8d1,687ed1b7e638a4cbf2f02089,68808581d950f7dbd2437596,,,,,,,,,,,,,,1,,,,,,,,,,,,,,,,,,,,,,,,,,,,,,,,,,,,,,,,,,,,,,,,,,,,,,,,,88,acantilado,,,,,1028.5696,1029.9019,0,0,0.7995,,0,82,82,87,1,REAL,FAKE,,,,,,,,,,,,,,,,,
,,,,,,,,,6735b2a6112cf17b7b8df8d1,spanish,13 or older,"no, only English or Spanish",no,2025-07-23_02h48.05.644,empathy_intonation_perc,2024.2.4,MacIntel,60.24096386,6735b2a6112cf17b7b8df8d1,687ed1b7e638a4cbf2f02089,68808581d950f7dbd2437596,,,,,,,,,,,,,,1,,,,,,,,,,,,,,,,,,,,,,,,,,,,,,,,,,,,,,,,,,,,,,,,,,,,,,,,,24,látigo,,,,,1029.9028,1031.5519,1,1,1.1165,,0,83,83,23,1,REAL,FAKE,,,,,,,,,,,,,,,,,
,,,,,,,,,6735b2a6112cf17b7b8df8d1,spanish,13 or older,"no, only English or Spanish",no,2025-07-23_02h48.05.644,empathy_intonation_perc,2024.2.4,MacIntel,60.24096386,6735b2a6112cf17b7b8df8d1,687ed1b7e638a4cbf2f02089,68808581d950f7dbd2437596,,,,,,,,,,,,,,0,,,,,,,,,,,,,,,,,,,,,,,,,,,,,,,,,,,,,,,,,,,,,,,,,,,,,,,,,27,acutación,,,,,1031.5529,1033.2019,0,1,1.1061,,0,84,84,26,1,REAL,FAKE,,,,,,,,,,,,,,,,,
,,,,,,,,,6735b2a6112cf17b7b8df8d1,spanish,13 or older,"no, only English or Spanish",no,2025-07-23_02h48.05.644,empathy_intonation_perc,2024.2.4,MacIntel,60.24096386,6735b2a6112cf17b7b8df8d1,687ed1b7e638a4cbf2f02089,68808581d950f7dbd2437596,,,,,,,,,,,,,,1,,,,,,,,,,,,,,,,,,,,,,,,,,,,,,,,,,,,,,,,,,,,,,,,,,,,,,,,,28,merodear,,,,,1033.203,1036.6185,0,0,2.8833,,0,85,85,27,1,REAL,FAKE,,,,,,,,,,,,,,,,,
,,,,,,,,,6735b2a6112cf17b7b8df8d1,spanish,13 or older,"no, only English or Spanish",no,2025-07-23_02h48.05.644,empathy_intonation_perc,2024.2.4,MacIntel,60.24096386,6735b2a6112cf17b7b8df8d1,687ed1b7e638a4cbf2f02089,68808581d950f7dbd2437596,,,,,,,,,,,,,,0,,,,,,,,,,,,,,,,,,,,,,,,,,,,,,,,,,,,,,,,,,,,,,,,,,,,,,,,,29,decar,,,,,1036.6196,1080.7852,0,1,43.6216,,0,86,86,28,1,REAL,FAKE,,,,,,,,,,,,,,,,,
,,,,,,,,,6735b2a6112cf17b7b8df8d1,spanish,13 or older,"no, only English or Spanish",no,2025-07-23_02h48.05.644,empathy_intonation_perc,2024.2.4,MacIntel,60.24096386,6735b2a6112cf17b7b8df8d1,687ed1b7e638a4cbf2f02089,68808581d950f7dbd2437596,,,,,,,,,,,,,,1,,,,,,,,,,,,,,,,,,,,,,,,,,,,,,,,,,,,,,,,,,,,,,,,,,,,,,,,,56,musgo,,,,,1080.7866,1082.6842,0,0,1.3539,,0,87,87,55,1,REAL,FAKE,,,,,,,,,,,,,,,,,
,,,,,,,,,6735b2a6112cf17b7b8df8d1,spanish,13 or older,"no, only English or Spanish",no,2025-07-23_02h48.05.644,empathy_intonation_perc,2024.2.4,MacIntel,60.24096386,6735b2a6112cf17b7b8df8d1,687ed1b7e638a4cbf2f02089,68808581d950f7dbd2437596,,,,,,,,,,,,,,0,,,,,,,,,,,,,,,,,,,,,,,,,,,,,,,,,,,,,,,,,,,,,,,,,,,,,,,,,1,terzo,,,,,1082.6852,1099.3516,0,1,16.1334,,0,88,88,0,1,REAL,FAKE,,,,,,,,,,,,,,,,,
,,,,,,,,,6735b2a6112cf17b7b8df8d1,spanish,13 or older,"no, only English or Spanish",no,2025-07-23_02h48.05.644,empathy_intonation_perc,2024.2.4,MacIntel,60.24096386,6735b2a6112cf17b7b8df8d1,687ed1b7e638a4cbf2f02089,68808581d950f7dbd2437596,,,,,,,,,,,,,,0,,,,,,,,,,,,,,,,,,,,,,,,,,,,,,,,,,,,,,,,,,,,,,,,,,,,,,,,,32,fatacidad,,,,,1099.3526,1101.7349,0,1,1.8496,,0,89,89,31,1,REAL,FAKE,,,,,,,,,,,,,,,,,
,,,,,,,,,6735b2a6112cf17b7b8df8d1,spanish,13 or older,"no, only English or Spanish",no,2025-07-23_02h48.05.644,empathy_intonation_perc,2024.2.4,MacIntel,60.24096386,6735b2a6112cf17b7b8df8d1,687ed1b7e638a4cbf2f02089,68808581d950f7dbd2437596,,,,,,,,,,,,,,1,,,,,,,,,,,,,,,,,,,,,,,,,,,,,,,,,,,,,,,,,,,,,,,,,,,,,,,,,34,aviso,,,,,1101.7359,1103.8683,0,0,1.6007,,0,90,90,33,1,REAL,FAKE,,,,,,,,,,,,,,,,,
,,,,,,,,,6735b2a6112cf17b7b8df8d1,spanish,13 or older,"no, only English or Spanish",no,2025-07-23_02h48.05.644,empathy_intonation_perc,2024.2.4,MacIntel,60.24096386,6735b2a6112cf17b7b8df8d1,687ed1b7e638a4cbf2f02089,68808581d950f7dbd2437596,,,,,,,,,,,,,,1,,,,,,,,,,,,,,,,,,,,,,,,,,,,,,,,,,,,,,,,,,,,,,,,,,,,,,,,,81,pozo,,,,,1103.8694,1104.784,0,0,0.3822,,0,91,91,80,1,REAL,FAKE,,,,,,,,,,,,,,,,,
,,,,,,,,,6735b2a6112cf17b7b8df8d1,spanish,13 or older,"no, only English or Spanish",no,2025-07-23_02h48.05.644,empathy_intonation_perc,2024.2.4,MacIntel,60.24096386,6735b2a6112cf17b7b8df8d1,687ed1b7e638a4cbf2f02089,68808581d950f7dbd2437596,,,,,,,,,,,,,,,,,,,,,,,,,,,,,,,,,,,,,,,,,,,,,,,,,,,,,,,,,,,,,,,,,,,,,,,,,,,,,,,,,,,,,,,,,,1104.7844,1152.8853,,,,,,,,,,,,,,,
,,,,,,,,,6735b2a6112cf17b7b8df8d1,spanish,13 or older,"no, only English or Spanish",no,2025-07-23_02h48.05.644,empathy_intonation_perc,2024.2.4,MacIntel,60.24096386,6735b2a6112cf17b7b8df8d1,687ed1b7e638a4cbf2f02089,68808581d950f7dbd2437596,,,,,,,,,,,,,1,,,,,,,,,,,,,,,,,,,,,,,,,,,,,,,,,,,,,,,,,,,,,,,,,,,,,,,,,,,,,,,,,,,,,,,,,,,,,,,1152.8933,1155.7175,strongly agree,0,0,0,0,1,I can easily tell if someone else wants to enter a conversation.,1,0,1,0,,
,,,,,,,,,6735b2a6112cf17b7b8df8d1,spanish,13 or older,"no, only English or Spanish",no,2025-07-23_02h48.05.644,empathy_intonation_perc,2024.2.4,MacIntel,60.24096386,6735b2a6112cf17b7b8df8d1,687ed1b7e638a4cbf2f02089,68808581d950f7dbd2437596,,,,,,,,,,,,,2,,,,,,,,,,,,,,,,,,,,,,,,,,,,,,,,,,,,,,,,,,,,,,,,,,,,,,,,,,,,,,,,,,,,,,,,,,,,,,,1155.7187,1156.8005,strongly agree,0,1,1,1,1,I prefer animals to humans.,0,1,0,0,,
,,,,,,,,,6735b2a6112cf17b7b8df8d1,spanish,13 or older,"no, only English or Spanish",no,2025-07-23_02h48.05.644,empathy_intonation_perc,2024.2.4,MacIntel,60.24096386,6735b2a6112cf17b7b8df8d1,687ed1b7e638a4cbf2f02089,68808581d950f7dbd2437596,,,,,,,,,,,,,3,,,,,,,,,,,,,,,,,,,,,,,,,,,,,,,,,,,,,,,,,,,,,,,,,,,,,,,,,,,,,,,,,,,,,,,,,,,,,,,1156.8017,1159.3514,slightly agree,0,2,2,2,1,I try to keep up with the current trends and fashions.,0,1,0,0,,
,,,,,,,,,6735b2a6112cf17b7b8df8d1,spanish,13 or older,"no, only English or Spanish",no,2025-07-23_02h48.05.644,empathy_intonation_perc,2024.2.4,MacIntel,60.24096386,6735b2a6112cf17b7b8df8d1,687ed1b7e638a4cbf2f02089,68808581d950f7dbd2437596,,,,,,,,,,,,,4,,,,,,,,,,,,,,,,,,,,,,,,,,,,,,,,,,,,,,,,,,,,,,,,,,,,,,,,,,,,,,,,,,,,,,,,,,,,,,,1159.3527,1172.3848,slightly agree,0,3,3,3,1,"I find it difficult to explain to others things that I understand easily,   when they don't understand it first time.",1,0,0,1,,
,,,,,,,,,6735b2a6112cf17b7b8df8d1,spanish,13 or older,"no, only English or Spanish",no,2025-07-23_02h48.05.644,empathy_intonation_perc,2024.2.4,MacIntel,60.24096386,6735b2a6112cf17b7b8df8d1,687ed1b7e638a4cbf2f02089,68808581d950f7dbd2437596,,,,,,,,,,,,,5,,,,,,,,,,,,,,,,,,,,,,,,,,,,,,,,,,,,,,,,,,,,,,,,,,,,,,,,,,,,,,,,,,,,,,,,,,,,,,,1172.3858,1174.6014,slightly agree,0,4,4,4,1,I dream most nights.,0,1,0,0,,
,,,,,,,,,6735b2a6112cf17b7b8df8d1,spanish,13 or older,"no, only English or Spanish",no,2025-07-23_02h48.05.644,empathy_intonation_perc,2024.2.4,MacIntel,60.24096386,6735b2a6112cf17b7b8df8d1,687ed1b7e638a4cbf2f02089,68808581d950f7dbd2437596,,,,,,,,,,,,,6,,,,,,,,,,,,,,,,,,,,,,,,,,,,,,,,,,,,,,,,,,,,,,,,,,,,,,,,,,,,,,,,,,,,,,,,,,,,,,,1174.6025,1176.1181,strongly agree,0,5,5,5,1,I really enjoy caring for other people.,1,0,1,0,,
,,,,,,,,,6735b2a6112cf17b7b8df8d1,spanish,13 or older,"no, only English or Spanish",no,2025-07-23_02h48.05.644,empathy_intonation_perc,2024.2.4,MacIntel,60.24096386,6735b2a6112cf17b7b8df8d1,687ed1b7e638a4cbf2f02089,68808581d950f7dbd2437596,,,,,,,,,,,,,7,,,,,,,,,,,,,,,,,,,,,,,,,,,,,,,,,,,,,,,,,,,,,,,,,,,,,,,,,,,,,,,,,,,,,,,,,,,,,,,1176.1193,1178.918,strongly agree,0,6,6,6,1,I try to solve my own problems rather than discussing them with others.,0,1,0,0,,
,,,,,,,,,6735b2a6112cf17b7b8df8d1,spanish,13 or older,"no, only English or Spanish",no,2025-07-23_02h48.05.644,empathy_intonation_perc,2024.2.4,MacIntel,60.24096386,6735b2a6112cf17b7b8df8d1,687ed1b7e638a4cbf2f02089,68808581d950f7dbd2437596,,,,,,,,,,,,,8,,,,,,,,,,,,,,,,,,,,,,,,,,,,,,,,,,,,,,,,,,,,,,,,,,,,,,,,,,,,,,,,,,,,,,,,,,,,,,,1178.9192,1180.0011,strongly agree,0,7,7,7,1,I find it hard to know what to do in a social situation.,1,0,0,1,,
