instructions_exposure.started,instructions_exposure.stopped,instructions_exposure_loop.thisRepN,instructions_exposure_loop.thisTrialN,instructions_exposure_loop.thisN,instructions_exposure_loop.thisIndex,instructions_exposure_loop.ran,instructions_text,continue_text,participant_id,"What variety of Spanish are you most familiar with? (e.g., Peruvian, Spanish, Mexican)",At what age did you begin learning Spanish?,Are you proficient in any languages other than English/Spanish?,"Are you familiar with Caribbean (e.g., Caribbean, Puerto Rican) or Galician Spanish?",date,expName,psychopyVersion,OS,frameRate,id,study_id,session,trial_exposure.started,trial_exposure.stopped,key_resp_exposure.keys,key_resp_exposure.corr,key_resp_exposure.rt,key_resp_exposure.duration,key_resp.keys,exposure_loop.thisRepN,exposure_loop.thisTrialN,exposure_loop.thisN,exposure_loop.thisIndex,exposure_loop.ran,item_num,correct_response,question,path,duration,instructions_2afc.started,instructions_2afc.stopped,instructions_2afc_loop.thisRepN,instructions_2afc_loop.thisTrialN,instructions_2afc_loop.thisN,instructions_2afc_loop.thisIndex,instructions_2afc_loop.ran,practice_2afc.started,practice_2afc.stopped,key_resp_2afc_practice.keys,key_resp_2afc_practice.corr,key_resp_2afc_practice.rt,key_resp_2afc_practice.duration,trials_2afc_practice_loop.thisRepN,trials_2afc_practice_loop.thisTrialN,trials_2afc_practice_loop.thisN,trials_2afc_practice_loop.thisIndex,trials_2afc_practice_loop.ran,check_2afc.started,check_2afc.stopped,trial_2afc.started,trial_2afc.stopped,key_resp_2afc_trial.keys,key_resp_2afc_trial.corr,key_resp_2afc_trial.rt,key_resp_2afc_trial.duration,trials_2afc_loop.thisRepN,trials_2afc_loop.thisTrialN,trials_2afc_loop.thisN,trials_2afc_loop.thisIndex,trials_2afc_loop.ran,target,variety,instructions_lextale.started,instructions_lextale.stopped,instructions_lextale_loop.thisRepN,instructions_lextale_loop.thisTrialN,instructions_lextale_loop.thisN,instructions_lextale_loop.thisIndex,instructions_lextale_loop.ran,practice_lextale.started,practice_lextale.stopped,key_resp_lextale_practice.keys,key_resp_lextale_practice.corr,key_resp_lextale_practice.rt,key_resp_lextale_practice.duration,practice_feedback_lextale.started,practice_feedback_lextale.stopped,trials_lextale_practice_loop.thisRepN,trials_lextale_practice_loop.thisTrialN,trials_lextale_practice_loop.thisN,trials_lextale_practice_loop.thisIndex,trials_lextale_practice_loop.ran,stim,word,prac_button_real,prac_button_false,check_lextale.started,check_lextale.stopped,trial_lextale.started,trial_lextale.stopped,key_resp_lextale_trial.keys,key_resp_lextale_trial.corr,key_resp_lextale_trial.rt,key_resp_lextale_trial.duration,trials_lextale_loop.thisRepN,trials_lextale_loop.thisTrialN,trials_lextale_loop.thisN,trials_lextale_loop.thisIndex,trials_lextale_loop.ran,button_real,button_false,instructions_eq.started,instructions_eq.stopped,trial_eq.started,trial_eq.stopped,slider_eq_trial.response,trials_eq_loop.thisRepN,trials_eq_loop.thisTrialN,trials_eq_loop.thisN,trials_eq_loop.thisIndex,trials_eq_loop.ran,item,is_test_item,is_distractor,is_agree_score,is_disagree_score,end_exp.started,end_exp.stopped
0.0116,5.6901,0,0,0,0,1,"In the following task, you are going to hear a series of conversations.", (press the space bar to continue),6736ae15788d71c1c21d0398,Mexican,13 or older,"no, only English or Spanish",no,2025-07-23_16h38.45.918,empathy_intonation_perc,2024.2.4,Win32,16,6736ae15788d71c1c21d0398,687ed1b7e638a4cbf2f02089,68814826d4f34a767ce30480,,,,,,,,,,,,,,,,,,,,,,,,,,,,,,,,,,,,,,,,,,,,,,,,,,,,,,,,,,,,,,,,,,,,,,,,,,,,,,,,,,,,,,,,,,,,,,,,,,,,,,,,,,
5.6905,7.5406,0,1,1,1,1,It is okay if you don't not 100% understand them!, (press the space bar to continue),6736ae15788d71c1c21d0398,Mexican,13 or older,"no, only English or Spanish",no,2025-07-23_16h38.45.918,empathy_intonation_perc,2024.2.4,Win32,16,6736ae15788d71c1c21d0398,687ed1b7e638a4cbf2f02089,68814826d4f34a767ce30480,,,,,,,,,,,,,,,,,,,,,,,,,,,,,,,,,,,,,,,,,,,,,,,,,,,,,,,,,,,,,,,,,,,,,,,,,,,,,,,,,,,,,,,,,,,,,,,,,,,,,,,,,,
7.5415,11.0017,0,2,2,2,1,"After, you will read a sentence about the conversation and decide if it's true or false.", (press the space bar to continue),6736ae15788d71c1c21d0398,Mexican,13 or older,"no, only English or Spanish",no,2025-07-23_16h38.45.918,empathy_intonation_perc,2024.2.4,Win32,16,6736ae15788d71c1c21d0398,687ed1b7e638a4cbf2f02089,68814826d4f34a767ce30480,,,,,,,,,,,,,,,,,,,,,,,,,,,,,,,,,,,,,,,,,,,,,,,,,,,,,,,,,,,,,,,,,,,,,,,,,,,,,,,,,,,,,,,,,,,,,,,,,,,,,,,,,,
11.0028,12.9737,0,3,3,3,1,"If it's true, press '1' (True) and if it's false press '0' (False).", (press the space bar to continue),6736ae15788d71c1c21d0398,Mexican,13 or older,"no, only English or Spanish",no,2025-07-23_16h38.45.918,empathy_intonation_perc,2024.2.4,Win32,16,6736ae15788d71c1c21d0398,687ed1b7e638a4cbf2f02089,68814826d4f34a767ce30480,,,,,,,,,,,,,,,,,,,,,,,,,,,,,,,,,,,,,,,,,,,,,,,,,,,,,,,,,,,,,,,,,,,,,,,,,,,,,,,,,,,,,,,,,,,,,,,,,,,,,,,,,,
,,,,,,,,,6736ae15788d71c1c21d0398,Mexican,13 or older,"no, only English or Spanish",no,2025-07-23_16h38.45.918,empathy_intonation_perc,2024.2.4,Win32,16,6736ae15788d71c1c21d0398,687ed1b7e638a4cbf2f02089,68814826d4f34a767ce30480,12.9785,80.4782,1,1,7.4188,,,0,0,0,1,1,2,1,The mom asked the daughter if she already went to the supermarket.,./stim/exposure_wavs/dr_stimuli_convo.wav,60,,,,,,,,,,,,,,,,,,,,,,,,,,,,,,,,,,,,,,,,,,,,,,,,,,,,,,,,,,,,,,,,,,,,,,,,,,,,,,,,,,,,,,,,,
,,,,,,,,,6736ae15788d71c1c21d0398,Mexican,13 or older,"no, only English or Spanish",no,2025-07-23_16h38.45.918,empathy_intonation_perc,2024.2.4,Win32,16,6736ae15788d71c1c21d0398,687ed1b7e638a4cbf2f02089,68814826d4f34a767ce30480,80.4796,132.9985,1,1,5.4174,,,0,1,1,0,1,1,1,The son asked the mom if Aunt Marina is okay.,./stim/exposure_wavs/ga_stimuli_convo.wav,47,,,,,,,,,,,,,,,,,,,,,,,,,,,,,,,,,,,,,,,,,,,,,,,,,,,,,,,,,,,,,,,,,,,,,,,,,,,,,,,,,,,,,,,,,
,,,,,,,,,6736ae15788d71c1c21d0398,Mexican,13 or older,"no, only English or Spanish",no,2025-07-23_16h38.45.918,empathy_intonation_perc,2024.2.4,Win32,16,6736ae15788d71c1c21d0398,687ed1b7e638a4cbf2f02089,68814826d4f34a767ce30480,132.9993,175.3901,0,1,6.2572,,,0,2,2,2,1,3,0,The mom already has rice.,./stim/exposure_wavs/pr_stimuli_convo.wav,36,,,,,,,,,,,,,,,,,,,,,,,,,,,,,,,,,,,,,,,,,,,,,,,,,,,,,,,,,,,,,,,,,,,,,,,,,,,,,,,,,,,,,,,,,
,,,,,,,"In the following task you are going to hear a series of utterances. 

  You will decide if the utterances sound like questions or not using your keyboard.", (press the spacebar to continue),6736ae15788d71c1c21d0398,Mexican,13 or older,"no, only English or Spanish",no,2025-07-23_16h38.45.918,empathy_intonation_perc,2024.2.4,Win32,16,6736ae15788d71c1c21d0398,687ed1b7e638a4cbf2f02089,68814826d4f34a767ce30480,,,,,,,,,,,,,,,,,,175.3926,181.8256,0,0,0,0,1,,,,,,,,,,,,,,,,,,,,,,,,,,,,,,,,,,,,,,,,,,,,,,,,,,,,,,,,,,,,,,,,,,,,,,,,,,,,,,,,,,
,,,,,,,"If you believe the utterance is a question, type '1' (for 'yes') and if you do not 
  believe it is a question type '0' (for 'no').

  Let's practice a bit...", (press the spacebar to continue),6736ae15788d71c1c21d0398,Mexican,13 or older,"no, only English or Spanish",no,2025-07-23_16h38.45.918,empathy_intonation_perc,2024.2.4,Win32,16,6736ae15788d71c1c21d0398,687ed1b7e638a4cbf2f02089,68814826d4f34a767ce30480,,,,,,,,,,,,,,,,,,181.8265,189.2353,0,1,1,1,1,,,,,,,,,,,,,,,,,,,,,,,,,,,,,,,,,,,,,,,,,,,,,,,,,,,,,,,,,,,,,,,,,,,,,,,,,,,,,,,,,,
,,,,,,,,,6736ae15788d71c1c21d0398,Mexican,13 or older,"no, only English or Spanish",no,2025-07-23_16h38.45.918,empathy_intonation_perc,2024.2.4,Win32,16,6736ae15788d71c1c21d0398,687ed1b7e638a4cbf2f02089,68814826d4f34a767ce30480,,,,,,,,,,,,,,1,,./stim/wavs/chilean_question_filler_Mi-padre-cantaba-bien.wav,,,,,,,,,189.2388,193.6432,1,1,3.7643,,0,0,0,2,1,,,,,,,,,,,,,,,,,,,,,,,,,,,,,,,,,,,,,,,,,,,,,,,,,,,,,,,,,,,,,,,,,,,,,,,
,,,,,,,,,6736ae15788d71c1c21d0398,Mexican,13 or older,"no, only English or Spanish",no,2025-07-23_16h38.45.918,empathy_intonation_perc,2024.2.4,Win32,16,6736ae15788d71c1c21d0398,687ed1b7e638a4cbf2f02089,68814826d4f34a767ce30480,,,,,,,,,,,,,,1,,./stim/wavs/mexican_question_filler_Felipe-no-tiene-contrasena.wav,,,,,,,,,193.6436,196.4902,1,1,2.2781,,0,1,1,3,1,,,,,,,,,,,,,,,,,,,,,,,,,,,,,,,,,,,,,,,,,,,,,,,,,,,,,,,,,,,,,,,,,,,,,,,
,,,,,,,,,6736ae15788d71c1c21d0398,Mexican,13 or older,"no, only English or Spanish",no,2025-07-23_16h38.45.918,empathy_intonation_perc,2024.2.4,Win32,16,6736ae15788d71c1c21d0398,687ed1b7e638a4cbf2f02089,68814826d4f34a767ce30480,,,,,,,,,,,,,,1,,./stim/wavs/argentine_question_filler_Mi-vecino-habla-mucho.wav,,,,,,,,,196.4905,199.259,0,0,2.1407,,0,2,2,1,1,,,,,,,,,,,,,,,,,,,,,,,,,,,,,,,,,,,,,,,,,,,,,,,,,,,,,,,,,,,,,,,,,,,,,,,
,,,,,,,,,6736ae15788d71c1c21d0398,Mexican,13 or older,"no, only English or Spanish",no,2025-07-23_16h38.45.918,empathy_intonation_perc,2024.2.4,Win32,16,6736ae15788d71c1c21d0398,687ed1b7e638a4cbf2f02089,68814826d4f34a767ce30480,,,,,,,,,,,,,,0,,./stim/wavs/andalusian_statement_filler_Alberto-nunca-se-afeita.wav,,,,,,,,,199.2594,201.7569,0,1,1.9172,,0,3,3,5,1,,,,,,,,,,,,,,,,,,,,,,,,,,,,,,,,,,,,,,,,,,,,,,,,,,,,,,,,,,,,,,,,,,,,,,,
,,,,,,,,,6736ae15788d71c1c21d0398,Mexican,13 or older,"no, only English or Spanish",no,2025-07-23_16h38.45.918,empathy_intonation_perc,2024.2.4,Win32,16,6736ae15788d71c1c21d0398,687ed1b7e638a4cbf2f02089,68814826d4f34a767ce30480,,,,,,,,,,,,,,0,,./stim/wavs/cuban_statement_filler_Cocinabas-por-la-noche.wav,,,,,,,,,201.7572,204.3766,0,1,1.9881,,0,4,4,4,1,,,,,,,,,,,,,,,,,,,,,,,,,,,,,,,,,,,,,,,,,,,,,,,,,,,,,,,,,,,,,,,,,,,,,,,
,,,,,,,,,6736ae15788d71c1c21d0398,Mexican,13 or older,"no, only English or Spanish",no,2025-07-23_16h38.45.918,empathy_intonation_perc,2024.2.4,Win32,16,6736ae15788d71c1c21d0398,687ed1b7e638a4cbf2f02089,68814826d4f34a767ce30480,,,,,,,,,,,,,,0,,./stim/wavs/peruvian_statement_filler_El-nino-habla-con-su-madre.wav,,,,,,,,,204.3769,208.2025,0,1,3.1964,,0,5,5,6,1,,,,,,,,,,,,,,,,,,,,,,,,,,,,,,,,,,,,,,,,,,,,,,,,,,,,,,,,,,,,,,,,,,,,,,,
,,,,,,,,,6736ae15788d71c1c21d0398,Mexican,13 or older,"no, only English or Spanish",no,2025-07-23_16h38.45.918,empathy_intonation_perc,2024.2.4,Win32,16,6736ae15788d71c1c21d0398,687ed1b7e638a4cbf2f02089,68814826d4f34a767ce30480,,,,,,,,,,,,,,1,,./stim/wavs/castilian_question_filler_Mi-esposo-conoce-al-chico.wav,,,,,,,,,208.2027,210.6866,1,1,1.8527,,0,6,6,0,1,,,,,,,,,,,,,,,,,,,,,,,,,,,,,,,,,,,,,,,,,,,,,,,,,,,,,,,,,,,,,,,,,,,,,,,
,,,,,,,,,6736ae15788d71c1c21d0398,Mexican,13 or older,"no, only English or Spanish",no,2025-07-23_16h38.45.918,empathy_intonation_perc,2024.2.4,Win32,16,6736ae15788d71c1c21d0398,687ed1b7e638a4cbf2f02089,68814826d4f34a767ce30480,,,,,,,,,,,,,,0,,./stim/wavs/puertorican_statement_filler_La-nina-pinta-con-su-amiga.wav,,,,,,,,,210.6868,213.6244,0,1,2.3192,,0,7,7,7,1,,,,,,,,,,,,,,,,,,,,,,,,,,,,,,,,,,,,,,,,,,,,,,,,,,,,,,,,,,,,,,,,,,,,,,,
,,,,,,,,,6736ae15788d71c1c21d0398,Mexican,13 or older,"no, only English or Spanish",no,2025-07-23_16h38.45.918,empathy_intonation_perc,2024.2.4,Win32,16,6736ae15788d71c1c21d0398,687ed1b7e638a4cbf2f02089,68814826d4f34a767ce30480,,,,,,,,,,,,,,,,,,,,,,,,,,,,,,,,,,,,213.6246,217.0387,,,,,,,,,,,,,,,,,,,,,,,,,,,,,,,,,,,,,,,,,,,,,,,,,,,,,,,,,,,,,,,,,,,,,
,,,,,,,,,6736ae15788d71c1c21d0398,Mexican,13 or older,"no, only English or Spanish",no,2025-07-23_16h38.45.918,empathy_intonation_perc,2024.2.4,Win32,16,6736ae15788d71c1c21d0398,687ed1b7e638a4cbf2f02089,68814826d4f34a767ce30480,,,,,,,,,,,,,54,0,,./stim/wavs/cuban_match_declarative-broad-focus_Maria-bebe-el-vino.wav,,,,,,,,,,,,,,,,,,,,,,217.0436,219.3829,0,1,1.7187,,0,0,0,53,1,0,cuban,,,,,,,,,,,,,,,,,,,,,,,,,,,,,,,,,,,,,,,,,,,,,,,,,,,,,,,,
,,,,,,,,,6736ae15788d71c1c21d0398,Mexican,13 or older,"no, only English or Spanish",no,2025-07-23_16h38.45.918,empathy_intonation_perc,2024.2.4,Win32,16,6736ae15788d71c1c21d0398,687ed1b7e638a4cbf2f02089,68814826d4f34a767ce30480,,,,,,,,,,,,,69,0,,./stim/wavs/castilian_mismatch_declarative-broad-focus_El-nino-oye-el-rio.wav,,,,,,,,,,,,,,,,,,,,,,219.3831,222.2693,0,1,2.265,,0,1,1,68,1,0,castilian,,,,,,,,,,,,,,,,,,,,,,,,,,,,,,,,,,,,,,,,,,,,,,,,,,,,,,,,
,,,,,,,,,6736ae15788d71c1c21d0398,Mexican,13 or older,"no, only English or Spanish",no,2025-07-23_16h38.45.918,empathy_intonation_perc,2024.2.4,Win32,16,6736ae15788d71c1c21d0398,687ed1b7e638a4cbf2f02089,68814826d4f34a767ce30480,,,,,,,,,,,,,19,1,,./stim/wavs/puertorican_match_interrogative-total-yn_Ana-lleva-el-abrigo.wav,,,,,,,,,,,,,,,,,,,,,,222.2696,224.3066,1,1,1.4146,,0,2,2,18,1,1,puertorican,,,,,,,,,,,,,,,,,,,,,,,,,,,,,,,,,,,,,,,,,,,,,,,,,,,,,,,,
,,,,,,,,,6736ae15788d71c1c21d0398,Mexican,13 or older,"no, only English or Spanish",no,2025-07-23_16h38.45.918,empathy_intonation_perc,2024.2.4,Win32,16,6736ae15788d71c1c21d0398,687ed1b7e638a4cbf2f02089,68814826d4f34a767ce30480,,,,,,,,,,,,,58,0,,./stim/wavs/mexican_match_declarative-broad-focus_Daniel-iba-a-Bolivia.wav,,,,,,,,,,,,,,,,,,,,,,224.3069,226.6156,0,1,1.7314,,0,3,3,57,1,0,mexican,,,,,,,,,,,,,,,,,,,,,,,,,,,,,,,,,,,,,,,,,,,,,,,,,,,,,,,,
,,,,,,,,,6736ae15788d71c1c21d0398,Mexican,13 or older,"no, only English or Spanish",no,2025-07-23_16h38.45.918,empathy_intonation_perc,2024.2.4,Win32,16,6736ae15788d71c1c21d0398,687ed1b7e638a4cbf2f02089,68814826d4f34a767ce30480,,,,,,,,,,,,,11,1,,./stim/wavs/cuban_match_interrogative-total-yn_Mariano-habla-del-tiempo.wav,,,,,,,,,,,,,,,,,,,,,,226.6159,231.1998,0,0,3.9645,,0,4,4,10,1,1,cuban,,,,,,,,,,,,,,,,,,,,,,,,,,,,,,,,,,,,,,,,,,,,,,,,,,,,,,,,
,,,,,,,,,6736ae15788d71c1c21d0398,Mexican,13 or older,"no, only English or Spanish",no,2025-07-23_16h38.45.918,empathy_intonation_perc,2024.2.4,Win32,16,6736ae15788d71c1c21d0398,687ed1b7e638a4cbf2f02089,68814826d4f34a767ce30480,,,,,,,,,,,,,72,0,,./stim/wavs/castilian_mismatch_declarative-broad-focus_Mi-novio-viene-del-lago.wav,,,,,,,,,,,,,,,,,,,,,,231.2002,234.4334,1,0,2.6684,,0,5,5,71,1,0,castilian,,,,,,,,,,,,,,,,,,,,,,,,,,,,,,,,,,,,,,,,,,,,,,,,,,,,,,,,
,,,,,,,,,6736ae15788d71c1c21d0398,Mexican,13 or older,"no, only English or Spanish",no,2025-07-23_16h38.45.918,empathy_intonation_perc,2024.2.4,Win32,16,6736ae15788d71c1c21d0398,687ed1b7e638a4cbf2f02089,68814826d4f34a767ce30480,,,,,,,,,,,,,57,0,,./stim/wavs/mexican_match_declarative-broad-focus_Ana-lleva-el-abrigo.wav,,,,,,,,,,,,,,,,,,,,,,234.4336,237.6952,0,1,2.6259,,0,6,6,56,1,0,mexican,,,,,,,,,,,,,,,,,,,,,,,,,,,,,,,,,,,,,,,,,,,,,,,,,,,,,,,,
,,,,,,,,,6736ae15788d71c1c21d0398,Mexican,13 or older,"no, only English or Spanish",no,2025-07-23_16h38.45.918,empathy_intonation_perc,2024.2.4,Win32,16,6736ae15788d71c1c21d0398,687ed1b7e638a4cbf2f02089,68814826d4f34a767ce30480,,,,,,,,,,,,,83,0,,./stim/wavs/mexican_mismatch_declarative-broad-focus_Mi-tia-odia-la-lluvia.wav,,,,,,,,,,,,,,,,,,,,,,237.6954,240.6104,0,1,2.2947,,0,7,7,82,1,0,mexican,,,,,,,,,,,,,,,,,,,,,,,,,,,,,,,,,,,,,,,,,,,,,,,,,,,,,,,,
,,,,,,,,,6736ae15788d71c1c21d0398,Mexican,13 or older,"no, only English or Spanish",no,2025-07-23_16h38.45.918,empathy_intonation_perc,2024.2.4,Win32,16,6736ae15788d71c1c21d0398,687ed1b7e638a4cbf2f02089,68814826d4f34a767ce30480,,,,,,,,,,,,,37,1,,./stim/wavs/mexican_mismatch_interrogative-total-yn_La-maestra-vive-en-Paris.wav,,,,,,,,,,,,,,,,,,,,,,240.6107,243.2295,1,1,2.0002,,0,8,8,36,1,0,mexican,,,,,,,,,,,,,,,,,,,,,,,,,,,,,,,,,,,,,,,,,,,,,,,,,,,,,,,,
,,,,,,,,,6736ae15788d71c1c21d0398,Mexican,13 or older,"no, only English or Spanish",no,2025-07-23_16h38.45.918,empathy_intonation_perc,2024.2.4,Win32,16,6736ae15788d71c1c21d0398,687ed1b7e638a4cbf2f02089,68814826d4f34a767ce30480,,,,,,,,,,,,,79,0,,./stim/wavs/mexican_mismatch_declarative-broad-focus_El-bebe-comia-muy-bien.wav,,,,,,,,,,,,,,,,,,,,,,243.2297,246.0888,0,1,2.234,,0,9,9,78,1,0,mexican,,,,,,,,,,,,,,,,,,,,,,,,,,,,,,,,,,,,,,,,,,,,,,,,,,,,,,,,
,,,,,,,,,6736ae15788d71c1c21d0398,Mexican,13 or older,"no, only English or Spanish",no,2025-07-23_16h38.45.918,empathy_intonation_perc,2024.2.4,Win32,16,6736ae15788d71c1c21d0398,687ed1b7e638a4cbf2f02089,68814826d4f34a767ce30480,,,,,,,,,,,,,52,0,,./stim/wavs/cuban_match_declarative-broad-focus_Daniel-iba-a-Bolivia.wav,,,,,,,,,,,,,,,,,,,,,,246.089,249.7866,0,1,3.0728,,0,10,10,51,1,0,cuban,,,,,,,,,,,,,,,,,,,,,,,,,,,,,,,,,,,,,,,,,,,,,,,,,,,,,,,,
,,,,,,,,,6736ae15788d71c1c21d0398,Mexican,13 or older,"no, only English or Spanish",no,2025-07-23_16h38.45.918,empathy_intonation_perc,2024.2.4,Win32,16,6736ae15788d71c1c21d0398,687ed1b7e638a4cbf2f02089,68814826d4f34a767ce30480,,,,,,,,,,,,,16,1,,./stim/wavs/mexican_match_interrogative-total-yn_Emilio-ama-la-marcha.wav,,,,,,,,,,,,,,,,,,,,,,249.7868,252.912,0,0,2.4936,,0,11,11,15,1,0,mexican,,,,,,,,,,,,,,,,,,,,,,,,,,,,,,,,,,,,,,,,,,,,,,,,,,,,,,,,
,,,,,,,,,6736ae15788d71c1c21d0398,Mexican,13 or older,"no, only English or Spanish",no,2025-07-23_16h38.45.918,empathy_intonation_perc,2024.2.4,Win32,16,6736ae15788d71c1c21d0398,687ed1b7e638a4cbf2f02089,68814826d4f34a767ce30480,,,,,,,,,,,,,81,0,,./stim/wavs/mexican_mismatch_declarative-broad-focus_La-maestra-vive-en-Paris.wav,,,,,,,,,,,,,,,,,,,,,,252.9123,255.6333,0,1,2.0976,,0,12,12,80,1,0,mexican,,,,,,,,,,,,,,,,,,,,,,,,,,,,,,,,,,,,,,,,,,,,,,,,,,,,,,,,
,,,,,,,,,6736ae15788d71c1c21d0398,Mexican,13 or older,"no, only English or Spanish",no,2025-07-23_16h38.45.918,empathy_intonation_perc,2024.2.4,Win32,16,6736ae15788d71c1c21d0398,687ed1b7e638a4cbf2f02089,68814826d4f34a767ce30480,,,,,,,,,,,,,60,0,,./stim/wavs/mexican_match_declarative-broad-focus_Emilio-ama-la-marcha.wav,,,,,,,,,,,,,,,,,,,,,,255.6335,259.3853,0,1,3.1185,,0,13,13,59,1,0,mexican,,,,,,,,,,,,,,,,,,,,,,,,,,,,,,,,,,,,,,,,,,,,,,,,,,,,,,,,
,,,,,,,,,6736ae15788d71c1c21d0398,Mexican,13 or older,"no, only English or Spanish",no,2025-07-23_16h38.45.918,empathy_intonation_perc,2024.2.4,Win32,16,6736ae15788d71c1c21d0398,687ed1b7e638a4cbf2f02089,68814826d4f34a767ce30480,,,,,,,,,,,,,49,0,,./stim/wavs/castilian_match_declarative-broad-focus_Mariano-habla-del-tiempo.wav,,,,,,,,,,,,,,,,,,,,,,259.3856,262.1523,0,1,2.1431,1E-04,0,14,14,48,1,0,castilian,,,,,,,,,,,,,,,,,,,,,,,,,,,,,,,,,,,,,,,,,,,,,,,,,,,,,,,,
,,,,,,,,,6736ae15788d71c1c21d0398,Mexican,13 or older,"no, only English or Spanish",no,2025-07-23_16h38.45.918,empathy_intonation_perc,2024.2.4,Win32,16,6736ae15788d71c1c21d0398,687ed1b7e638a4cbf2f02089,68814826d4f34a767ce30480,,,,,,,,,,,,,26,1,,./stim/wavs/castilian_mismatch_interrogative-total-yn_La-nina-lava-el-plato.wav,,,,,,,,,,,,,,,,,,,,,,262.1525,264.4168,1,1,1.6945,,0,15,15,25,1,0,castilian,,,,,,,,,,,,,,,,,,,,,,,,,,,,,,,,,,,,,,,,,,,,,,,,,,,,,,,,
,,,,,,,,,6736ae15788d71c1c21d0398,Mexican,13 or older,"no, only English or Spanish",no,2025-07-23_16h38.45.918,empathy_intonation_perc,2024.2.4,Win32,16,6736ae15788d71c1c21d0398,687ed1b7e638a4cbf2f02089,68814826d4f34a767ce30480,,,,,,,,,,,,,85,0,,./stim/wavs/puertorican_mismatch_declarative-broad-focus_El-hombre-mira-la-luna.wav,,,,,,,,,,,,,,,,,,,,,,264.4171,266.8418,0,1,1.7934,,0,16,16,84,1,0,puertorican,,,,,,,,,,,,,,,,,,,,,,,,,,,,,,,,,,,,,,,,,,,,,,,,,,,,,,,,
,,,,,,,,,6736ae15788d71c1c21d0398,Mexican,13 or older,"no, only English or Spanish",no,2025-07-23_16h38.45.918,empathy_intonation_perc,2024.2.4,Win32,16,6736ae15788d71c1c21d0398,687ed1b7e638a4cbf2f02089,68814826d4f34a767ce30480,,,,,,,,,,,,,25,1,,./stim/wavs/castilian_mismatch_interrogative-total-yn_La-maestra-vive-en-Paris.wav,,,,,,,,,,,,,,,,,,,,,,266.842,269.4528,1,1,1.9877,,0,17,17,24,1,0,castilian,,,,,,,,,,,,,,,,,,,,,,,,,,,,,,,,,,,,,,,,,,,,,,,,,,,,,,,,
,,,,,,,,,6736ae15788d71c1c21d0398,Mexican,13 or older,"no, only English or Spanish",no,2025-07-23_16h38.45.918,empathy_intonation_perc,2024.2.4,Win32,16,6736ae15788d71c1c21d0398,687ed1b7e638a4cbf2f02089,68814826d4f34a767ce30480,,,,,,,,,,,,,41,1,,./stim/wavs/puertorican_mismatch_interrogative-total-yn_El-nino-oye-el-rio.wav,,,,,,,,,,,,,,,,,,,,,,269.4531,271.5823,1,1,1.4961,,0,18,18,40,1,1,puertorican,,,,,,,,,,,,,,,,,,,,,,,,,,,,,,,,,,,,,,,,,,,,,,,,,,,,,,,,
,,,,,,,,,6736ae15788d71c1c21d0398,Mexican,13 or older,"no, only English or Spanish",no,2025-07-23_16h38.45.918,empathy_intonation_perc,2024.2.4,Win32,16,6736ae15788d71c1c21d0398,687ed1b7e638a4cbf2f02089,68814826d4f34a767ce30480,,,,,,,,,,,,,29,1,,./stim/wavs/castilian_mismatch_interrogative-total-yn_Mi-tia-odia-la-lluvia.wav,,,,,,,,,,,,,,,,,,,,,,271.5825,273.9085,1,1,1.6907,,0,19,19,28,1,0,castilian,,,,,,,,,,,,,,,,,,,,,,,,,,,,,,,,,,,,,,,,,,,,,,,,,,,,,,,,
,,,,,,,,,6736ae15788d71c1c21d0398,Mexican,13 or older,"no, only English or Spanish",no,2025-07-23_16h38.45.918,empathy_intonation_perc,2024.2.4,Win32,16,6736ae15788d71c1c21d0398,687ed1b7e638a4cbf2f02089,68814826d4f34a767ce30480,,,,,,,,,,,,,68,0,,./stim/wavs/puertorican_match_declarative-broad-focus_Maria-bebe-el-vino.wav,,,,,,,,,,,,,,,,,,,,,,273.9088,276.2306,1,0,1.6904,,0,20,20,67,1,0,puertorican,,,,,,,,,,,,,,,,,,,,,,,,,,,,,,,,,,,,,,,,,,,,,,,,,,,,,,,,
,,,,,,,,,6736ae15788d71c1c21d0398,Mexican,13 or older,"no, only English or Spanish",no,2025-07-23_16h38.45.918,empathy_intonation_perc,2024.2.4,Win32,16,6736ae15788d71c1c21d0398,687ed1b7e638a4cbf2f02089,68814826d4f34a767ce30480,,,,,,,,,,,,,14,1,,./stim/wavs/mexican_match_interrogative-total-yn_Daniel-iba-a-Bolivia.wav,,,,,,,,,,,,,,,,,,,,,,276.2309,278.6484,1,1,1.7851,,0,21,21,13,1,0,mexican,,,,,,,,,,,,,,,,,,,,,,,,,,,,,,,,,,,,,,,,,,,,,,,,,,,,,,,,
,,,,,,,,,6736ae15788d71c1c21d0398,Mexican,13 or older,"no, only English or Spanish",no,2025-07-23_16h38.45.918,empathy_intonation_perc,2024.2.4,Win32,16,6736ae15788d71c1c21d0398,687ed1b7e638a4cbf2f02089,68814826d4f34a767ce30480,,,,,,,,,,,,,51,0,,./stim/wavs/cuban_match_declarative-broad-focus_Ana-lleva-el-abrigo.wav,,,,,,,,,,,,,,,,,,,,,,278.6486,281.0086,0,1,1.7382,,0,22,22,50,1,0,cuban,,,,,,,,,,,,,,,,,,,,,,,,,,,,,,,,,,,,,,,,,,,,,,,,,,,,,,,,
,,,,,,,,,6736ae15788d71c1c21d0398,Mexican,13 or older,"no, only English or Spanish",no,2025-07-23_16h38.45.918,empathy_intonation_perc,2024.2.4,Win32,16,6736ae15788d71c1c21d0398,687ed1b7e638a4cbf2f02089,68814826d4f34a767ce30480,,,,,,,,,,,,,53,0,,./stim/wavs/cuban_match_declarative-broad-focus_Manuela-vende-el-carro.wav,,,,,,,,,,,,,,,,,,,,,,281.0088,283.3387,0,1,1.7064,,0,23,23,52,1,0,cuban,,,,,,,,,,,,,,,,,,,,,,,,,,,,,,,,,,,,,,,,,,,,,,,,,,,,,,,,
,,,,,,,,,6736ae15788d71c1c21d0398,Mexican,13 or older,"no, only English or Spanish",no,2025-07-23_16h38.45.918,empathy_intonation_perc,2024.2.4,Win32,16,6736ae15788d71c1c21d0398,687ed1b7e638a4cbf2f02089,68814826d4f34a767ce30480,,,,,,,,,,,,,67,0,,./stim/wavs/puertorican_match_declarative-broad-focus_Manuela-vende-el-carro.wav,,,,,,,,,,,,,,,,,,,,,,283.339,285.7634,0,1,1.8027,,0,24,24,66,1,0,puertorican,,,,,,,,,,,,,,,,,,,,,,,,,,,,,,,,,,,,,,,,,,,,,,,,,,,,,,,,
,,,,,,,,,6736ae15788d71c1c21d0398,Mexican,13 or older,"no, only English or Spanish",no,2025-07-23_16h38.45.918,empathy_intonation_perc,2024.2.4,Win32,16,6736ae15788d71c1c21d0398,687ed1b7e638a4cbf2f02089,68814826d4f34a767ce30480,,,,,,,,,,,,,45,0,,./stim/wavs/castilian_match_declarative-broad-focus_David-leia-el-libro.wav,,,,,,,,,,,,,,,,,,,,,,285.7636,288.6612,0,1,2.2664,,0,25,25,44,1,0,castilian,,,,,,,,,,,,,,,,,,,,,,,,,,,,,,,,,,,,,,,,,,,,,,,,,,,,,,,,
,,,,,,,,,6736ae15788d71c1c21d0398,Mexican,13 or older,"no, only English or Spanish",no,2025-07-23_16h38.45.918,empathy_intonation_perc,2024.2.4,Win32,16,6736ae15788d71c1c21d0398,687ed1b7e638a4cbf2f02089,68814826d4f34a767ce30480,,,,,,,,,,,,,1,1,,./stim/wavs/castilian_match_interrogative-total-yn_David-leia-el-libro.wav,,,,,,,,,,,,,,,,,,,,,,288.6614,290.7971,0,0,1.5557,,0,26,26,0,1,0,castilian,,,,,,,,,,,,,,,,,,,,,,,,,,,,,,,,,,,,,,,,,,,,,,,,,,,,,,,,
,,,,,,,,,6736ae15788d71c1c21d0398,Mexican,13 or older,"no, only English or Spanish",no,2025-07-23_16h38.45.918,empathy_intonation_perc,2024.2.4,Win32,16,6736ae15788d71c1c21d0398,687ed1b7e638a4cbf2f02089,68814826d4f34a767ce30480,,,,,,,,,,,,,38,1,,./stim/wavs/mexican_mismatch_interrogative-total-yn_Mi-novio-viene-del-lago.wav,,,,,,,,,,,,,,,,,,,,,,290.7974,293.3281,1,1,1.912,,0,27,27,37,1,0,mexican,,,,,,,,,,,,,,,,,,,,,,,,,,,,,,,,,,,,,,,,,,,,,,,,,,,,,,,,
,,,,,,,,,6736ae15788d71c1c21d0398,Mexican,13 or older,"no, only English or Spanish",no,2025-07-23_16h38.45.918,empathy_intonation_perc,2024.2.4,Win32,16,6736ae15788d71c1c21d0398,687ed1b7e638a4cbf2f02089,68814826d4f34a767ce30480,,,,,,,,,,,,,70,0,,./stim/wavs/castilian_mismatch_declarative-broad-focus_La-maestra-vive-en-Paris.wav,,,,,,,,,,,,,,,,,,,,,,293.3283,296.53,0,1,2.5822,,0,28,28,69,1,0,castilian,,,,,,,,,,,,,,,,,,,,,,,,,,,,,,,,,,,,,,,,,,,,,,,,,,,,,,,,
,,,,,,,,,6736ae15788d71c1c21d0398,Mexican,13 or older,"no, only English or Spanish",no,2025-07-23_16h38.45.918,empathy_intonation_perc,2024.2.4,Win32,16,6736ae15788d71c1c21d0398,687ed1b7e638a4cbf2f02089,68814826d4f34a767ce30480,,,,,,,,,,,,,82,0,,./stim/wavs/mexican_mismatch_declarative-broad-focus_Mi-novio-viene-del-lago.wav,,,,,,,,,,,,,,,,,,,,,,296.5302,299.0353,0,1,1.871,,0,29,29,81,1,0,mexican,,,,,,,,,,,,,,,,,,,,,,,,,,,,,,,,,,,,,,,,,,,,,,,,,,,,,,,,
,,,,,,,,,6736ae15788d71c1c21d0398,Mexican,13 or older,"no, only English or Spanish",no,2025-07-23_16h38.45.918,empathy_intonation_perc,2024.2.4,Win32,16,6736ae15788d71c1c21d0398,687ed1b7e638a4cbf2f02089,68814826d4f34a767ce30480,,,,,,,,,,,,,43,1,,./stim/wavs/puertorican_mismatch_interrogative-total-yn_La-nina-lava-el-plato.wav,,,,,,,,,,,,,,,,,,,,,,299.0355,301.8457,0,0,2.1904,,0,30,30,42,1,1,puertorican,,,,,,,,,,,,,,,,,,,,,,,,,,,,,,,,,,,,,,,,,,,,,,,,,,,,,,,,
,,,,,,,,,6736ae15788d71c1c21d0398,Mexican,13 or older,"no, only English or Spanish",no,2025-07-23_16h38.45.918,empathy_intonation_perc,2024.2.4,Win32,16,6736ae15788d71c1c21d0398,687ed1b7e638a4cbf2f02089,68814826d4f34a767ce30480,,,,,,,,,,,,,77,0,,./stim/wavs/cuban_mismatch_declarative-broad-focus_Mi-novio-viene-del-lago.wav,,,,,,,,,,,,,,,,,,,,,,301.846,304.9183,0,1,2.4456,,0,31,31,76,1,0,cuban,,,,,,,,,,,,,,,,,,,,,,,,,,,,,,,,,,,,,,,,,,,,,,,,,,,,,,,,
,,,,,,,,,6736ae15788d71c1c21d0398,Mexican,13 or older,"no, only English or Spanish",no,2025-07-23_16h38.45.918,empathy_intonation_perc,2024.2.4,Win32,16,6736ae15788d71c1c21d0398,687ed1b7e638a4cbf2f02089,68814826d4f34a767ce30480,,,,,,,,,,,,,36,1,,./stim/wavs/mexican_mismatch_interrogative-total-yn_El-nino-oye-el-rio.wav,,,,,,,,,,,,,,,,,,,,,,304.9186,306.957,1,1,1.4265,,0,32,32,35,1,0,mexican,,,,,,,,,,,,,,,,,,,,,,,,,,,,,,,,,,,,,,,,,,,,,,,,,,,,,,,,
,,,,,,,,,6736ae15788d71c1c21d0398,Mexican,13 or older,"no, only English or Spanish",no,2025-07-23_16h38.45.918,empathy_intonation_perc,2024.2.4,Win32,16,6736ae15788d71c1c21d0398,687ed1b7e638a4cbf2f02089,68814826d4f34a767ce30480,,,,,,,,,,,,,10,1,,./stim/wavs/cuban_match_interrogative-total-yn_Maria-bebe-el-vino.wav,,,,,,,,,,,,,,,,,,,,,,306.9573,309.8037,0,0,2.2217,,0,33,33,9,1,1,cuban,,,,,,,,,,,,,,,,,,,,,,,,,,,,,,,,,,,,,,,,,,,,,,,,,,,,,,,,
,,,,,,,,,6736ae15788d71c1c21d0398,Mexican,13 or older,"no, only English or Spanish",no,2025-07-23_16h38.45.918,empathy_intonation_perc,2024.2.4,Win32,16,6736ae15788d71c1c21d0398,687ed1b7e638a4cbf2f02089,68814826d4f34a767ce30480,,,,,,,,,,,,,6,1,,./stim/wavs/castilian_match_interrogative-total-yn_Marta-abre-el-regalo.wav,,,,,,,,,,,,,,,,,,,,,,309.804,312.2955,1,1,1.857,,0,34,34,5,1,0,castilian,,,,,,,,,,,,,,,,,,,,,,,,,,,,,,,,,,,,,,,,,,,,,,,,,,,,,,,,
,,,,,,,,,6736ae15788d71c1c21d0398,Mexican,13 or older,"no, only English or Spanish",no,2025-07-23_16h38.45.918,empathy_intonation_perc,2024.2.4,Win32,16,6736ae15788d71c1c21d0398,687ed1b7e638a4cbf2f02089,68814826d4f34a767ce30480,,,,,,,,,,,,,55,0,,./stim/wavs/cuban_match_declarative-broad-focus_Mariano-habla-del-tiempo.wav,,,,,,,,,,,,,,,,,,,,,,312.2957,314.9151,0,1,2.0006,,0,35,35,54,1,0,cuban,,,,,,,,,,,,,,,,,,,,,,,,,,,,,,,,,,,,,,,,,,,,,,,,,,,,,,,,
,,,,,,,,,6736ae15788d71c1c21d0398,Mexican,13 or older,"no, only English or Spanish",no,2025-07-23_16h38.45.918,empathy_intonation_perc,2024.2.4,Win32,16,6736ae15788d71c1c21d0398,687ed1b7e638a4cbf2f02089,68814826d4f34a767ce30480,,,,,,,,,,,,,4,1,,./stim/wavs/castilian_match_interrogative-total-yn_Maria-bebe-el-vino.wav,,,,,,,,,,,,,,,,,,,,,,314.9152,317.049,1,1,1.5124,,0,36,36,3,1,0,castilian,,,,,,,,,,,,,,,,,,,,,,,,,,,,,,,,,,,,,,,,,,,,,,,,,,,,,,,,
,,,,,,,,,6736ae15788d71c1c21d0398,Mexican,13 or older,"no, only English or Spanish",no,2025-07-23_16h38.45.918,empathy_intonation_perc,2024.2.4,Win32,16,6736ae15788d71c1c21d0398,687ed1b7e638a4cbf2f02089,68814826d4f34a767ce30480,,,,,,,,,,,,,31,1,,./stim/wavs/cuban_mismatch_interrogative-total-yn_El-nino-oye-el-rio.wav,,,,,,,,,,,,,,,,,,,,,,317.0493,319.1182,1,1,1.4314,,0,37,37,30,1,1,cuban,,,,,,,,,,,,,,,,,,,,,,,,,,,,,,,,,,,,,,,,,,,,,,,,,,,,,,,,
,,,,,,,,,6736ae15788d71c1c21d0398,Mexican,13 or older,"no, only English or Spanish",no,2025-07-23_16h38.45.918,empathy_intonation_perc,2024.2.4,Win32,16,6736ae15788d71c1c21d0398,687ed1b7e638a4cbf2f02089,68814826d4f34a767ce30480,,,,,,,,,,,,,71,0,,./stim/wavs/castilian_mismatch_declarative-broad-focus_La-nina-lava-el-plato.wav,,,,,,,,,,,,,,,,,,,,,,319.1184,322.0336,0,1,2.2867,,0,38,38,70,1,0,castilian,,,,,,,,,,,,,,,,,,,,,,,,,,,,,,,,,,,,,,,,,,,,,,,,,,,,,,,,
,,,,,,,,,6736ae15788d71c1c21d0398,Mexican,13 or older,"no, only English or Spanish",no,2025-07-23_16h38.45.918,empathy_intonation_perc,2024.2.4,Win32,16,6736ae15788d71c1c21d0398,687ed1b7e638a4cbf2f02089,68814826d4f34a767ce30480,,,,,,,,,,,,,13,1,,./stim/wavs/mexican_match_interrogative-total-yn_Ana-lleva-el-abrigo.wav,,,,,,,,,,,,,,,,,,,,,,322.0339,324.2047,1,1,1.5497,,0,39,39,12,1,0,mexican,,,,,,,,,,,,,,,,,,,,,,,,,,,,,,,,,,,,,,,,,,,,,,,,,,,,,,,,
,,,,,,,,,6736ae15788d71c1c21d0398,Mexican,13 or older,"no, only English or Spanish",no,2025-07-23_16h38.45.918,empathy_intonation_perc,2024.2.4,Win32,16,6736ae15788d71c1c21d0398,687ed1b7e638a4cbf2f02089,68814826d4f34a767ce30480,,,,,,,,,,,,,63,0,,./stim/wavs/puertorican_match_declarative-broad-focus_Ana-lleva-el-abrigo.wav,,,,,,,,,,,,,,,,,,,,,,324.2049,326.559,0,1,1.7307,,0,40,40,62,1,0,puertorican,,,,,,,,,,,,,,,,,,,,,,,,,,,,,,,,,,,,,,,,,,,,,,,,,,,,,,,,
,,,,,,,,,6736ae15788d71c1c21d0398,Mexican,13 or older,"no, only English or Spanish",no,2025-07-23_16h38.45.918,empathy_intonation_perc,2024.2.4,Win32,16,6736ae15788d71c1c21d0398,687ed1b7e638a4cbf2f02089,68814826d4f34a767ce30480,,,,,,,,,,,,,62,0,,./stim/wavs/mexican_match_declarative-broad-focus_Marta-abre-el-regalo.wav,,,,,,,,,,,,,,,,,,,,,,326.5593,328.7506,0,1,1.5576,,0,41,41,61,1,0,mexican,,,,,,,,,,,,,,,,,,,,,,,,,,,,,,,,,,,,,,,,,,,,,,,,,,,,,,,,
,,,,,,,,,6736ae15788d71c1c21d0398,Mexican,13 or older,"no, only English or Spanish",no,2025-07-23_16h38.45.918,empathy_intonation_perc,2024.2.4,Win32,16,6736ae15788d71c1c21d0398,687ed1b7e638a4cbf2f02089,68814826d4f34a767ce30480,,,,,,,,,,,,,17,1,,./stim/wavs/mexican_match_interrogative-total-yn_Mariano-habla-del-tiempo.wav,,,,,,,,,,,,,,,,,,,,,,328.7509,331.2191,0,0,1.8471,,0,42,42,16,1,0,mexican,,,,,,,,,,,,,,,,,,,,,,,,,,,,,,,,,,,,,,,,,,,,,,,,,,,,,,,,
,,,,,,,,,6736ae15788d71c1c21d0398,Mexican,13 or older,"no, only English or Spanish",no,2025-07-23_16h38.45.918,empathy_intonation_perc,2024.2.4,Win32,16,6736ae15788d71c1c21d0398,687ed1b7e638a4cbf2f02089,68814826d4f34a767ce30480,,,,,,,,,,,,,3,1,,./stim/wavs/castilian_match_interrogative-total-yn_Manuela-vende-el-carro.wav,,,,,,,,,,,,,,,,,,,,,,331.2193,333.5715,1,1,1.7266,,0,43,43,2,1,0,castilian,,,,,,,,,,,,,,,,,,,,,,,,,,,,,,,,,,,,,,,,,,,,,,,,,,,,,,,,
,,,,,,,,,6736ae15788d71c1c21d0398,Mexican,13 or older,"no, only English or Spanish",no,2025-07-23_16h38.45.918,empathy_intonation_perc,2024.2.4,Win32,16,6736ae15788d71c1c21d0398,687ed1b7e638a4cbf2f02089,68814826d4f34a767ce30480,,,,,,,,,,,,,8,1,,./stim/wavs/cuban_match_interrogative-total-yn_Daniel-iba-a-Bolivia.wav,,,,,,,,,,,,,,,,,,,,,,333.5718,335.853,0,0,1.6365,,0,44,44,7,1,1,cuban,,,,,,,,,,,,,,,,,,,,,,,,,,,,,,,,,,,,,,,,,,,,,,,,,,,,,,,,
,,,,,,,,,6736ae15788d71c1c21d0398,Mexican,13 or older,"no, only English or Spanish",no,2025-07-23_16h38.45.918,empathy_intonation_perc,2024.2.4,Win32,16,6736ae15788d71c1c21d0398,687ed1b7e638a4cbf2f02089,68814826d4f34a767ce30480,,,,,,,,,,,,,50,0,,./stim/wavs/castilian_match_declarative-broad-focus_Marta-abre-el-regalo.wav,,,,,,,,,,,,,,,,,,,,,,335.8532,338.2789,0,1,1.8008,,0,45,45,49,1,0,castilian,,,,,,,,,,,,,,,,,,,,,,,,,,,,,,,,,,,,,,,,,,,,,,,,,,,,,,,,
,,,,,,,,,6736ae15788d71c1c21d0398,Mexican,13 or older,"no, only English or Spanish",no,2025-07-23_16h38.45.918,empathy_intonation_perc,2024.2.4,Win32,16,6736ae15788d71c1c21d0398,687ed1b7e638a4cbf2f02089,68814826d4f34a767ce30480,,,,,,,,,,,,,86,0,,./stim/wavs/puertorican_mismatch_declarative-broad-focus_El-nino-oye-el-rio.wav,,,,,,,,,,,,,,,,,,,,,,338.279,340.532,0,1,1.6237,,0,46,46,85,1,0,puertorican,,,,,,,,,,,,,,,,,,,,,,,,,,,,,,,,,,,,,,,,,,,,,,,,,,,,,,,,
,,,,,,,,,6736ae15788d71c1c21d0398,Mexican,13 or older,"no, only English or Spanish",no,2025-07-23_16h38.45.918,empathy_intonation_perc,2024.2.4,Win32,16,6736ae15788d71c1c21d0398,687ed1b7e638a4cbf2f02089,68814826d4f34a767ce30480,,,,,,,,,,,,,76,0,,./stim/wavs/cuban_mismatch_declarative-broad-focus_La-nina-lava-el-plato.wav,,,,,,,,,,,,,,,,,,,,,,340.5322,342.869,0,1,1.7149,,0,47,47,75,1,0,cuban,,,,,,,,,,,,,,,,,,,,,,,,,,,,,,,,,,,,,,,,,,,,,,,,,,,,,,,,
,,,,,,,,,6736ae15788d71c1c21d0398,Mexican,13 or older,"no, only English or Spanish",no,2025-07-23_16h38.45.918,empathy_intonation_perc,2024.2.4,Win32,16,6736ae15788d71c1c21d0398,687ed1b7e638a4cbf2f02089,68814826d4f34a767ce30480,,,,,,,,,,,,,22,1,,./stim/wavs/puertorican_match_interrogative-total-yn_Emilio-ama-la-marcha.wav,,,,,,,,,,,,,,,,,,,,,,342.8693,345.3462,0,0,1.8453,,0,48,48,21,1,1,puertorican,,,,,,,,,,,,,,,,,,,,,,,,,,,,,,,,,,,,,,,,,,,,,,,,,,,,,,,,
,,,,,,,,,6736ae15788d71c1c21d0398,Mexican,13 or older,"no, only English or Spanish",no,2025-07-23_16h38.45.918,empathy_intonation_perc,2024.2.4,Win32,16,6736ae15788d71c1c21d0398,687ed1b7e638a4cbf2f02089,68814826d4f34a767ce30480,,,,,,,,,,,,,32,1,,./stim/wavs/cuban_mismatch_interrogative-total-yn_Mi-madre-come-la-fruta.wav,,,,,,,,,,,,,,,,,,,,,,345.3465,347.8362,0,0,1.9198,,0,49,49,31,1,1,cuban,,,,,,,,,,,,,,,,,,,,,,,,,,,,,,,,,,,,,,,,,,,,,,,,,,,,,,,,
,,,,,,,,,6736ae15788d71c1c21d0398,Mexican,13 or older,"no, only English or Spanish",no,2025-07-23_16h38.45.918,empathy_intonation_perc,2024.2.4,Win32,16,6736ae15788d71c1c21d0398,687ed1b7e638a4cbf2f02089,68814826d4f34a767ce30480,,,,,,,,,,,,,47,0,,./stim/wavs/castilian_match_declarative-broad-focus_Manuela-vende-el-carro.wav,,,,,,,,,,,,,,,,,,,,,,347.8366,350.254,0,1,1.8527,,0,50,50,46,1,0,castilian,,,,,,,,,,,,,,,,,,,,,,,,,,,,,,,,,,,,,,,,,,,,,,,,,,,,,,,,
,,,,,,,,,6736ae15788d71c1c21d0398,Mexican,13 or older,"no, only English or Spanish",no,2025-07-23_16h38.45.918,empathy_intonation_perc,2024.2.4,Win32,16,6736ae15788d71c1c21d0398,687ed1b7e638a4cbf2f02089,68814826d4f34a767ce30480,,,,,,,,,,,,,12,1,,./stim/wavs/cuban_match_interrogative-total-yn_Marta-abre-el-regalo.wav,,,,,,,,,,,,,,,,,,,,,,350.2542,352.5008,0,0,1.6167,,0,51,51,11,1,1,cuban,,,,,,,,,,,,,,,,,,,,,,,,,,,,,,,,,,,,,,,,,,,,,,,,,,,,,,,,
,,,,,,,,,6736ae15788d71c1c21d0398,Mexican,13 or older,"no, only English or Spanish",no,2025-07-23_16h38.45.918,empathy_intonation_perc,2024.2.4,Win32,16,6736ae15788d71c1c21d0398,687ed1b7e638a4cbf2f02089,68814826d4f34a767ce30480,,,,,,,,,,,,,87,0,,./stim/wavs/puertorican_mismatch_declarative-broad-focus_La-maestra-vive-en-Paris.wav,,,,,,,,,,,,,,,,,,,,,,352.501,354.9046,0,1,1.7796,,0,52,52,86,1,0,puertorican,,,,,,,,,,,,,,,,,,,,,,,,,,,,,,,,,,,,,,,,,,,,,,,,,,,,,,,,
,,,,,,,,,6736ae15788d71c1c21d0398,Mexican,13 or older,"no, only English or Spanish",no,2025-07-23_16h38.45.918,empathy_intonation_perc,2024.2.4,Win32,16,6736ae15788d71c1c21d0398,687ed1b7e638a4cbf2f02089,68814826d4f34a767ce30480,,,,,,,,,,,,,35,1,,./stim/wavs/mexican_mismatch_interrogative-total-yn_El-hombre-mira-la-luna.wav,,,,,,,,,,,,,,,,,,,,,,354.9048,357.0589,1,1,1.5329,,0,53,53,34,1,0,mexican,,,,,,,,,,,,,,,,,,,,,,,,,,,,,,,,,,,,,,,,,,,,,,,,,,,,,,,,
,,,,,,,,,6736ae15788d71c1c21d0398,Mexican,13 or older,"no, only English or Spanish",no,2025-07-23_16h38.45.918,empathy_intonation_perc,2024.2.4,Win32,16,6736ae15788d71c1c21d0398,687ed1b7e638a4cbf2f02089,68814826d4f34a767ce30480,,,,,,,,,,,,,21,1,,./stim/wavs/puertorican_match_interrogative-total-yn_David-leia-el-libro.wav,,,,,,,,,,,,,,,,,,,,,,357.0592,359.1787,0,0,1.5529,,0,54,54,20,1,1,puertorican,,,,,,,,,,,,,,,,,,,,,,,,,,,,,,,,,,,,,,,,,,,,,,,,,,,,,,,,
,,,,,,,,,6736ae15788d71c1c21d0398,Mexican,13 or older,"no, only English or Spanish",no,2025-07-23_16h38.45.918,empathy_intonation_perc,2024.2.4,Win32,16,6736ae15788d71c1c21d0398,687ed1b7e638a4cbf2f02089,68814826d4f34a767ce30480,,,,,,,,,,,,,74,0,,./stim/wavs/cuban_mismatch_declarative-broad-focus_El-bebe-comia-muy-bien.wav,,,,,,,,,,,,,,,,,,,,,,359.1788,361.5132,0,1,1.6925,,0,55,55,73,1,0,cuban,,,,,,,,,,,,,,,,,,,,,,,,,,,,,,,,,,,,,,,,,,,,,,,,,,,,,,,,
,,,,,,,,,6736ae15788d71c1c21d0398,Mexican,13 or older,"no, only English or Spanish",no,2025-07-23_16h38.45.918,empathy_intonation_perc,2024.2.4,Win32,16,6736ae15788d71c1c21d0398,687ed1b7e638a4cbf2f02089,68814826d4f34a767ce30480,,,,,,,,,,,,,2,1,,./stim/wavs/castilian_match_interrogative-total-yn_Emilio-ama-la-marcha.wav,,,,,,,,,,,,,,,,,,,,,,361.5134,364.0718,1,1,1.929,,0,56,56,1,1,0,castilian,,,,,,,,,,,,,,,,,,,,,,,,,,,,,,,,,,,,,,,,,,,,,,,,,,,,,,,,
,,,,,,,,,6736ae15788d71c1c21d0398,Mexican,13 or older,"no, only English or Spanish",no,2025-07-23_16h38.45.918,empathy_intonation_perc,2024.2.4,Win32,16,6736ae15788d71c1c21d0398,687ed1b7e638a4cbf2f02089,68814826d4f34a767ce30480,,,,,,,,,,,,,75,0,,./stim/wavs/cuban_mismatch_declarative-broad-focus_El-hombre-mira-la-luna.wav,,,,,,,,,,,,,,,,,,,,,,364.0721,366.4191,0,1,1.7158,,0,57,57,74,1,0,cuban,,,,,,,,,,,,,,,,,,,,,,,,,,,,,,,,,,,,,,,,,,,,,,,,,,,,,,,,
,,,,,,,,,6736ae15788d71c1c21d0398,Mexican,13 or older,"no, only English or Spanish",no,2025-07-23_16h38.45.918,empathy_intonation_perc,2024.2.4,Win32,16,6736ae15788d71c1c21d0398,687ed1b7e638a4cbf2f02089,68814826d4f34a767ce30480,,,,,,,,,,,,,15,1,,./stim/wavs/mexican_match_interrogative-total-yn_David-leia-el-libro.wav,,,,,,,,,,,,,,,,,,,,,,366.4194,368.8909,1,1,1.8295,,0,58,58,14,1,0,mexican,,,,,,,,,,,,,,,,,,,,,,,,,,,,,,,,,,,,,,,,,,,,,,,,,,,,,,,,
,,,,,,,,,6736ae15788d71c1c21d0398,Mexican,13 or older,"no, only English or Spanish",no,2025-07-23_16h38.45.918,empathy_intonation_perc,2024.2.4,Win32,16,6736ae15788d71c1c21d0398,687ed1b7e638a4cbf2f02089,68814826d4f34a767ce30480,,,,,,,,,,,,,40,1,,./stim/wavs/puertorican_mismatch_interrogative-total-yn_El-hombre-mira-la-luna.wav,,,,,,,,,,,,,,,,,,,,,,368.8911,371.2294,0,0,1.7166,,0,59,59,39,1,1,puertorican,,,,,,,,,,,,,,,,,,,,,,,,,,,,,,,,,,,,,,,,,,,,,,,,,,,,,,,,
,,,,,,,,,6736ae15788d71c1c21d0398,Mexican,13 or older,"no, only English or Spanish",no,2025-07-23_16h38.45.918,empathy_intonation_perc,2024.2.4,Win32,16,6736ae15788d71c1c21d0398,687ed1b7e638a4cbf2f02089,68814826d4f34a767ce30480,,,,,,,,,,,,,65,0,,./stim/wavs/puertorican_match_declarative-broad-focus_David-leia-el-libro.wav,,,,,,,,,,,,,,,,,,,,,,371.2297,373.7872,0,1,1.9362,,0,60,60,64,1,0,puertorican,,,,,,,,,,,,,,,,,,,,,,,,,,,,,,,,,,,,,,,,,,,,,,,,,,,,,,,,
,,,,,,,,,6736ae15788d71c1c21d0398,Mexican,13 or older,"no, only English or Spanish",no,2025-07-23_16h38.45.918,empathy_intonation_perc,2024.2.4,Win32,16,6736ae15788d71c1c21d0398,687ed1b7e638a4cbf2f02089,68814826d4f34a767ce30480,,,,,,,,,,,,,5,1,,./stim/wavs/castilian_match_interrogative-total-yn_Mariano-habla-del-tiempo.wav,,,,,,,,,,,,,,,,,,,,,,373.7875,376.1201,1,1,1.7034,,0,61,61,4,1,0,castilian,,,,,,,,,,,,,,,,,,,,,,,,,,,,,,,,,,,,,,,,,,,,,,,,,,,,,,,,
,,,,,,,,,6736ae15788d71c1c21d0398,Mexican,13 or older,"no, only English or Spanish",no,2025-07-23_16h38.45.918,empathy_intonation_perc,2024.2.4,Win32,16,6736ae15788d71c1c21d0398,687ed1b7e638a4cbf2f02089,68814826d4f34a767ce30480,,,,,,,,,,,,,28,1,,./stim/wavs/castilian_mismatch_interrogative-total-yn_Mi-novio-viene-del-lago.wav,,,,,,,,,,,,,,,,,,,,,,376.1203,378.5984,1,1,1.8562,,0,62,62,27,1,0,castilian,,,,,,,,,,,,,,,,,,,,,,,,,,,,,,,,,,,,,,,,,,,,,,,,,,,,,,,,
,,,,,,,,,6736ae15788d71c1c21d0398,Mexican,13 or older,"no, only English or Spanish",no,2025-07-23_16h38.45.918,empathy_intonation_perc,2024.2.4,Win32,16,6736ae15788d71c1c21d0398,687ed1b7e638a4cbf2f02089,68814826d4f34a767ce30480,,,,,,,,,,,,,39,1,,./stim/wavs/mexican_mismatch_interrogative-total-yn_Mi-tia-odia-la-lluvia.wav,,,,,,,,,,,,,,,,,,,,,,378.5986,380.698,1,1,1.4794,,0,63,63,38,1,0,mexican,,,,,,,,,,,,,,,,,,,,,,,,,,,,,,,,,,,,,,,,,,,,,,,,,,,,,,,,
,,,,,,,,,6736ae15788d71c1c21d0398,Mexican,13 or older,"no, only English or Spanish",no,2025-07-23_16h38.45.918,empathy_intonation_perc,2024.2.4,Win32,16,6736ae15788d71c1c21d0398,687ed1b7e638a4cbf2f02089,68814826d4f34a767ce30480,,,,,,,,,,,,,48,0,,./stim/wavs/castilian_match_declarative-broad-focus_Maria-bebe-el-vino.wav,,,,,,,,,,,,,,,,,,,,,,380.6983,383.1104,0,1,1.7924,,0,64,64,47,1,0,castilian,,,,,,,,,,,,,,,,,,,,,,,,,,,,,,,,,,,,,,,,,,,,,,,,,,,,,,,,
,,,,,,,,,6736ae15788d71c1c21d0398,Mexican,13 or older,"no, only English or Spanish",no,2025-07-23_16h38.45.918,empathy_intonation_perc,2024.2.4,Win32,16,6736ae15788d71c1c21d0398,687ed1b7e638a4cbf2f02089,68814826d4f34a767ce30480,,,,,,,,,,,,,59,0,,./stim/wavs/mexican_match_declarative-broad-focus_David-leia-el-libro.wav,,,,,,,,,,,,,,,,,,,,,,383.1106,385.4401,0,1,1.7046,,0,65,65,58,1,0,mexican,,,,,,,,,,,,,,,,,,,,,,,,,,,,,,,,,,,,,,,,,,,,,,,,,,,,,,,,
,,,,,,,,,6736ae15788d71c1c21d0398,Mexican,13 or older,"no, only English or Spanish",no,2025-07-23_16h38.45.918,empathy_intonation_perc,2024.2.4,Win32,16,6736ae15788d71c1c21d0398,687ed1b7e638a4cbf2f02089,68814826d4f34a767ce30480,,,,,,,,,,,,,84,0,,./stim/wavs/puertorican_mismatch_declarative-broad-focus_El-bebe-comia-muy-bien.wav,,,,,,,,,,,,,,,,,,,,,,385.4404,387.7139,0,1,1.6422,,0,66,66,83,1,0,puertorican,,,,,,,,,,,,,,,,,,,,,,,,,,,,,,,,,,,,,,,,,,,,,,,,,,,,,,,,
,,,,,,,,,6736ae15788d71c1c21d0398,Mexican,13 or older,"no, only English or Spanish",no,2025-07-23_16h38.45.918,empathy_intonation_perc,2024.2.4,Win32,16,6736ae15788d71c1c21d0398,687ed1b7e638a4cbf2f02089,68814826d4f34a767ce30480,,,,,,,,,,,,,64,0,,./stim/wavs/puertorican_match_declarative-broad-focus_Daniel-iba-a-Bolivia.wav,,,,,,,,,,,,,,,,,,,,,,387.7142,389.9039,0,1,1.5676,0.0002,0,67,67,63,1,0,puertorican,,,,,,,,,,,,,,,,,,,,,,,,,,,,,,,,,,,,,,,,,,,,,,,,,,,,,,,,
,,,,,,,,,6736ae15788d71c1c21d0398,Mexican,13 or older,"no, only English or Spanish",no,2025-07-23_16h38.45.918,empathy_intonation_perc,2024.2.4,Win32,16,6736ae15788d71c1c21d0398,687ed1b7e638a4cbf2f02089,68814826d4f34a767ce30480,,,,,,,,,,,,,33,1,,./stim/wavs/cuban_mismatch_interrogative-total-yn_Mi-novio-viene-del-lago.wav,,,,,,,,,,,,,,,,,,,,,,389.904,391.9533,0,0,1.4283,,0,68,68,32,1,1,cuban,,,,,,,,,,,,,,,,,,,,,,,,,,,,,,,,,,,,,,,,,,,,,,,,,,,,,,,,
,,,,,,,,,6736ae15788d71c1c21d0398,Mexican,13 or older,"no, only English or Spanish",no,2025-07-23_16h38.45.918,empathy_intonation_perc,2024.2.4,Win32,16,6736ae15788d71c1c21d0398,687ed1b7e638a4cbf2f02089,68814826d4f34a767ce30480,,,,,,,,,,,,,9,1,,./stim/wavs/cuban_match_interrogative-total-yn_Manuela-vende-el-carro.wav,,,,,,,,,,,,,,,,,,,,,,391.9535,393.9918,0,0,1.4159,,0,69,69,8,1,1,cuban,,,,,,,,,,,,,,,,,,,,,,,,,,,,,,,,,,,,,,,,,,,,,,,,,,,,,,,,
,,,,,,,,,6736ae15788d71c1c21d0398,Mexican,13 or older,"no, only English or Spanish",no,2025-07-23_16h38.45.918,empathy_intonation_perc,2024.2.4,Win32,16,6736ae15788d71c1c21d0398,687ed1b7e638a4cbf2f02089,68814826d4f34a767ce30480,,,,,,,,,,,,,80,0,,./stim/wavs/mexican_mismatch_declarative-broad-focus_El-hombre-mira-la-luna.wav,,,,,,,,,,,,,,,,,,,,,,393.992,396.1202,0,1,1.4937,,0,70,70,79,1,0,mexican,,,,,,,,,,,,,,,,,,,,,,,,,,,,,,,,,,,,,,,,,,,,,,,,,,,,,,,,
,,,,,,,,,6736ae15788d71c1c21d0398,Mexican,13 or older,"no, only English or Spanish",no,2025-07-23_16h38.45.918,empathy_intonation_perc,2024.2.4,Win32,16,6736ae15788d71c1c21d0398,687ed1b7e638a4cbf2f02089,68814826d4f34a767ce30480,,,,,,,,,,,,,42,1,,./stim/wavs/puertorican_mismatch_interrogative-total-yn_La-maestra-vive-en-Paris.wav,,,,,,,,,,,,,,,,,,,,,,396.1204,398.6037,0,0,1.8442,0.0002,0,71,71,41,1,1,puertorican,,,,,,,,,,,,,,,,,,,,,,,,,,,,,,,,,,,,,,,,,,,,,,,,,,,,,,,,
,,,,,,,,,6736ae15788d71c1c21d0398,Mexican,13 or older,"no, only English or Spanish",no,2025-07-23_16h38.45.918,empathy_intonation_perc,2024.2.4,Win32,16,6736ae15788d71c1c21d0398,687ed1b7e638a4cbf2f02089,68814826d4f34a767ce30480,,,,,,,,,,,,,27,1,,./stim/wavs/castilian_mismatch_interrogative-total-yn_Mi-madre-come-la-fruta.wav,,,,,,,,,,,,,,,,,,,,,,398.604,401.2183,1,1,1.9889,,0,72,72,26,1,0,castilian,,,,,,,,,,,,,,,,,,,,,,,,,,,,,,,,,,,,,,,,,,,,,,,,,,,,,,,,
,,,,,,,,,6736ae15788d71c1c21d0398,Mexican,13 or older,"no, only English or Spanish",no,2025-07-23_16h38.45.918,empathy_intonation_perc,2024.2.4,Win32,16,6736ae15788d71c1c21d0398,687ed1b7e638a4cbf2f02089,68814826d4f34a767ce30480,,,,,,,,,,,,,66,0,,./stim/wavs/puertorican_match_declarative-broad-focus_Emilio-ama-la-marcha.wav,,,,,,,,,,,,,,,,,,,,,,401.2185,403.5069,0,1,1.6454,,0,73,73,65,1,0,puertorican,,,,,,,,,,,,,,,,,,,,,,,,,,,,,,,,,,,,,,,,,,,,,,,,,,,,,,,,
,,,,,,,,,6736ae15788d71c1c21d0398,Mexican,13 or older,"no, only English or Spanish",no,2025-07-23_16h38.45.918,empathy_intonation_perc,2024.2.4,Win32,16,6736ae15788d71c1c21d0398,687ed1b7e638a4cbf2f02089,68814826d4f34a767ce30480,,,,,,,,,,,,,23,1,,./stim/wavs/puertorican_match_interrogative-total-yn_Manuela-vende-el-carro.wav,,,,,,,,,,,,,,,,,,,,,,403.5071,406.1291,0,0,1.9897,,0,74,74,22,1,1,puertorican,,,,,,,,,,,,,,,,,,,,,,,,,,,,,,,,,,,,,,,,,,,,,,,,,,,,,,,,
,,,,,,,,,6736ae15788d71c1c21d0398,Mexican,13 or older,"no, only English or Spanish",no,2025-07-23_16h38.45.918,empathy_intonation_perc,2024.2.4,Win32,16,6736ae15788d71c1c21d0398,687ed1b7e638a4cbf2f02089,68814826d4f34a767ce30480,,,,,,,,,,,,,20,1,,./stim/wavs/puertorican_match_interrogative-total-yn_Daniel-iba-a-Bolivia.wav,,,,,,,,,,,,,,,,,,,,,,406.1294,408.3735,0,0,1.606,,0,75,75,19,1,1,puertorican,,,,,,,,,,,,,,,,,,,,,,,,,,,,,,,,,,,,,,,,,,,,,,,,,,,,,,,,
,,,,,,,,,6736ae15788d71c1c21d0398,Mexican,13 or older,"no, only English or Spanish",no,2025-07-23_16h38.45.918,empathy_intonation_perc,2024.2.4,Win32,16,6736ae15788d71c1c21d0398,687ed1b7e638a4cbf2f02089,68814826d4f34a767ce30480,,,,,,,,,,,,,61,0,,./stim/wavs/mexican_match_declarative-broad-focus_Mariano-habla-del-tiempo.wav,,,,,,,,,,,,,,,,,,,,,,408.3738,410.6658,0,1,1.6623,,0,76,76,60,1,0,mexican,,,,,,,,,,,,,,,,,,,,,,,,,,,,,,,,,,,,,,,,,,,,,,,,,,,,,,,,
,,,,,,,,,6736ae15788d71c1c21d0398,Mexican,13 or older,"no, only English or Spanish",no,2025-07-23_16h38.45.918,empathy_intonation_perc,2024.2.4,Win32,16,6736ae15788d71c1c21d0398,687ed1b7e638a4cbf2f02089,68814826d4f34a767ce30480,,,,,,,,,,,,,24,1,,./stim/wavs/puertorican_match_interrogative-total-yn_Maria-bebe-el-vino.wav,,,,,,,,,,,,,,,,,,,,,,410.6661,412.7276,0,0,1.4323,,0,77,77,23,1,1,puertorican,,,,,,,,,,,,,,,,,,,,,,,,,,,,,,,,,,,,,,,,,,,,,,,,,,,,,,,,
,,,,,,,,,6736ae15788d71c1c21d0398,Mexican,13 or older,"no, only English or Spanish",no,2025-07-23_16h38.45.918,empathy_intonation_perc,2024.2.4,Win32,16,6736ae15788d71c1c21d0398,687ed1b7e638a4cbf2f02089,68814826d4f34a767ce30480,,,,,,,,,,,,,7,1,,./stim/wavs/cuban_match_interrogative-total-yn_Ana-lleva-el-abrigo.wav,,,,,,,,,,,,,,,,,,,,,,412.7279,414.7291,0,0,1.3697,,0,78,78,6,1,1,cuban,,,,,,,,,,,,,,,,,,,,,,,,,,,,,,,,,,,,,,,,,,,,,,,,,,,,,,,,
,,,,,,,,,6736ae15788d71c1c21d0398,Mexican,13 or older,"no, only English or Spanish",no,2025-07-23_16h38.45.918,empathy_intonation_perc,2024.2.4,Win32,16,6736ae15788d71c1c21d0398,687ed1b7e638a4cbf2f02089,68814826d4f34a767ce30480,,,,,,,,,,,,,34,1,,./stim/wavs/cuban_mismatch_interrogative-total-yn_Mi-tia-odia-la-lluvia.wav,,,,,,,,,,,,,,,,,,,,,,414.7293,416.9385,0,0,1.5871,,0,79,79,33,1,1,cuban,,,,,,,,,,,,,,,,,,,,,,,,,,,,,,,,,,,,,,,,,,,,,,,,,,,,,,,,
,,,,,,,,,6736ae15788d71c1c21d0398,Mexican,13 or older,"no, only English or Spanish",no,2025-07-23_16h38.45.918,empathy_intonation_perc,2024.2.4,Win32,16,6736ae15788d71c1c21d0398,687ed1b7e638a4cbf2f02089,68814826d4f34a767ce30480,,,,,,,,,,,,,44,1,,./stim/wavs/puertorican_mismatch_interrogative-total-yn_Mi-madre-come-la-fruta.wav,,,,,,,,,,,,,,,,,,,,,,416.9387,419.2407,0,0,1.6773,0,0,80,80,43,1,1,puertorican,,,,,,,,,,,,,,,,,,,,,,,,,,,,,,,,,,,,,,,,,,,,,,,,,,,,,,,,
,,,,,,,,,6736ae15788d71c1c21d0398,Mexican,13 or older,"no, only English or Spanish",no,2025-07-23_16h38.45.918,empathy_intonation_perc,2024.2.4,Win32,16,6736ae15788d71c1c21d0398,687ed1b7e638a4cbf2f02089,68814826d4f34a767ce30480,,,,,,,,,,,,,78,0,,./stim/wavs/cuban_mismatch_declarative-broad-focus_Mi-tia-odia-la-lluvia.wav,,,,,,,,,,,,,,,,,,,,,,419.2409,421.6323,0,1,1.7671,,0,81,81,77,1,0,cuban,,,,,,,,,,,,,,,,,,,,,,,,,,,,,,,,,,,,,,,,,,,,,,,,,,,,,,,,
,,,,,,,,,6736ae15788d71c1c21d0398,Mexican,13 or older,"no, only English or Spanish",no,2025-07-23_16h38.45.918,empathy_intonation_perc,2024.2.4,Win32,16,6736ae15788d71c1c21d0398,687ed1b7e638a4cbf2f02089,68814826d4f34a767ce30480,,,,,,,,,,,,,56,0,,./stim/wavs/cuban_match_declarative-broad-focus_Marta-abre-el-regalo.wav,,,,,,,,,,,,,,,,,,,,,,421.6325,423.8294,0,1,1.5668,,0,82,82,55,1,0,cuban,,,,,,,,,,,,,,,,,,,,,,,,,,,,,,,,,,,,,,,,,,,,,,,,,,,,,,,,
,,,,,,,,,6736ae15788d71c1c21d0398,Mexican,13 or older,"no, only English or Spanish",no,2025-07-23_16h38.45.918,empathy_intonation_perc,2024.2.4,Win32,16,6736ae15788d71c1c21d0398,687ed1b7e638a4cbf2f02089,68814826d4f34a767ce30480,,,,,,,,,,,,,18,1,,./stim/wavs/mexican_match_interrogative-total-yn_Marta-abre-el-regalo.wav,,,,,,,,,,,,,,,,,,,,,,423.8297,425.836,1,1,1.4327,,0,83,83,17,1,0,mexican,,,,,,,,,,,,,,,,,,,,,,,,,,,,,,,,,,,,,,,,,,,,,,,,,,,,,,,,
,,,,,,,,,6736ae15788d71c1c21d0398,Mexican,13 or older,"no, only English or Spanish",no,2025-07-23_16h38.45.918,empathy_intonation_perc,2024.2.4,Win32,16,6736ae15788d71c1c21d0398,687ed1b7e638a4cbf2f02089,68814826d4f34a767ce30480,,,,,,,,,,,,,73,0,,./stim/wavs/castilian_mismatch_declarative-broad-focus_Mi-tia-odia-la-lluvia.wav,,,,,,,,,,,,,,,,,,,,,,425.8363,428.0473,1,0,1.5807,,0,84,84,72,1,0,castilian,,,,,,,,,,,,,,,,,,,,,,,,,,,,,,,,,,,,,,,,,,,,,,,,,,,,,,,,
,,,,,,,,,6736ae15788d71c1c21d0398,Mexican,13 or older,"no, only English or Spanish",no,2025-07-23_16h38.45.918,empathy_intonation_perc,2024.2.4,Win32,16,6736ae15788d71c1c21d0398,687ed1b7e638a4cbf2f02089,68814826d4f34a767ce30480,,,,,,,,,,,,,30,1,,./stim/wavs/cuban_mismatch_interrogative-total-yn_El-hombre-mira-la-luna.wav,,,,,,,,,,,,,,,,,,,,,,428.0475,430.1755,0,0,1.5051,,0,85,85,29,1,1,cuban,,,,,,,,,,,,,,,,,,,,,,,,,,,,,,,,,,,,,,,,,,,,,,,,,,,,,,,,
,,,,,,,,,6736ae15788d71c1c21d0398,Mexican,13 or older,"no, only English or Spanish",no,2025-07-23_16h38.45.918,empathy_intonation_perc,2024.2.4,Win32,16,6736ae15788d71c1c21d0398,687ed1b7e638a4cbf2f02089,68814826d4f34a767ce30480,,,,,,,,,,,,,46,0,,./stim/wavs/castilian_match_declarative-broad-focus_Emilio-ama-la-marcha.wav,,,,,,,,,,,,,,,,,,,,,,430.1757,432.361,0,1,1.5515,,0,86,86,45,1,0,castilian,,,,,,,,,,,,,,,,,,,,,,,,,,,,,,,,,,,,,,,,,,,,,,,,,,,,,,,,
,,,,,,,,,6736ae15788d71c1c21d0398,Mexican,13 or older,"no, only English or Spanish",no,2025-07-23_16h38.45.918,empathy_intonation_perc,2024.2.4,Win32,16,6736ae15788d71c1c21d0398,687ed1b7e638a4cbf2f02089,68814826d4f34a767ce30480,,,,,,,,,,,,,88,0,,./stim/wavs/puertorican_mismatch_declarative-broad-focus_La-nina-lava-el-plato.wav,,,,,,,,,,,,,,,,,,,,,,432.3612,434.5778,0,1,1.5824,,0,87,87,87,1,0,puertorican,,,,,,,,,,,,,,,,,,,,,,,,,,,,,,,,,,,,,,,,,,,,,,,,,,,,,,,,
,,,,,,,"Great! Now we will move on. The next task consists of about 60 trials, in each of which you will see a string of letters. 
  
  Your task is to decide whether this is a real Spanish word or not.", (press the spacebar to continue),6736ae15788d71c1c21d0398,Mexican,13 or older,"no, only English or Spanish",no,2025-07-23_16h38.45.918,empathy_intonation_perc,2024.2.4,Win32,16,6736ae15788d71c1c21d0398,687ed1b7e638a4cbf2f02089,68814826d4f34a767ce30480,,,,,,,,,,,,,,,,,,,,,,,,,,,,,,,,,,,,,,,,,,,,,,,,,,,434.5812,442.7531,0,0,0,0,1,,,,,,,,,,,,,,,,,,,,,,,,,,,,,,,,,,,,,,,,,,,,,,,,,
,,,,,,,"If you think it is an existing Spanish word, you type '1' (for 'REAL'), and if you think it is not an existing Spanish word, you type '0' (for 'FAKE').", (press the spacebar to continue),6736ae15788d71c1c21d0398,Mexican,13 or older,"no, only English or Spanish",no,2025-07-23_16h38.45.918,empathy_intonation_perc,2024.2.4,Win32,16,6736ae15788d71c1c21d0398,687ed1b7e638a4cbf2f02089,68814826d4f34a767ce30480,,,,,,,,,,,,,,,,,,,,,,,,,,,,,,,,,,,,,,,,,,,,,,,,,,,442.7542,443.0513,0,1,1,1,1,,,,,,,,,,,,,,,,,,,,,,,,,,,,,,,,,,,,,,,,,,,,,,,,,
,,,,,,,"If you are sure that the word exists, even though you don’t know its exact meaning, you may still respond '1' (REAL). 
  
  But if you are not sure if it is an existing word, you should respond '0' (FAKE).
  
  Let's do a practice round...", (press the spacebar to continue),6736ae15788d71c1c21d0398,Mexican,13 or older,"no, only English or Spanish",no,2025-07-23_16h38.45.918,empathy_intonation_perc,2024.2.4,Win32,16,6736ae15788d71c1c21d0398,687ed1b7e638a4cbf2f02089,68814826d4f34a767ce30480,,,,,,,,,,,,,,,,,,,,,,,,,,,,,,,,,,,,,,,,,,,,,,,,,,,443.0523,447.887,0,2,2,2,1,,,,,,,,,,,,,,,,,,,,,,,,,,,,,,,,,,,,,,,,,,,,,,,,,
,,,,,,,,,6736ae15788d71c1c21d0398,Mexican,13 or older,"no, only English or Spanish",no,2025-07-23_16h38.45.918,empathy_intonation_perc,2024.2.4,Win32,16,6736ae15788d71c1c21d0398,687ed1b7e638a4cbf2f02089,68814826d4f34a767ce30480,,,,,,,,,,,,,,0,,,,,,,,,,,,,,,,,,,,,,,,,,,,,,,,,,,,,,,,,,,,447.8894,450.6061,0,1,2.1431,,450.6062,451.5747,0,0,0,0,1,0,depiste,REAL,FAKE,,,,,,,,,,,,,,,,,,,,,,,,,,,,,,,,
,,,,,,,,,6736ae15788d71c1c21d0398,Mexican,13 or older,"no, only English or Spanish",no,2025-07-23_16h38.45.918,empathy_intonation_perc,2024.2.4,Win32,16,6736ae15788d71c1c21d0398,687ed1b7e638a4cbf2f02089,68814826d4f34a767ce30480,,,,,,,,,,,,,,1,,,,,,,,,,,,,,,,,,,,,,,,,,,,,,,,,,,,,,,,,,,,451.5753,452.9399,1,1,0.7998,,452.9399,453.9064,0,1,1,1,1,0,sí,REAL,FAKE,,,,,,,,,,,,,,,,,,,,,,,,,,,,,,,,
,,,,,,,,,6736ae15788d71c1c21d0398,Mexican,13 or older,"no, only English or Spanish",no,2025-07-23_16h38.45.918,empathy_intonation_perc,2024.2.4,Win32,16,6736ae15788d71c1c21d0398,687ed1b7e638a4cbf2f02089,68814826d4f34a767ce30480,,,,,,,,,,,,,,0,,,,,,,,,,,,,,,,,,,,,,,,,,,,,,,,,,,,,,,,,,,,453.907,455.3913,0,1,0.8583,,455.3913,456.3495,0,2,2,2,1,0,coné,REAL,FAKE,,,,,,,,,,,,,,,,,,,,,,,,,,,,,,,,
,,,,,,,,,6736ae15788d71c1c21d0398,Mexican,13 or older,"no, only English or Spanish",no,2025-07-23_16h38.45.918,empathy_intonation_perc,2024.2.4,Win32,16,6736ae15788d71c1c21d0398,687ed1b7e638a4cbf2f02089,68814826d4f34a767ce30480,,,,,,,,,,,,,,0,,,,,,,,,,,,,,,,,,,,,,,,,,,,,,,,,,,,,,,,,,,,456.3499,458.2166,1,0,1.2397,,458.2173,459.2107,0,3,3,3,1,0,calpar,REAL,FAKE,,,,,,,,,,,,,,,,,,,,,,,,,,,,,,,,
,,,,,,,,,6736ae15788d71c1c21d0398,Mexican,13 or older,"no, only English or Spanish",no,2025-07-23_16h38.45.918,empathy_intonation_perc,2024.2.4,Win32,16,6736ae15788d71c1c21d0398,687ed1b7e638a4cbf2f02089,68814826d4f34a767ce30480,,,,,,,,,,,,,,0,,,,,,,,,,,,,,,,,,,,,,,,,,,,,,,,,,,,,,,,,,,,459.2113,461.2502,0,1,1.4165,,461.2504,462.2148,0,4,4,4,1,0,joten,REAL,FAKE,,,,,,,,,,,,,,,,,,,,,,,,,,,,,,,,
,,,,,,,,,6736ae15788d71c1c21d0398,Mexican,13 or older,"no, only English or Spanish",no,2025-07-23_16h38.45.918,empathy_intonation_perc,2024.2.4,Win32,16,6736ae15788d71c1c21d0398,687ed1b7e638a4cbf2f02089,68814826d4f34a767ce30480,,,,,,,,,,,,,,1,,,,,,,,,,,,,,,,,,,,,,,,,,,,,,,,,,,,,,,,,,,,462.2152,463.6458,0,0,0.7986,,463.6461,464.6419,0,5,5,5,1,0,sacapuntas,REAL,FAKE,,,,,,,,,,,,,,,,,,,,,,,,,,,,,,,,
,,,,,,,,,6736ae15788d71c1c21d0398,Mexican,13 or older,"no, only English or Spanish",no,2025-07-23_16h38.45.918,empathy_intonation_perc,2024.2.4,Win32,16,6736ae15788d71c1c21d0398,687ed1b7e638a4cbf2f02089,68814826d4f34a767ce30480,,,,,,,,,,,,,,0,,,,,,,,,,,,,,,,,,,,,,,,,,,,,,,,,,,,,,,,,,,,464.6425,466.1101,1,0,0.8449,,466.1101,467.0881,0,6,6,6,1,0,priba,REAL,FAKE,,,,,,,,,,,,,,,,,,,,,,,,,,,,,,,,
,,,,,,,,,6736ae15788d71c1c21d0398,Mexican,13 or older,"no, only English or Spanish",no,2025-07-23_16h38.45.918,empathy_intonation_perc,2024.2.4,Win32,16,6736ae15788d71c1c21d0398,687ed1b7e638a4cbf2f02089,68814826d4f34a767ce30480,,,,,,,,,,,,,,0,,,,,,,,,,,,,,,,,,,,,,,,,,,,,,,,,,,,,,,,,,,,467.0885,468.7524,1,0,1.0374,,468.7524,469.7278,0,7,7,7,1,0,pelasula,REAL,FAKE,,,,,,,,,,,,,,,,,,,,,,,,,,,,,,,,
,,,,,,,,,6736ae15788d71c1c21d0398,Mexican,13 or older,"no, only English or Spanish",no,2025-07-23_16h38.45.918,empathy_intonation_perc,2024.2.4,Win32,16,6736ae15788d71c1c21d0398,687ed1b7e638a4cbf2f02089,68814826d4f34a767ce30480,,,,,,,,,,,,,,1,,,,,,,,,,,,,,,,,,,,,,,,,,,,,,,,,,,,,,,,,,,,469.7282,471.1181,1,1,0.7766,,471.1183,472.0738,0,8,8,8,1,0,bien,REAL,FAKE,,,,,,,,,,,,,,,,,,,,,,,,,,,,,,,,
,,,,,,,,,6736ae15788d71c1c21d0398,Mexican,13 or older,"no, only English or Spanish",no,2025-07-23_16h38.45.918,empathy_intonation_perc,2024.2.4,Win32,16,6736ae15788d71c1c21d0398,687ed1b7e638a4cbf2f02089,68814826d4f34a767ce30480,,,,,,,,,,,,,,1,,,,,,,,,,,,,,,,,,,,,,,,,,,,,,,,,,,,,,,,,,,,472.0743,473.4271,1,1,0.7163,,473.4271,474.3967,0,9,9,9,1,0,casa,REAL,FAKE,,,,,,,,,,,,,,,,,,,,,,,,,,,,,,,,
,,,,,,,,,6736ae15788d71c1c21d0398,Mexican,13 or older,"no, only English or Spanish",no,2025-07-23_16h38.45.918,empathy_intonation_perc,2024.2.4,Win32,16,6736ae15788d71c1c21d0398,687ed1b7e638a4cbf2f02089,68814826d4f34a767ce30480,,,,,,,,,,,,,,0,,,,,,,,,,,,,,,,,,,,,,,,,,,,,,,,,,,,,,,,,,,,474.3971,475.5741,1,0,0.5615,,475.5744,476.5524,0,10,10,10,1,0,lejo,REAL,FAKE,,,,,,,,,,,,,,,,,,,,,,,,,,,,,,,,
,,,,,,,,,6736ae15788d71c1c21d0398,Mexican,13 or older,"no, only English or Spanish",no,2025-07-23_16h38.45.918,empathy_intonation_perc,2024.2.4,Win32,16,6736ae15788d71c1c21d0398,687ed1b7e638a4cbf2f02089,68814826d4f34a767ce30480,,,,,,,,,,,,,,0,,,,,,,,,,,,,,,,,,,,,,,,,,,,,,,,,,,,,,,,,,,,476.5528,477.9684,1,0,0.7914,,477.9684,478.963,0,11,11,11,1,0,pretantas,REAL,FAKE,,,,,,,,,,,,,,,,,,,,,,,,,,,,,,,,
,,,,,,,,,6736ae15788d71c1c21d0398,Mexican,13 or older,"no, only English or Spanish",no,2025-07-23_16h38.45.918,empathy_intonation_perc,2024.2.4,Win32,16,6736ae15788d71c1c21d0398,687ed1b7e638a4cbf2f02089,68814826d4f34a767ce30480,,,,,,,,,,,,,,,,,,,,,,,,,,,,,,,,,,,,,,,,,,,,,,,,,,,,,,,,,,,,,,,,,,,,,,,,,,,478.9631,480.7751,,,,,,,,,,,,,,,,,,,,,,,,,,,,,,
,,,,,,,,,6736ae15788d71c1c21d0398,Mexican,13 or older,"no, only English or Spanish",no,2025-07-23_16h38.45.918,empathy_intonation_perc,2024.2.4,Win32,16,6736ae15788d71c1c21d0398,687ed1b7e638a4cbf2f02089,68814826d4f34a767ce30480,,,,,,,,,,,,,,1,,,,,,,,,,,,,,,,,,,,,,,,,,,,,,,,,,,,,,,,,,,,,,,,,,,,,,,,,76,atar,,,,,480.7797,482.1395,1,1,0.7582,,0,0,0,75,1,REAL,FAKE,,,,,,,,,,,,,,,,,
,,,,,,,,,6736ae15788d71c1c21d0398,Mexican,13 or older,"no, only English or Spanish",no,2025-07-23_16h38.45.918,empathy_intonation_perc,2024.2.4,Win32,16,6736ae15788d71c1c21d0398,687ed1b7e638a4cbf2f02089,68814826d4f34a767ce30480,,,,,,,,,,,,,,0,,,,,,,,,,,,,,,,,,,,,,,,,,,,,,,,,,,,,,,,,,,,,,,,,,,,,,,,,29,decar,,,,,482.14,484.2353,1,0,1.4794,,0,1,1,28,1,REAL,FAKE,,,,,,,,,,,,,,,,,
,,,,,,,,,6736ae15788d71c1c21d0398,Mexican,13 or older,"no, only English or Spanish",no,2025-07-23_16h38.45.918,empathy_intonation_perc,2024.2.4,Win32,16,6736ae15788d71c1c21d0398,687ed1b7e638a4cbf2f02089,68814826d4f34a767ce30480,,,,,,,,,,,,,,1,,,,,,,,,,,,,,,,,,,,,,,,,,,,,,,,,,,,,,,,,,,,,,,,,,,,,,,,,31,pandilla,,,,,484.2357,485.5709,1,1,0.7046,,0,2,2,30,1,REAL,FAKE,,,,,,,,,,,,,,,,,
,,,,,,,,,6736ae15788d71c1c21d0398,Mexican,13 or older,"no, only English or Spanish",no,2025-07-23_16h38.45.918,empathy_intonation_perc,2024.2.4,Win32,16,6736ae15788d71c1c21d0398,687ed1b7e638a4cbf2f02089,68814826d4f34a767ce30480,,,,,,,,,,,,,,1,,,,,,,,,,,,,,,,,,,,,,,,,,,,,,,,,,,,,,,,,,,,,,,,,,,,,,,,,40,alfombra,,,,,485.5714,487.1661,0,0,0.9827,,0,3,3,39,1,REAL,FAKE,,,,,,,,,,,,,,,,,
,,,,,,,,,6736ae15788d71c1c21d0398,Mexican,13 or older,"no, only English or Spanish",no,2025-07-23_16h38.45.918,empathy_intonation_perc,2024.2.4,Win32,16,6736ae15788d71c1c21d0398,687ed1b7e638a4cbf2f02089,68814826d4f34a767ce30480,,,,,,,,,,,,,,0,,,,,,,,,,,,,,,,,,,,,,,,,,,,,,,,,,,,,,,,,,,,,,,,,,,,,,,,,58,plaudir,,,,,487.1665,488.5584,0,1,0.7759,,0,4,4,57,1,REAL,FAKE,,,,,,,,,,,,,,,,,
,,,,,,,,,6736ae15788d71c1c21d0398,Mexican,13 or older,"no, only English or Spanish",no,2025-07-23_16h38.45.918,empathy_intonation_perc,2024.2.4,Win32,16,6736ae15788d71c1c21d0398,687ed1b7e638a4cbf2f02089,68814826d4f34a767ce30480,,,,,,,,,,,,,,1,,,,,,,,,,,,,,,,,,,,,,,,,,,,,,,,,,,,,,,,,,,,,,,,,,,,,,,,,91,click the 1 key.,,,,,488.5591,490.4505,1,1,1.2658,,0,5,5,90,1,REAL,FAKE,,,,,,,,,,,,,,,,,
,,,,,,,,,6736ae15788d71c1c21d0398,Mexican,13 or older,"no, only English or Spanish",no,2025-07-23_16h38.45.918,empathy_intonation_perc,2024.2.4,Win32,16,6736ae15788d71c1c21d0398,687ed1b7e638a4cbf2f02089,68814826d4f34a767ce30480,,,,,,,,,,,,,,0,,,,,,,,,,,,,,,,,,,,,,,,,,,,,,,,,,,,,,,,,,,,,,,,,,,,,,,,,70,temblo,,,,,490.4509,492.3075,1,0,1.2549,,0,6,6,69,1,REAL,FAKE,,,,,,,,,,,,,,,,,
,,,,,,,,,6736ae15788d71c1c21d0398,Mexican,13 or older,"no, only English or Spanish",no,2025-07-23_16h38.45.918,empathy_intonation_perc,2024.2.4,Win32,16,6736ae15788d71c1c21d0398,687ed1b7e638a4cbf2f02089,68814826d4f34a767ce30480,,,,,,,,,,,,,,0,,,,,,,,,,,,,,,,,,,,,,,,,,,,,,,,,,,,,,,,,,,,,,,,,,,,,,,,,66,hacido,,,,,492.3078,493.7693,1,0,0.8516,,0,7,7,65,1,REAL,FAKE,,,,,,,,,,,,,,,,,
,,,,,,,,,6736ae15788d71c1c21d0398,Mexican,13 or older,"no, only English or Spanish",no,2025-07-23_16h38.45.918,empathy_intonation_perc,2024.2.4,Win32,16,6736ae15788d71c1c21d0398,687ed1b7e638a4cbf2f02089,68814826d4f34a767ce30480,,,,,,,,,,,,,,1,,,,,,,,,,,,,,,,,,,,,,,,,,,,,,,,,,,,,,,,,,,,,,,,,,,,,,,,,11,cenefa,,,,,493.7697,495.3686,0,0,0.9724,,0,8,8,10,1,REAL,FAKE,,,,,,,,,,,,,,,,,
,,,,,,,,,6736ae15788d71c1c21d0398,Mexican,13 or older,"no, only English or Spanish",no,2025-07-23_16h38.45.918,empathy_intonation_perc,2024.2.4,Win32,16,6736ae15788d71c1c21d0398,687ed1b7e638a4cbf2f02089,68814826d4f34a767ce30480,,,,,,,,,,,,,,1,,,,,,,,,,,,,,,,,,,,,,,,,,,,,,,,,,,,,,,,,,,,,,,,,,,,,,,,,22,lacayo,,,,,495.369,496.8385,0,0,0.8551,,0,9,9,21,1,REAL,FAKE,,,,,,,,,,,,,,,,,
,,,,,,,,,6736ae15788d71c1c21d0398,Mexican,13 or older,"no, only English or Spanish",no,2025-07-23_16h38.45.918,empathy_intonation_perc,2024.2.4,Win32,16,6736ae15788d71c1c21d0398,687ed1b7e638a4cbf2f02089,68814826d4f34a767ce30480,,,,,,,,,,,,,,0,,,,,,,,,,,,,,,,,,,,,,,,,,,,,,,,,,,,,,,,,,,,,,,,,,,,,,,,,32,fatacidad,,,,,496.8389,498.4282,1,0,0.9806,,0,10,10,31,1,REAL,FAKE,,,,,,,,,,,,,,,,,
,,,,,,,,,6736ae15788d71c1c21d0398,Mexican,13 or older,"no, only English or Spanish",no,2025-07-23_16h38.45.918,empathy_intonation_perc,2024.2.4,Win32,16,6736ae15788d71c1c21d0398,687ed1b7e638a4cbf2f02089,68814826d4f34a767ce30480,,,,,,,,,,,,,,0,,,,,,,,,,,,,,,,,,,,,,,,,,,,,,,,,,,,,,,,,,,,,,,,,,,,,,,,,53,vegada,,,,,498.4288,499.8916,1,0,0.8431,,0,11,11,52,1,REAL,FAKE,,,,,,,,,,,,,,,,,
,,,,,,,,,6736ae15788d71c1c21d0398,Mexican,13 or older,"no, only English or Spanish",no,2025-07-23_16h38.45.918,empathy_intonation_perc,2024.2.4,Win32,16,6736ae15788d71c1c21d0398,687ed1b7e638a4cbf2f02089,68814826d4f34a767ce30480,,,,,,,,,,,,,,0,,,,,,,,,,,,,,,,,,,,,,,,,,,,,,,,,,,,,,,,,,,,,,,,,,,,,,,,,47,cartinar,,,,,499.892,501.3738,1,0,0.8644,,0,12,12,46,1,REAL,FAKE,,,,,,,,,,,,,,,,,
,,,,,,,,,6736ae15788d71c1c21d0398,Mexican,13 or older,"no, only English or Spanish",no,2025-07-23_16h38.45.918,empathy_intonation_perc,2024.2.4,Win32,16,6736ae15788d71c1c21d0398,687ed1b7e638a4cbf2f02089,68814826d4f34a767ce30480,,,,,,,,,,,,,,0,,,,,,,,,,,,,,,,,,,,,,,,,,,,,,,,,,,,,,,,,,,,,,,,,,,,,,,,,35,rompido,,,,,501.3742,503.2387,1,0,1.2563,,0,13,13,34,1,REAL,FAKE,,,,,,,,,,,,,,,,,
,,,,,,,,,6736ae15788d71c1c21d0398,Mexican,13 or older,"no, only English or Spanish",no,2025-07-23_16h38.45.918,empathy_intonation_perc,2024.2.4,Win32,16,6736ae15788d71c1c21d0398,687ed1b7e638a4cbf2f02089,68814826d4f34a767ce30480,,,,,,,,,,,,,,1,,,,,,,,,,,,,,,,,,,,,,,,,,,,,,,,,,,,,,,,,,,,,,,,,,,,,,,,,15,regar,,,,,503.2391,504.5839,0,0,0.7238,,0,14,14,14,1,REAL,FAKE,,,,,,,,,,,,,,,,,
,,,,,,,,,6736ae15788d71c1c21d0398,Mexican,13 or older,"no, only English or Spanish",no,2025-07-23_16h38.45.918,empathy_intonation_perc,2024.2.4,Win32,16,6736ae15788d71c1c21d0398,687ed1b7e638a4cbf2f02089,68814826d4f34a767ce30480,,,,,,,,,,,,,,1,,,,,,,,,,,,,,,,,,,,,,,,,,,,,,,,,,,,,,,,,,,,,,,,,,,,,,,,,9,hacha,,,,,504.5843,506.0329,0,0,0.8405,,0,15,15,8,1,REAL,FAKE,,,,,,,,,,,,,,,,,
,,,,,,,,,6736ae15788d71c1c21d0398,Mexican,13 or older,"no, only English or Spanish",no,2025-07-23_16h38.45.918,empathy_intonation_perc,2024.2.4,Win32,16,6736ae15788d71c1c21d0398,687ed1b7e638a4cbf2f02089,68814826d4f34a767ce30480,,,,,,,,,,,,,,0,,,,,,,,,,,,,,,,,,,,,,,,,,,,,,,,,,,,,,,,,,,,,,,,,,,,,,,,,87,grodo,,,,,506.0333,507.5561,0,1,0.9011,,0,16,16,86,1,REAL,FAKE,,,,,,,,,,,,,,,,,
,,,,,,,,,6736ae15788d71c1c21d0398,Mexican,13 or older,"no, only English or Spanish",no,2025-07-23_16h38.45.918,empathy_intonation_perc,2024.2.4,Win32,16,6736ae15788d71c1c21d0398,687ed1b7e638a4cbf2f02089,68814826d4f34a767ce30480,,,,,,,,,,,,,,0,,,,,,,,,,,,,,,,,,,,,,,,,,,,,,,,,,,,,,,,,,,,,,,,,,,,,,,,,27,acutación,,,,,507.5568,511.2109,1,0,3.0351,,0,17,17,26,1,REAL,FAKE,,,,,,,,,,,,,,,,,
,,,,,,,,,6736ae15788d71c1c21d0398,Mexican,13 or older,"no, only English or Spanish",no,2025-07-23_16h38.45.918,empathy_intonation_perc,2024.2.4,Win32,16,6736ae15788d71c1c21d0398,687ed1b7e638a4cbf2f02089,68814826d4f34a767ce30480,,,,,,,,,,,,,,1,,,,,,,,,,,,,,,,,,,,,,,,,,,,,,,,,,,,,,,,,,,,,,,,,,,,,,,,,2,pellizcar,,,,,511.2116,512.6063,0,0,0.7857,,0,18,18,1,1,REAL,FAKE,,,,,,,,,,,,,,,,,
,,,,,,,,,6736ae15788d71c1c21d0398,Mexican,13 or older,"no, only English or Spanish",no,2025-07-23_16h38.45.918,empathy_intonation_perc,2024.2.4,Win32,16,6736ae15788d71c1c21d0398,687ed1b7e638a4cbf2f02089,68814826d4f34a767ce30480,,,,,,,,,,,,,,1,,,,,,,,,,,,,,,,,,,,,,,,,,,,,,,,,,,,,,,,,,,,,,,,,,,,,,,,,65,bizcocho,,,,,512.6066,514.1356,0,0,0.9258,,0,19,19,64,1,REAL,FAKE,,,,,,,,,,,,,,,,,
,,,,,,,,,6736ae15788d71c1c21d0398,Mexican,13 or older,"no, only English or Spanish",no,2025-07-23_16h38.45.918,empathy_intonation_perc,2024.2.4,Win32,16,6736ae15788d71c1c21d0398,687ed1b7e638a4cbf2f02089,68814826d4f34a767ce30480,,,,,,,,,,,,,,1,,,,,,,,,,,,,,,,,,,,,,,,,,,,,,,,,,,,,,,,,,,,,,,,,,,,,,,,,52,camisa,,,,,514.136,515.851,1,1,1.109,,0,20,20,51,1,REAL,FAKE,,,,,,,,,,,,,,,,,
,,,,,,,,,6736ae15788d71c1c21d0398,Mexican,13 or older,"no, only English or Spanish",no,2025-07-23_16h38.45.918,empathy_intonation_perc,2024.2.4,Win32,16,6736ae15788d71c1c21d0398,687ed1b7e638a4cbf2f02089,68814826d4f34a767ce30480,,,,,,,,,,,,,,1,,,,,,,,,,,,,,,,,,,,,,,,,,,,,,,,,,,,,,,,,,,,,,,,,,,,,,,,,14,yunque,,,,,515.8514,517.2987,0,0,0.841,,0,21,21,13,1,REAL,FAKE,,,,,,,,,,,,,,,,,
,,,,,,,,,6736ae15788d71c1c21d0398,Mexican,13 or older,"no, only English or Spanish",no,2025-07-23_16h38.45.918,empathy_intonation_perc,2024.2.4,Win32,16,6736ae15788d71c1c21d0398,687ed1b7e638a4cbf2f02089,68814826d4f34a767ce30480,,,,,,,,,,,,,,1,,,,,,,,,,,,,,,,,,,,,,,,,,,,,,,,,,,,,,,,,,,,,,,,,,,,,,,,,36,loro,,,,,517.299,518.6842,0,0,0.778,,0,22,22,35,1,REAL,FAKE,,,,,,,,,,,,,,,,,
,,,,,,,,,6736ae15788d71c1c21d0398,Mexican,13 or older,"no, only English or Spanish",no,2025-07-23_16h38.45.918,empathy_intonation_perc,2024.2.4,Win32,16,6736ae15788d71c1c21d0398,687ed1b7e638a4cbf2f02089,68814826d4f34a767ce30480,,,,,,,,,,,,,,0,,,,,,,,,,,,,,,,,,,,,,,,,,,,,,,,,,,,,,,,,,,,,,,,,,,,,,,,,30,alardio,,,,,518.6846,520.5247,0,1,1.2239,,0,23,23,29,1,REAL,FAKE,,,,,,,,,,,,,,,,,
,,,,,,,,,6736ae15788d71c1c21d0398,Mexican,13 or older,"no, only English or Spanish",no,2025-07-23_16h38.45.918,empathy_intonation_perc,2024.2.4,Win32,16,6736ae15788d71c1c21d0398,687ed1b7e638a4cbf2f02089,68814826d4f34a767ce30480,,,,,,,,,,,,,,1,,,,,,,,,,,,,,,,,,,,,,,,,,,,,,,,,,,,,,,,,,,,,,,,,,,,,,,,,68,alegre,,,,,520.5251,521.8461,0,0,0.715,,0,24,24,67,1,REAL,FAKE,,,,,,,,,,,,,,,,,
,,,,,,,,,6736ae15788d71c1c21d0398,Mexican,13 or older,"no, only English or Spanish",no,2025-07-23_16h38.45.918,empathy_intonation_perc,2024.2.4,Win32,16,6736ae15788d71c1c21d0398,687ed1b7e638a4cbf2f02089,68814826d4f34a767ce30480,,,,,,,,,,,,,,0,,,,,,,,,,,,,,,,,,,,,,,,,,,,,,,,,,,,,,,,,,,,,,,,,,,,,,,,,84,escuto,,,,,521.8465,524.5502,0,1,2.0935,,0,25,25,83,1,REAL,FAKE,,,,,,,,,,,,,,,,,
,,,,,,,,,6736ae15788d71c1c21d0398,Mexican,13 or older,"no, only English or Spanish",no,2025-07-23_16h38.45.918,empathy_intonation_perc,2024.2.4,Win32,16,6736ae15788d71c1c21d0398,687ed1b7e638a4cbf2f02089,68814826d4f34a767ce30480,,,,,,,,,,,,,,1,,,,,,,,,,,,,,,,,,,,,,,,,,,,,,,,,,,,,,,,,,,,,,,,,,,,,,,,,89,prisa,,,,,524.5506,525.9438,0,0,0.7905,,0,26,26,88,1,REAL,FAKE,,,,,,,,,,,,,,,,,
,,,,,,,,,6736ae15788d71c1c21d0398,Mexican,13 or older,"no, only English or Spanish",no,2025-07-23_16h38.45.918,empathy_intonation_perc,2024.2.4,Win32,16,6736ae15788d71c1c21d0398,687ed1b7e638a4cbf2f02089,68814826d4f34a767ce30480,,,,,,,,,,,,,,0,,,,,,,,,,,,,,,,,,,,,,,,,,,,,,,,,,,,,,,,,,,,,,,,,,,,,,,,,72,pemición,,,,,525.9441,527.5318,1,0,0.9855,,0,27,27,71,1,REAL,FAKE,,,,,,,,,,,,,,,,,
,,,,,,,,,6736ae15788d71c1c21d0398,Mexican,13 or older,"no, only English or Spanish",no,2025-07-23_16h38.45.918,empathy_intonation_perc,2024.2.4,Win32,16,6736ae15788d71c1c21d0398,687ed1b7e638a4cbf2f02089,68814826d4f34a767ce30480,,,,,,,,,,,,,,1,,,,,,,,,,,,,,,,,,,,,,,,,,,,,,,,,,,,,,,,,,,,,,,,,,,,,,,,,38,estornudar,,,,,527.5321,529.2229,1,1,1.0754,,0,28,28,37,1,REAL,FAKE,,,,,,,,,,,,,,,,,
,,,,,,,,,6736ae15788d71c1c21d0398,Mexican,13 or older,"no, only English or Spanish",no,2025-07-23_16h38.45.918,empathy_intonation_perc,2024.2.4,Win32,16,6736ae15788d71c1c21d0398,687ed1b7e638a4cbf2f02089,68814826d4f34a767ce30480,,,,,,,,,,,,,,1,,,,,,,,,,,,,,,,,,,,,,,,,,,,,,,,,,,,,,,,,,,,,,,,,,,,,,,,,77,tiburón,,,,,529.2233,530.9056,1,1,1.1129,,0,29,29,76,1,REAL,FAKE,,,,,,,,,,,,,,,,,
,,,,,,,,,6736ae15788d71c1c21d0398,Mexican,13 or older,"no, only English or Spanish",no,2025-07-23_16h38.45.918,empathy_intonation_perc,2024.2.4,Win32,16,6736ae15788d71c1c21d0398,687ed1b7e638a4cbf2f02089,68814826d4f34a767ce30480,,,,,,,,,,,,,,0,,,,,,,,,,,,,,,,,,,,,,,,,,,,,,,,,,,,,,,,,,,,,,,,,,,,,,,,,8,cadeña,,,,,530.9062,532.5769,1,0,1.0638,,0,30,30,7,1,REAL,FAKE,,,,,,,,,,,,,,,,,
,,,,,,,,,6736ae15788d71c1c21d0398,Mexican,13 or older,"no, only English or Spanish",no,2025-07-23_16h38.45.918,empathy_intonation_perc,2024.2.4,Win32,16,6736ae15788d71c1c21d0398,687ed1b7e638a4cbf2f02089,68814826d4f34a767ce30480,,,,,,,,,,,,,,1,,,,,,,,,,,,,,,,,,,,,,,,,,,,,,,,,,,,,,,,,,,,,,,,,,,,,,,,,24,látigo,,,,,532.5776,533.9835,0,0,0.7693,,0,31,31,23,1,REAL,FAKE,,,,,,,,,,,,,,,,,
,,,,,,,,,6736ae15788d71c1c21d0398,Mexican,13 or older,"no, only English or Spanish",no,2025-07-23_16h38.45.918,empathy_intonation_perc,2024.2.4,Win32,16,6736ae15788d71c1c21d0398,687ed1b7e638a4cbf2f02089,68814826d4f34a767ce30480,,,,,,,,,,,,,,1,,,,,,,,,,,,,,,,,,,,,,,,,,,,,,,,,,,,,,,,,,,,,,,,,,,,,,,,,86,barato,,,,,533.984,535.5784,0,0,0.9839,,0,32,32,85,1,REAL,FAKE,,,,,,,,,,,,,,,,,
,,,,,,,,,6736ae15788d71c1c21d0398,Mexican,13 or older,"no, only English or Spanish",no,2025-07-23_16h38.45.918,empathy_intonation_perc,2024.2.4,Win32,16,6736ae15788d71c1c21d0398,687ed1b7e638a4cbf2f02089,68814826d4f34a767ce30480,,,,,,,,,,,,,,0,,,,,,,,,,,,,,,,,,,,,,,,,,,,,,,,,,,,,,,,,,,,,,,,,,,,,,,,,23,lampera,,,,,535.5789,537.0378,0,1,0.8531,,0,33,33,22,1,REAL,FAKE,,,,,,,,,,,,,,,,,
,,,,,,,,,6736ae15788d71c1c21d0398,Mexican,13 or older,"no, only English or Spanish",no,2025-07-23_16h38.45.918,empathy_intonation_perc,2024.2.4,Win32,16,6736ae15788d71c1c21d0398,687ed1b7e638a4cbf2f02089,68814826d4f34a767ce30480,,,,,,,,,,,,,,0,,,,,,,,,,,,,,,,,,,,,,,,,,,,,,,,,,,,,,,,,,,,,,,,,,,,,,,,,19,brecedad,,,,,537.0382,538.4984,0,1,0.8329,,0,34,34,18,1,REAL,FAKE,,,,,,,,,,,,,,,,,
,,,,,,,,,6736ae15788d71c1c21d0398,Mexican,13 or older,"no, only English or Spanish",no,2025-07-23_16h38.45.918,empathy_intonation_perc,2024.2.4,Win32,16,6736ae15788d71c1c21d0398,687ed1b7e638a4cbf2f02089,68814826d4f34a767ce30480,,,,,,,,,,,,,,1,,,,,,,,,,,,,,,,,,,,,,,,,,,,,,,,,,,,,,,,,,,,,,,,,,,,,,,,,25,bisagra,,,,,538.4989,540.0452,0,0,0.9358,,0,35,35,24,1,REAL,FAKE,,,,,,,,,,,,,,,,,
,,,,,,,,,6736ae15788d71c1c21d0398,Mexican,13 or older,"no, only English or Spanish",no,2025-07-23_16h38.45.918,empathy_intonation_perc,2024.2.4,Win32,16,6736ae15788d71c1c21d0398,687ed1b7e638a4cbf2f02089,68814826d4f34a767ce30480,,,,,,,,,,,,,,1,,,,,,,,,,,,,,,,,,,,,,,,,,,,,,,,,,,,,,,,,,,,,,,,,,,,,,,,,55,nevar,,,,,540.0456,541.4516,0,0,0.7861,,0,36,36,54,1,REAL,FAKE,,,,,,,,,,,,,,,,,
,,,,,,,,,6736ae15788d71c1c21d0398,Mexican,13 or older,"no, only English or Spanish",no,2025-07-23_16h38.45.918,empathy_intonation_perc,2024.2.4,Win32,16,6736ae15788d71c1c21d0398,687ed1b7e638a4cbf2f02089,68814826d4f34a767ce30480,,,,,,,,,,,,,,1,,,,,,,,,,,,,,,,,,,,,,,,,,,,,,,,,,,,,,,,,,,,,,,,,,,,,,,,,78,frondoso,,,,,541.452,542.9132,0,0,0.8366,,0,37,37,77,1,REAL,FAKE,,,,,,,,,,,,,,,,,
,,,,,,,,,6736ae15788d71c1c21d0398,Mexican,13 or older,"no, only English or Spanish",no,2025-07-23_16h38.45.918,empathy_intonation_perc,2024.2.4,Win32,16,6736ae15788d71c1c21d0398,687ed1b7e638a4cbf2f02089,68814826d4f34a767ce30480,,,,,,,,,,,,,,0,,,,,,,,,,,,,,,,,,,,,,,,,,,,,,,,,,,,,,,,,,,,,,,,,,,,,,,,,82,empirador,,,,,542.9137,544.286,1,0,0.7684,,0,38,38,81,1,REAL,FAKE,,,,,,,,,,,,,,,,,
,,,,,,,,,6736ae15788d71c1c21d0398,Mexican,13 or older,"no, only English or Spanish",no,2025-07-23_16h38.45.918,empathy_intonation_perc,2024.2.4,Win32,16,6736ae15788d71c1c21d0398,687ed1b7e638a4cbf2f02089,68814826d4f34a767ce30480,,,,,,,,,,,,,,1,,,,,,,,,,,,,,,,,,,,,,,,,,,,,,,,,,,,,,,,,,,,,,,,,,,,,,,,,48,ladrón,,,,,544.2865,545.9582,1,1,1.0621,,0,39,39,47,1,REAL,FAKE,,,,,,,,,,,,,,,,,
,,,,,,,,,6736ae15788d71c1c21d0398,Mexican,13 or older,"no, only English or Spanish",no,2025-07-23_16h38.45.918,empathy_intonation_perc,2024.2.4,Win32,16,6736ae15788d71c1c21d0398,687ed1b7e638a4cbf2f02089,68814826d4f34a767ce30480,,,,,,,,,,,,,,1,,,,,,,,,,,,,,,,,,,,,,,,,,,,,,,,,,,,,,,,,,,,,,,,,,,,,,,,,7,pésimo,,,,,545.9586,547.6395,1,1,1.0491,,0,40,40,6,1,REAL,FAKE,,,,,,,,,,,,,,,,,
,,,,,,,,,6736ae15788d71c1c21d0398,Mexican,13 or older,"no, only English or Spanish",no,2025-07-23_16h38.45.918,empathy_intonation_perc,2024.2.4,Win32,16,6736ae15788d71c1c21d0398,687ed1b7e638a4cbf2f02089,68814826d4f34a767ce30480,,,,,,,,,,,,,,0,,,,,,,,,,,,,,,,,,,,,,,,,,,,,,,,,,,,,,,,,,,,,,,,,,,,,,,,,33,pauca,,,,,547.6399,549.0293,0,1,0.7652,,0,41,41,32,1,REAL,FAKE,,,,,,,,,,,,,,,,,
,,,,,,,,,6736ae15788d71c1c21d0398,Mexican,13 or older,"no, only English or Spanish",no,2025-07-23_16h38.45.918,empathy_intonation_perc,2024.2.4,Win32,16,6736ae15788d71c1c21d0398,687ed1b7e638a4cbf2f02089,68814826d4f34a767ce30480,,,,,,,,,,,,,,0,,,,,,,,,,,,,,,,,,,,,,,,,,,,,,,,,,,,,,,,,,,,,,,,,,,,,,,,,16,abracer,,,,,549.0298,550.4567,0,1,0.7988,,0,42,42,15,1,REAL,FAKE,,,,,,,,,,,,,,,,,
,,,,,,,,,6736ae15788d71c1c21d0398,Mexican,13 or older,"no, only English or Spanish",no,2025-07-23_16h38.45.918,empathy_intonation_perc,2024.2.4,Win32,16,6736ae15788d71c1c21d0398,687ed1b7e638a4cbf2f02089,68814826d4f34a767ce30480,,,,,,,,,,,,,,1,,,,,,,,,,,,,,,,,,,,,,,,,,,,,,,,,,,,,,,,,,,,,,,,,,,,,,,,,54,fomentar,,,,,550.4571,551.7112,0,0,0.6425,,0,43,43,53,1,REAL,FAKE,,,,,,,,,,,,,,,,,
,,,,,,,,,6736ae15788d71c1c21d0398,Mexican,13 or older,"no, only English or Spanish",no,2025-07-23_16h38.45.918,empathy_intonation_perc,2024.2.4,Win32,16,6736ae15788d71c1c21d0398,687ed1b7e638a4cbf2f02089,68814826d4f34a767ce30480,,,,,,,,,,,,,,1,,,,,,,,,,,,,,,,,,,,,,,,,,,,,,,,,,,,,,,,,,,,,,,,,,,,,,,,,13,helar,,,,,551.7116,552.9409,1,1,0.6251,,0,44,44,12,1,REAL,FAKE,,,,,,,,,,,,,,,,,
,,,,,,,,,6736ae15788d71c1c21d0398,Mexican,13 or older,"no, only English or Spanish",no,2025-07-23_16h38.45.918,empathy_intonation_perc,2024.2.4,Win32,16,6736ae15788d71c1c21d0398,687ed1b7e638a4cbf2f02089,68814826d4f34a767ce30480,,,,,,,,,,,,,,1,,,,,,,,,,,,,,,,,,,,,,,,,,,,,,,,,,,,,,,,,,,,,,,,,,,,,,,,,3,pulmones,,,,,552.9413,555.2653,0,0,1.7034,,0,45,45,2,1,REAL,FAKE,,,,,,,,,,,,,,,,,
,,,,,,,,,6736ae15788d71c1c21d0398,Mexican,13 or older,"no, only English or Spanish",no,2025-07-23_16h38.45.918,empathy_intonation_perc,2024.2.4,Win32,16,6736ae15788d71c1c21d0398,687ed1b7e638a4cbf2f02089,68814826d4f34a767ce30480,,,,,,,,,,,,,,1,,,,,,,,,,,,,,,,,,,,,,,,,,,,,,,,,,,,,,,,,,,,,,,,,,,,,,,,,37,granuja,,,,,555.2657,556.8186,1,1,0.9298,,0,46,46,36,1,REAL,FAKE,,,,,,,,,,,,,,,,,
,,,,,,,,,6736ae15788d71c1c21d0398,Mexican,13 or older,"no, only English or Spanish",no,2025-07-23_16h38.45.918,empathy_intonation_perc,2024.2.4,Win32,16,6736ae15788d71c1c21d0398,687ed1b7e638a4cbf2f02089,68814826d4f34a767ce30480,,,,,,,,,,,,,,1,,,,,,,,,,,,,,,,,,,,,,,,,,,,,,,,,,,,,,,,,,,,,,,,,,,,,,,,,62,flaco,,,,,556.819,558.4491,1,1,1.0141,,0,47,47,61,1,REAL,FAKE,,,,,,,,,,,,,,,,,
,,,,,,,,,6736ae15788d71c1c21d0398,Mexican,13 or older,"no, only English or Spanish",no,2025-07-23_16h38.45.918,empathy_intonation_perc,2024.2.4,Win32,16,6736ae15788d71c1c21d0398,687ed1b7e638a4cbf2f02089,68814826d4f34a767ce30480,,,,,,,,,,,,,,1,,,,,,,,,,,,,,,,,,,,,,,,,,,,,,,,,,,,,,,,,,,,,,,,,,,,,,,,,43,canela,,,,,558.4495,560.3406,0,0,1.2811,,0,48,48,42,1,REAL,FAKE,,,,,,,,,,,,,,,,,
,,,,,,,,,6736ae15788d71c1c21d0398,Mexican,13 or older,"no, only English or Spanish",no,2025-07-23_16h38.45.918,empathy_intonation_perc,2024.2.4,Win32,16,6736ae15788d71c1c21d0398,687ed1b7e638a4cbf2f02089,68814826d4f34a767ce30480,,,,,,,,,,,,,,0,,,,,,,,,,,,,,,,,,,,,,,,,,,,,,,,,,,,,,,,,,,,,,,,,,,,,,,,,92,click the 0 key.,,,,,560.3411,562.0241,0,1,1.0634,,0,49,49,91,1,REAL,FAKE,,,,,,,,,,,,,,,,,
,,,,,,,,,6736ae15788d71c1c21d0398,Mexican,13 or older,"no, only English or Spanish",no,2025-07-23_16h38.45.918,empathy_intonation_perc,2024.2.4,Win32,16,6736ae15788d71c1c21d0398,687ed1b7e638a4cbf2f02089,68814826d4f34a767ce30480,,,,,,,,,,,,,,1,,,,,,,,,,,,,,,,,,,,,,,,,,,,,,,,,,,,,,,,,,,,,,,,,,,,,,,,,56,musgo,,,,,562.0244,563.9851,0,0,1.3431,,0,50,50,55,1,REAL,FAKE,,,,,,,,,,,,,,,,,
,,,,,,,,,6736ae15788d71c1c21d0398,Mexican,13 or older,"no, only English or Spanish",no,2025-07-23_16h38.45.918,empathy_intonation_perc,2024.2.4,Win32,16,6736ae15788d71c1c21d0398,687ed1b7e638a4cbf2f02089,68814826d4f34a767ce30480,,,,,,,,,,,,,,1,,,,,,,,,,,,,,,,,,,,,,,,,,,,,,,,,,,,,,,,,,,,,,,,,,,,,,,,,60,matar,,,,,563.9855,565.6357,1,1,1.0466,,0,51,51,59,1,REAL,FAKE,,,,,,,,,,,,,,,,,
,,,,,,,,,6736ae15788d71c1c21d0398,Mexican,13 or older,"no, only English or Spanish",no,2025-07-23_16h38.45.918,empathy_intonation_perc,2024.2.4,Win32,16,6736ae15788d71c1c21d0398,687ed1b7e638a4cbf2f02089,68814826d4f34a767ce30480,,,,,,,,,,,,,,1,,,,,,,,,,,,,,,,,,,,,,,,,,,,,,,,,,,,,,,,,,,,,,,,,,,,,,,,,12,asesinato,,,,,565.6362,567.7729,0,0,1.5307,,0,52,52,11,1,REAL,FAKE,,,,,,,,,,,,,,,,,
,,,,,,,,,6736ae15788d71c1c21d0398,Mexican,13 or older,"no, only English or Spanish",no,2025-07-23_16h38.45.918,empathy_intonation_perc,2024.2.4,Win32,16,6736ae15788d71c1c21d0398,687ed1b7e638a4cbf2f02089,68814826d4f34a767ce30480,,,,,,,,,,,,,,0,,,,,,,,,,,,,,,,,,,,,,,,,,,,,,,,,,,,,,,,,,,,,,,,,,,,,,,,,50,flamida,,,,,567.7733,569.6505,1,0,1.2586,,0,53,53,49,1,REAL,FAKE,,,,,,,,,,,,,,,,,
,,,,,,,,,6736ae15788d71c1c21d0398,Mexican,13 or older,"no, only English or Spanish",no,2025-07-23_16h38.45.918,empathy_intonation_perc,2024.2.4,Win32,16,6736ae15788d71c1c21d0398,687ed1b7e638a4cbf2f02089,68814826d4f34a767ce30480,,,,,,,,,,,,,,1,,,,,,,,,,,,,,,,,,,,,,,,,,,,,,,,,,,,,,,,,,,,,,,,,,,,,,,,,71,polvoriento,,,,,569.6509,571.1132,0,0,0.8384,,0,54,54,70,1,REAL,FAKE,,,,,,,,,,,,,,,,,
,,,,,,,,,6736ae15788d71c1c21d0398,Mexican,13 or older,"no, only English or Spanish",no,2025-07-23_16h38.45.918,empathy_intonation_perc,2024.2.4,Win32,16,6736ae15788d71c1c21d0398,687ed1b7e638a4cbf2f02089,68814826d4f34a767ce30480,,,,,,,,,,,,,,1,,,,,,,,,,,,,,,,,,,,,,,,,,,,,,,,,,,,,,,,,,,,,,,,,,,,,,,,,61,seda,,,,,571.1136,572.5598,0,0,0.8368,,0,55,55,60,1,REAL,FAKE,,,,,,,,,,,,,,,,,
,,,,,,,,,6736ae15788d71c1c21d0398,Mexican,13 or older,"no, only English or Spanish",no,2025-07-23_16h38.45.918,empathy_intonation_perc,2024.2.4,Win32,16,6736ae15788d71c1c21d0398,687ed1b7e638a4cbf2f02089,68814826d4f34a767ce30480,,,,,,,,,,,,,,1,,,,,,,,,,,,,,,,,,,,,,,,,,,,,,,,,,,,,,,,,,,,,,,,,,,,,,,,,81,pozo,,,,,572.5602,573.8814,1,1,0.7053,,0,56,56,80,1,REAL,FAKE,,,,,,,,,,,,,,,,,
,,,,,,,,,6736ae15788d71c1c21d0398,Mexican,13 or older,"no, only English or Spanish",no,2025-07-23_16h38.45.918,empathy_intonation_perc,2024.2.4,Win32,16,6736ae15788d71c1c21d0398,687ed1b7e638a4cbf2f02089,68814826d4f34a767ce30480,,,,,,,,,,,,,,0,,,,,,,,,,,,,,,,,,,,,,,,,,,,,,,,,,,,,,,,,,,,,,,,,,,,,,,,,10,antar,,,,,573.8817,575.2094,0,1,0.7106,,0,57,57,9,1,REAL,FAKE,,,,,,,,,,,,,,,,,
,,,,,,,,,6736ae15788d71c1c21d0398,Mexican,13 or older,"no, only English or Spanish",no,2025-07-23_16h38.45.918,empathy_intonation_perc,2024.2.4,Win32,16,6736ae15788d71c1c21d0398,687ed1b7e638a4cbf2f02089,68814826d4f34a767ce30480,,,,,,,,,,,,,,0,,,,,,,,,,,,,,,,,,,,,,,,,,,,,,,,,,,,,,,,,,,,,,,,,,,,,,,,,79,tropaje,,,,,575.2098,577.5829,1,0,1.7593,,0,58,58,78,1,REAL,FAKE,,,,,,,,,,,,,,,,,
,,,,,,,,,6736ae15788d71c1c21d0398,Mexican,13 or older,"no, only English or Spanish",no,2025-07-23_16h38.45.918,empathy_intonation_perc,2024.2.4,Win32,16,6736ae15788d71c1c21d0398,687ed1b7e638a4cbf2f02089,68814826d4f34a767ce30480,,,,,,,,,,,,,,0,,,,,,,,,,,,,,,,,,,,,,,,,,,,,,,,,,,,,,,,,,,,,,,,,,,,,,,,,17,floroso,,,,,577.5834,579.0304,0,1,0.8423,,0,59,59,16,1,REAL,FAKE,,,,,,,,,,,,,,,,,
,,,,,,,,,6736ae15788d71c1c21d0398,Mexican,13 or older,"no, only English or Spanish",no,2025-07-23_16h38.45.918,empathy_intonation_perc,2024.2.4,Win32,16,6736ae15788d71c1c21d0398,687ed1b7e638a4cbf2f02089,68814826d4f34a767ce30480,,,,,,,,,,,,,,1,,,,,,,,,,,,,,,,,,,,,,,,,,,,,,,,,,,,,,,,,,,,,,,,,,,,,,,,,69,engatusar,,,,,579.0308,580.443,0,0,0.7952,,0,60,60,68,1,REAL,FAKE,,,,,,,,,,,,,,,,,
,,,,,,,,,6736ae15788d71c1c21d0398,Mexican,13 or older,"no, only English or Spanish",no,2025-07-23_16h38.45.918,empathy_intonation_perc,2024.2.4,Win32,16,6736ae15788d71c1c21d0398,687ed1b7e638a4cbf2f02089,68814826d4f34a767ce30480,,,,,,,,,,,,,,0,,,,,,,,,,,,,,,,,,,,,,,,,,,,,,,,,,,,,,,,,,,,,,,,,,,,,,,,,21,capillo,,,,,580.4434,581.6959,1,0,0.6263,,0,61,61,20,1,REAL,FAKE,,,,,,,,,,,,,,,,,
,,,,,,,,,6736ae15788d71c1c21d0398,Mexican,13 or older,"no, only English or Spanish",no,2025-07-23_16h38.45.918,empathy_intonation_perc,2024.2.4,Win32,16,6736ae15788d71c1c21d0398,687ed1b7e638a4cbf2f02089,68814826d4f34a767ce30480,,,,,,,,,,,,,,1,,,,,,,,,,,,,,,,,,,,,,,,,,,,,,,,,,,,,,,,,,,,,,,,,,,,,,,,,44,cuchara,,,,,581.6963,583.1706,0,0,0.8464,,0,62,62,43,1,REAL,FAKE,,,,,,,,,,,,,,,,,
,,,,,,,,,6736ae15788d71c1c21d0398,Mexican,13 or older,"no, only English or Spanish",no,2025-07-23_16h38.45.918,empathy_intonation_perc,2024.2.4,Win32,16,6736ae15788d71c1c21d0398,687ed1b7e638a4cbf2f02089,68814826d4f34a767ce30480,,,,,,,,,,,,,,1,,,,,,,,,,,,,,,,,,,,,,,,,,,,,,,,,,,,,,,,,,,,,,,,,,,,,,,,,51,candado,,,,,583.1709,584.478,0,0,0.6987,,0,63,63,50,1,REAL,FAKE,,,,,,,,,,,,,,,,,
,,,,,,,,,6736ae15788d71c1c21d0398,Mexican,13 or older,"no, only English or Spanish",no,2025-07-23_16h38.45.918,empathy_intonation_perc,2024.2.4,Win32,16,6736ae15788d71c1c21d0398,687ed1b7e638a4cbf2f02089,68814826d4f34a767ce30480,,,,,,,,,,,,,,1,,,,,,,,,,,,,,,,,,,,,,,,,,,,,,,,,,,,,,,,,,,,,,,,,,,,,,,,,28,merodear,,,,,584.4784,585.884,0,0,0.7978,,0,64,64,27,1,REAL,FAKE,,,,,,,,,,,,,,,,,
,,,,,,,,,6736ae15788d71c1c21d0398,Mexican,13 or older,"no, only English or Spanish",no,2025-07-23_16h38.45.918,empathy_intonation_perc,2024.2.4,Win32,16,6736ae15788d71c1c21d0398,687ed1b7e638a4cbf2f02089,68814826d4f34a767ce30480,,,,,,,,,,,,,,0,,,,,,,,,,,,,,,,,,,,,,,,,,,,,,,,,,,,,,,,,,,,,,,,,,,,,,,,,18,arsa,,,,,585.8844,587.3316,0,1,0.8345,,0,65,65,17,1,REAL,FAKE,,,,,,,,,,,,,,,,,
,,,,,,,,,6736ae15788d71c1c21d0398,Mexican,13 or older,"no, only English or Spanish",no,2025-07-23_16h38.45.918,empathy_intonation_perc,2024.2.4,Win32,16,6736ae15788d71c1c21d0398,687ed1b7e638a4cbf2f02089,68814826d4f34a767ce30480,,,,,,,,,,,,,,1,,,,,,,,,,,,,,,,,,,,,,,,,,,,,,,,,,,,,,,,,,,,,,,,,,,,,,,,,39,torpe,,,,,587.3319,588.6561,1,1,0.7052,,0,66,66,38,1,REAL,FAKE,,,,,,,,,,,,,,,,,
,,,,,,,,,6736ae15788d71c1c21d0398,Mexican,13 or older,"no, only English or Spanish",no,2025-07-23_16h38.45.918,empathy_intonation_perc,2024.2.4,Win32,16,6736ae15788d71c1c21d0398,687ed1b7e638a4cbf2f02089,68814826d4f34a767ce30480,,,,,,,,,,,,,,1,,,,,,,,,,,,,,,,,,,,,,,,,,,,,,,,,,,,,,,,,,,,,,,,,,,,,,,,,20,ávido,,,,,588.6565,589.9214,1,1,0.6484,,0,67,67,19,1,REAL,FAKE,,,,,,,,,,,,,,,,,
,,,,,,,,,6736ae15788d71c1c21d0398,Mexican,13 or older,"no, only English or Spanish",no,2025-07-23_16h38.45.918,empathy_intonation_perc,2024.2.4,Win32,16,6736ae15788d71c1c21d0398,687ed1b7e638a4cbf2f02089,68814826d4f34a767ce30480,,,,,,,,,,,,,,1,,,,,,,,,,,,,,,,,,,,,,,,,,,,,,,,,,,,,,,,,,,,,,,,,,,,,,,,,5,zapato,,,,,589.9218,591.8256,1,1,1.2648,,0,68,68,4,1,REAL,FAKE,,,,,,,,,,,,,,,,,
,,,,,,,,,6736ae15788d71c1c21d0398,Mexican,13 or older,"no, only English or Spanish",no,2025-07-23_16h38.45.918,empathy_intonation_perc,2024.2.4,Win32,16,6736ae15788d71c1c21d0398,687ed1b7e638a4cbf2f02089,68814826d4f34a767ce30480,,,,,,,,,,,,,,1,,,,,,,,,,,,,,,,,,,,,,,,,,,,,,,,,,,,,,,,,,,,,,,,,,,,,,,,,57,tacaño,,,,,591.826,593.2214,1,1,0.7915,,0,69,69,56,1,REAL,FAKE,,,,,,,,,,,,,,,,,
,,,,,,,,,6736ae15788d71c1c21d0398,Mexican,13 or older,"no, only English or Spanish",no,2025-07-23_16h38.45.918,empathy_intonation_perc,2024.2.4,Win32,16,6736ae15788d71c1c21d0398,687ed1b7e638a4cbf2f02089,68814826d4f34a767ce30480,,,,,,,,,,,,,,1,,,,,,,,,,,,,,,,,,,,,,,,,,,,,,,,,,,,,,,,,,,,,,,,,,,,,,,,,59,besar,,,,,593.2218,594.6804,0,0,0.8427,,0,70,70,58,1,REAL,FAKE,,,,,,,,,,,,,,,,,
,,,,,,,,,6736ae15788d71c1c21d0398,Mexican,13 or older,"no, only English or Spanish",no,2025-07-23_16h38.45.918,empathy_intonation_perc,2024.2.4,Win32,16,6736ae15788d71c1c21d0398,687ed1b7e638a4cbf2f02089,68814826d4f34a767ce30480,,,,,,,,,,,,,,1,,,,,,,,,,,,,,,,,,,,,,,,,,,,,,,,,,,,,,,,,,,,,,,,,,,,,,,,,6,tergiversar,,,,,594.6808,596.0677,0,0,0.7686,,0,71,71,5,1,REAL,FAKE,,,,,,,,,,,,,,,,,
,,,,,,,,,6736ae15788d71c1c21d0398,Mexican,13 or older,"no, only English or Spanish",no,2025-07-23_16h38.45.918,empathy_intonation_perc,2024.2.4,Win32,16,6736ae15788d71c1c21d0398,687ed1b7e638a4cbf2f02089,68814826d4f34a767ce30480,,,,,,,,,,,,,,1,,,,,,,,,,,,,,,,,,,,,,,,,,,,,,,,,,,,,,,,,,,,,,,,,,,,,,,,,49,ganar,,,,,596.0681,597.3852,0,0,0.7039,,0,72,72,48,1,REAL,FAKE,,,,,,,,,,,,,,,,,
,,,,,,,,,6736ae15788d71c1c21d0398,Mexican,13 or older,"no, only English or Spanish",no,2025-07-23_16h38.45.918,empathy_intonation_perc,2024.2.4,Win32,16,6736ae15788d71c1c21d0398,687ed1b7e638a4cbf2f02089,68814826d4f34a767ce30480,,,,,,,,,,,,,,1,,,,,,,,,,,,,,,,,,,,,,,,,,,,,,,,,,,,,,,,,,,,,,,,,,,,,,,,,41,rebuscar,,,,,597.3856,598.6557,0,0,0.6492,,0,73,73,40,1,REAL,FAKE,,,,,,,,,,,,,,,,,
,,,,,,,,,6736ae15788d71c1c21d0398,Mexican,13 or older,"no, only English or Spanish",no,2025-07-23_16h38.45.918,empathy_intonation_perc,2024.2.4,Win32,16,6736ae15788d71c1c21d0398,687ed1b7e638a4cbf2f02089,68814826d4f34a767ce30480,,,,,,,,,,,,,,1,,,,,,,,,,,,,,,,,,,,,,,,,,,,,,,,,,,,,,,,,,,,,,,,,,,,,,,,,67,cabello,,,,,598.656,599.9112,1,1,0.6396,,0,74,74,66,1,REAL,FAKE,,,,,,,,,,,,,,,,,
,,,,,,,,,6736ae15788d71c1c21d0398,Mexican,13 or older,"no, only English or Spanish",no,2025-07-23_16h38.45.918,empathy_intonation_perc,2024.2.4,Win32,16,6736ae15788d71c1c21d0398,687ed1b7e638a4cbf2f02089,68814826d4f34a767ce30480,,,,,,,,,,,,,,0,,,,,,,,,,,,,,,,,,,,,,,,,,,,,,,,,,,,,,,,,,,,,,,,,,,,,,,,,42,cadallo,,,,,599.9116,601.2378,1,0,0.7056,,0,75,75,41,1,REAL,FAKE,,,,,,,,,,,,,,,,,
,,,,,,,,,6736ae15788d71c1c21d0398,Mexican,13 or older,"no, only English or Spanish",no,2025-07-23_16h38.45.918,empathy_intonation_perc,2024.2.4,Win32,16,6736ae15788d71c1c21d0398,687ed1b7e638a4cbf2f02089,68814826d4f34a767ce30480,,,,,,,,,,,,,,1,,,,,,,,,,,,,,,,,,,,,,,,,,,,,,,,,,,,,,,,,,,,,,,,,,,,,,,,,34,aviso,,,,,601.2383,602.6249,0,0,0.7765,,0,76,76,33,1,REAL,FAKE,,,,,,,,,,,,,,,,,
,,,,,,,,,6736ae15788d71c1c21d0398,Mexican,13 or older,"no, only English or Spanish",no,2025-07-23_16h38.45.918,empathy_intonation_perc,2024.2.4,Win32,16,6736ae15788d71c1c21d0398,687ed1b7e638a4cbf2f02089,68814826d4f34a767ce30480,,,,,,,,,,,,,,1,,,,,,,,,,,,,,,,,,,,,,,,,,,,,,,,,,,,,,,,,,,,,,,,,,,,,,,,,26,secuestro,,,,,602.6253,603.9548,0,0,0.7196,,0,77,77,25,1,REAL,FAKE,,,,,,,,,,,,,,,,,
,,,,,,,,,6736ae15788d71c1c21d0398,Mexican,13 or older,"no, only English or Spanish",no,2025-07-23_16h38.45.918,empathy_intonation_perc,2024.2.4,Win32,16,6736ae15788d71c1c21d0398,687ed1b7e638a4cbf2f02089,68814826d4f34a767ce30480,,,,,,,,,,,,,,1,,,,,,,,,,,,,,,,,,,,,,,,,,,,,,,,,,,,,,,,,,,,,,,,,,,,,,,,,80,hormiga,,,,,603.9552,605.3523,0,0,0.7792,,0,78,78,79,1,REAL,FAKE,,,,,,,,,,,,,,,,,
,,,,,,,,,6736ae15788d71c1c21d0398,Mexican,13 or older,"no, only English or Spanish",no,2025-07-23_16h38.45.918,empathy_intonation_perc,2024.2.4,Win32,16,6736ae15788d71c1c21d0398,687ed1b7e638a4cbf2f02089,68814826d4f34a767ce30480,,,,,,,,,,,,,,1,,,,,,,,,,,,,,,,,,,,,,,,,,,,,,,,,,,,,,,,,,,,,,,,,,,,,,,,,90,clavel,,,,,605.3528,606.6781,0,0,0.7055,,0,79,79,89,1,REAL,FAKE,,,,,,,,,,,,,,,,,
,,,,,,,,,6736ae15788d71c1c21d0398,Mexican,13 or older,"no, only English or Spanish",no,2025-07-23_16h38.45.918,empathy_intonation_perc,2024.2.4,Win32,16,6736ae15788d71c1c21d0398,687ed1b7e638a4cbf2f02089,68814826d4f34a767ce30480,,,,,,,,,,,,,,1,,,,,,,,,,,,,,,,,,,,,,,,,,,,,,,,,,,,,,,,,,,,,,,,,,,,,,,,,73,hervidor,,,,,606.6785,608.7734,0,0,1.4814,,0,80,80,72,1,REAL,FAKE,,,,,,,,,,,,,,,,,
,,,,,,,,,6736ae15788d71c1c21d0398,Mexican,13 or older,"no, only English or Spanish",no,2025-07-23_16h38.45.918,empathy_intonation_perc,2024.2.4,Win32,16,6736ae15788d71c1c21d0398,687ed1b7e638a4cbf2f02089,68814826d4f34a767ce30480,,,,,,,,,,,,,,1,,,,,,,,,,,,,,,,,,,,,,,,,,,,,,,,,,,,,,,,,,,,,,,,,,,,,,,,,83,guante,,,,,608.7737,610.2955,1,1,0.9123,,0,81,81,82,1,REAL,FAKE,,,,,,,,,,,,,,,,,
,,,,,,,,,6736ae15788d71c1c21d0398,Mexican,13 or older,"no, only English or Spanish",no,2025-07-23_16h38.45.918,empathy_intonation_perc,2024.2.4,Win32,16,6736ae15788d71c1c21d0398,687ed1b7e638a4cbf2f02089,68814826d4f34a767ce30480,,,,,,,,,,,,,,0,,,,,,,,,,,,,,,,,,,,,,,,,,,,,,,,,,,,,,,,,,,,,,,,,,,,,,,,,74,cintro,,,,,610.2959,612.9666,0,1,2.1045,,0,82,82,73,1,REAL,FAKE,,,,,,,,,,,,,,,,,
,,,,,,,,,6736ae15788d71c1c21d0398,Mexican,13 or older,"no, only English or Spanish",no,2025-07-23_16h38.45.918,empathy_intonation_perc,2024.2.4,Win32,16,6736ae15788d71c1c21d0398,687ed1b7e638a4cbf2f02089,68814826d4f34a767ce30480,,,,,,,,,,,,,,0,,,,,,,,,,,,,,,,,,,,,,,,,,,,,,,,,,,,,,,,,,,,,,,,,,,,,,,,,63,esposante,,,,,612.9671,614.3724,0,1,0.7982,,0,83,83,62,1,REAL,FAKE,,,,,,,,,,,,,,,,,
,,,,,,,,,6736ae15788d71c1c21d0398,Mexican,13 or older,"no, only English or Spanish",no,2025-07-23_16h38.45.918,empathy_intonation_perc,2024.2.4,Win32,16,6736ae15788d71c1c21d0398,687ed1b7e638a4cbf2f02089,68814826d4f34a767ce30480,,,,,,,,,,,,,,0,,,,,,,,,,,,,,,,,,,,,,,,,,,,,,,,,,,,,,,,,,,,,,,,,,,,,,,,,4,batillón,,,,,614.3728,615.9509,0,1,0.9746,,0,84,84,3,1,REAL,FAKE,,,,,,,,,,,,,,,,,
,,,,,,,,,6736ae15788d71c1c21d0398,Mexican,13 or older,"no, only English or Spanish",no,2025-07-23_16h38.45.918,empathy_intonation_perc,2024.2.4,Win32,16,6736ae15788d71c1c21d0398,687ed1b7e638a4cbf2f02089,68814826d4f34a767ce30480,,,,,,,,,,,,,,1,,,,,,,,,,,,,,,,,,,,,,,,,,,,,,,,,,,,,,,,,,,,,,,,,,,,,,,,,45,jilguero,,,,,615.9513,617.3456,0,0,0.7773,,0,85,85,44,1,REAL,FAKE,,,,,,,,,,,,,,,,,
,,,,,,,,,6736ae15788d71c1c21d0398,Mexican,13 or older,"no, only English or Spanish",no,2025-07-23_16h38.45.918,empathy_intonation_perc,2024.2.4,Win32,16,6736ae15788d71c1c21d0398,687ed1b7e638a4cbf2f02089,68814826d4f34a767ce30480,,,,,,,,,,,,,,1,,,,,,,,,,,,,,,,,,,,,,,,,,,,,,,,,,,,,,,,,,,,,,,,,,,,,,,,,85,laúd,,,,,617.3462,618.6693,0,0,0.7157,,0,86,86,84,1,REAL,FAKE,,,,,,,,,,,,,,,,,
,,,,,,,,,6736ae15788d71c1c21d0398,Mexican,13 or older,"no, only English or Spanish",no,2025-07-23_16h38.45.918,empathy_intonation_perc,2024.2.4,Win32,16,6736ae15788d71c1c21d0398,687ed1b7e638a4cbf2f02089,68814826d4f34a767ce30480,,,,,,,,,,,,,,1,,,,,,,,,,,,,,,,,,,,,,,,,,,,,,,,,,,,,,,,,,,,,,,,,,,,,,,,,64,orgulloso,,,,,618.6697,620.1941,0,0,0.9235,,0,87,87,63,1,REAL,FAKE,,,,,,,,,,,,,,,,,
,,,,,,,,,6736ae15788d71c1c21d0398,Mexican,13 or older,"no, only English or Spanish",no,2025-07-23_16h38.45.918,empathy_intonation_perc,2024.2.4,Win32,16,6736ae15788d71c1c21d0398,687ed1b7e638a4cbf2f02089,68814826d4f34a767ce30480,,,,,,,,,,,,,,1,,,,,,,,,,,,,,,,,,,,,,,,,,,,,,,,,,,,,,,,,,,,,,,,,,,,,,,,,88,acantilado,,,,,620.1945,621.9968,1,1,1.1851,,0,88,88,87,1,REAL,FAKE,,,,,,,,,,,,,,,,,
,,,,,,,,,6736ae15788d71c1c21d0398,Mexican,13 or older,"no, only English or Spanish",no,2025-07-23_16h38.45.918,empathy_intonation_perc,2024.2.4,Win32,16,6736ae15788d71c1c21d0398,687ed1b7e638a4cbf2f02089,68814826d4f34a767ce30480,,,,,,,,,,,,,,0,,,,,,,,,,,,,,,,,,,,,,,,,,,,,,,,,,,,,,,,,,,,,,,,,,,,,,,,,1,terzo,,,,,621.9973,623.3431,0,1,0.7304,,0,89,89,0,1,REAL,FAKE,,,,,,,,,,,,,,,,,
,,,,,,,,,6736ae15788d71c1c21d0398,Mexican,13 or older,"no, only English or Spanish",no,2025-07-23_16h38.45.918,empathy_intonation_perc,2024.2.4,Win32,16,6736ae15788d71c1c21d0398,687ed1b7e638a4cbf2f02089,68814826d4f34a767ce30480,,,,,,,,,,,,,,1,,,,,,,,,,,,,,,,,,,,,,,,,,,,,,,,,,,,,,,,,,,,,,,,,,,,,,,,,46,martillo,,,,,623.3435,624.8885,0,0,0.9312,,0,90,90,45,1,REAL,FAKE,,,,,,,,,,,,,,,,,
,,,,,,,,,6736ae15788d71c1c21d0398,Mexican,13 or older,"no, only English or Spanish",no,2025-07-23_16h38.45.918,empathy_intonation_perc,2024.2.4,Win32,16,6736ae15788d71c1c21d0398,687ed1b7e638a4cbf2f02089,68814826d4f34a767ce30480,,,,,,,,,,,,,,1,,,,,,,,,,,,,,,,,,,,,,,,,,,,,,,,,,,,,,,,,,,,,,,,,,,,,,,,,75,yacer,,,,,624.8888,626.1212,0,0,0.6261,,0,91,91,74,1,REAL,FAKE,,,,,,,,,,,,,,,,,
,,,,,,,,,6736ae15788d71c1c21d0398,Mexican,13 or older,"no, only English or Spanish",no,2025-07-23_16h38.45.918,empathy_intonation_perc,2024.2.4,Win32,16,6736ae15788d71c1c21d0398,687ed1b7e638a4cbf2f02089,68814826d4f34a767ce30480,,,,,,,,,,,,,,,,,,,,,,,,,,,,,,,,,,,,,,,,,,,,,,,,,,,,,,,,,,,,,,,,,,,,,,,,,,,,,,,,,,,,,,,,,,626.1214,632.2116,,,,,,,,,,,,,,,
,,,,,,,,,6736ae15788d71c1c21d0398,Mexican,13 or older,"no, only English or Spanish",no,2025-07-23_16h38.45.918,empathy_intonation_perc,2024.2.4,Win32,16,6736ae15788d71c1c21d0398,687ed1b7e638a4cbf2f02089,68814826d4f34a767ce30480,,,,,,,,,,,,,1,,,,,,,,,,,,,,,,,,,,,,,,,,,,,,,,,,,,,,,,,,,,,,,,,,,,,,,,,,,,,,,,,,,,,,,,,,,,,,,632.2165,638.816,strongly agree,0,0,0,0,1,I can easily tell if someone else wants to enter a conversation.,1,0,1,0,,
,,,,,,,,,6736ae15788d71c1c21d0398,Mexican,13 or older,"no, only English or Spanish",no,2025-07-23_16h38.45.918,empathy_intonation_perc,2024.2.4,Win32,16,6736ae15788d71c1c21d0398,687ed1b7e638a4cbf2f02089,68814826d4f34a767ce30480,,,,,,,,,,,,,2,,,,,,,,,,,,,,,,,,,,,,,,,,,,,,,,,,,,,,,,,,,,,,,,,,,,,,,,,,,,,,,,,,,,,,,,,,,,,,,638.817,640.8699,slightly agree,0,1,1,1,1,I prefer animals to humans.,0,1,0,0,,
,,,,,,,,,6736ae15788d71c1c21d0398,Mexican,13 or older,"no, only English or Spanish",no,2025-07-23_16h38.45.918,empathy_intonation_perc,2024.2.4,Win32,16,6736ae15788d71c1c21d0398,687ed1b7e638a4cbf2f02089,68814826d4f34a767ce30480,,,,,,,,,,,,,3,,,,,,,,,,,,,,,,,,,,,,,,,,,,,,,,,,,,,,,,,,,,,,,,,,,,,,,,,,,,,,,,,,,,,,,,,,,,,,,640.8708,643.3062,slightly disagree,0,2,2,2,1,I try to keep up with the current trends and fashions.,0,1,0,0,,
,,,,,,,,,6736ae15788d71c1c21d0398,Mexican,13 or older,"no, only English or Spanish",no,2025-07-23_16h38.45.918,empathy_intonation_perc,2024.2.4,Win32,16,6736ae15788d71c1c21d0398,687ed1b7e638a4cbf2f02089,68814826d4f34a767ce30480,,,,,,,,,,,,,4,,,,,,,,,,,,,,,,,,,,,,,,,,,,,,,,,,,,,,,,,,,,,,,,,,,,,,,,,,,,,,,,,,,,,,,,,,,,,,,643.3072,647.6818,slightly disagree,0,3,3,3,1,"I find it difficult to explain to others things that I understand easily,   when they don't understand it first time.",1,0,0,1,,
,,,,,,,,,6736ae15788d71c1c21d0398,Mexican,13 or older,"no, only English or Spanish",no,2025-07-23_16h38.45.918,empathy_intonation_perc,2024.2.4,Win32,16,6736ae15788d71c1c21d0398,687ed1b7e638a4cbf2f02089,68814826d4f34a767ce30480,,,,,,,,,,,,,5,,,,,,,,,,,,,,,,,,,,,,,,,,,,,,,,,,,,,,,,,,,,,,,,,,,,,,,,,,,,,,,,,,,,,,,,,,,,,,,647.6823,649.9555,slightly agree,0,4,4,4,1,I dream most nights.,0,1,0,0,,
,,,,,,,,,6736ae15788d71c1c21d0398,Mexican,13 or older,"no, only English or Spanish",no,2025-07-23_16h38.45.918,empathy_intonation_perc,2024.2.4,Win32,16,6736ae15788d71c1c21d0398,687ed1b7e638a4cbf2f02089,68814826d4f34a767ce30480,,,,,,,,,,,,,6,,,,,,,,,,,,,,,,,,,,,,,,,,,,,,,,,,,,,,,,,,,,,,,,,,,,,,,,,,,,,,,,,,,,,,,,,,,,,,,649.9561,652.1477,slightly agree,0,5,5,5,1,I really enjoy caring for other people.,1,0,1,0,,
,,,,,,,,,6736ae15788d71c1c21d0398,Mexican,13 or older,"no, only English or Spanish",no,2025-07-23_16h38.45.918,empathy_intonation_perc,2024.2.4,Win32,16,6736ae15788d71c1c21d0398,687ed1b7e638a4cbf2f02089,68814826d4f34a767ce30480,,,,,,,,,,,,,7,,,,,,,,,,,,,,,,,,,,,,,,,,,,,,,,,,,,,,,,,,,,,,,,,,,,,,,,,,,,,,,,,,,,,,,,,,,,,,,652.1485,654.8132,slightly agree,0,6,6,6,1,I try to solve my own problems rather than discussing them with others.,0,1,0,0,,
,,,,,,,,,6736ae15788d71c1c21d0398,Mexican,13 or older,"no, only English or Spanish",no,2025-07-23_16h38.45.918,empathy_intonation_perc,2024.2.4,Win32,16,6736ae15788d71c1c21d0398,687ed1b7e638a4cbf2f02089,68814826d4f34a767ce30480,,,,,,,,,,,,,8,,,,,,,,,,,,,,,,,,,,,,,,,,,,,,,,,,,,,,,,,,,,,,,,,,,,,,,,,,,,,,,,,,,,,,,,,,,,,,,654.8137,656.8524,slightly agree,0,7,7,7,1,I find it hard to know what to do in a social situation.,1,0,0,1,,
,,,,,,,,,6736ae15788d71c1c21d0398,Mexican,13 or older,"no, only English or Spanish",no,2025-07-23_16h38.45.918,empathy_intonation_perc,2024.2.4,Win32,16,6736ae15788d71c1c21d0398,687ed1b7e638a4cbf2f02089,68814826d4f34a767ce30480,,,,,,,,,,,,,9,,,,,,,,,,,,,,,,,,,,,,,,,,,,,,,,,,,,,,,,,,,,,,,,,,,,,,,,,,,,,,,,,,,,,,,,,,,,,,,656.853,659.3425,slightly agree,0,8,8,8,1,I am at my best first thing in the morning.,0,1,0,0,,
,,,,,,,,,6736ae15788d71c1c21d0398,Mexican,13 or older,"no, only English or Spanish",no,2025-07-23_16h38.45.918,empathy_intonation_perc,2024.2.4,Win32,16,6736ae15788d71c1c21d0398,687ed1b7e638a4cbf2f02089,68814826d4f34a767ce30480,,,,,,,,,,,,,10,,,,,,,,,,,,,,,,,,,,,,,,,,,,,,,,,,,,,,,,,,,,,,,,,,,,,,,,,,,,,,,,,,,,,,,,,,,,,,,659.3432,662.9316,strongly disagree,0,9,9,9,1,People often tell me that I went too far in driving my point home in a discussion.,1,0,0,1,,
,,,,,,,,,6736ae15788d71c1c21d0398,Mexican,13 or older,"no, only English or Spanish",no,2025-07-23_16h38.45.918,empathy_intonation_perc,2024.2.4,Win32,16,6736ae15788d71c1c21d0398,687ed1b7e638a4cbf2f02089,68814826d4f34a767ce30480,,,,,,,,,,,,,11,,,,,,,,,,,,,,,,,,,,,,,,,,,,,,,,,,,,,,,,,,,,,,,,,,,,,,,,,,,,,,,,,,,,,,,,,,,,,,,662.9322,667.9171,slightly agree,0,10,10,10,1,It doesn't bother me too much if I am late meeting a friend.,1,0,0,1,,
,,,,,,,,,6736ae15788d71c1c21d0398,Mexican,13 or older,"no, only English or Spanish",no,2025-07-23_16h38.45.918,empathy_intonation_perc,2024.2.4,Win32,16,6736ae15788d71c1c21d0398,687ed1b7e638a4cbf2f02089,68814826d4f34a767ce30480,,,,,,,,,,,,,12,,,,,,,,,,,,,,,,,,,,,,,,,,,,,,,,,,,,,,,,,,,,,,,,,,,,,,,,,,,,,,,,,,,,,,,,,,,,,,,667.9178,670.9991,strongly disagree,0,11,11,11,1,"Friendships and relationships are just too difficult, so I tend not to 
  bother with them.",1,0,0,1,,
,,,,,,,,,6736ae15788d71c1c21d0398,Mexican,13 or older,"no, only English or Spanish",no,2025-07-23_16h38.45.918,empathy_intonation_perc,2024.2.4,Win32,16,6736ae15788d71c1c21d0398,687ed1b7e638a4cbf2f02089,68814826d4f34a767ce30480,,,,,,,,,,,,,13,,,,,,,,,,,,,,,,,,,,,,,,,,,,,,,,,,,,,,,,,,,,,,,,,,,,,,,,,,,,,,,,,,,,,,,,,,,,,,,670.9999,675.4154,slightly agree,0,12,12,12,1,"I would never break a law, no matter how minor.",0,1,0,0,,
,,,,,,,,,6736ae15788d71c1c21d0398,Mexican,13 or older,"no, only English or Spanish",no,2025-07-23_16h38.45.918,empathy_intonation_perc,2024.2.4,Win32,16,6736ae15788d71c1c21d0398,687ed1b7e638a4cbf2f02089,68814826d4f34a767ce30480,,,,,,,,,,,,,14,,,,,,,,,,,,,,,,,,,,,,,,,,,,,,,,,,,,,,,,,,,,,,,,,,,,,,,,,,,,,,,,,,,,,,,,,,,,,,,675.4159,679.794,slightly disagree,0,13,13,13,1,I often find it difficult to judge if something is rude or polite.,1,0,0,1,,
