instructions_exposure.started,instructions_exposure.stopped,instructions_exposure_loop.thisRepN,instructions_exposure_loop.thisTrialN,instructions_exposure_loop.thisN,instructions_exposure_loop.thisIndex,instructions_exposure_loop.ran,instructions_text,continue_text,participant_id,"What variety of Spanish are you most familiar with? (e.g., Peruvian, Spanish, Mexican)",At what age did you begin learning Spanish?,Are you proficient in any languages other than English/Spanish?,"Are you familiar with Caribbean (e.g., Caribbean, Puerto Rican) or Galician Spanish?",date,expName,psychopyVersion,OS,frameRate,id,study_id,session,trial_exposure.started,trial_exposure.stopped,key_resp_exposure.keys,key_resp_exposure.corr,key_resp_exposure.rt,key_resp_exposure.duration,key_resp.keys,exposure_loop.thisRepN,exposure_loop.thisTrialN,exposure_loop.thisN,exposure_loop.thisIndex,exposure_loop.ran,item_num,correct_response,question,path,duration,instructions_2afc.started,instructions_2afc.stopped,instructions_2afc_loop.thisRepN,instructions_2afc_loop.thisTrialN,instructions_2afc_loop.thisN,instructions_2afc_loop.thisIndex,instructions_2afc_loop.ran,practice_2afc.started,practice_2afc.stopped,key_resp_2afc_practice.keys,key_resp_2afc_practice.corr,key_resp_2afc_practice.rt,key_resp_2afc_practice.duration,trials_2afc_practice_loop.thisRepN,trials_2afc_practice_loop.thisTrialN,trials_2afc_practice_loop.thisN,trials_2afc_practice_loop.thisIndex,trials_2afc_practice_loop.ran,check_2afc.started,check_2afc.stopped,trial_2afc.started,trial_2afc.stopped,key_resp_2afc_trial.keys,key_resp_2afc_trial.corr,key_resp_2afc_trial.rt,key_resp_2afc_trial.duration,trials_2afc_loop.thisRepN,trials_2afc_loop.thisTrialN,trials_2afc_loop.thisN,trials_2afc_loop.thisIndex,trials_2afc_loop.ran,target,variety,instructions_lextale.started,instructions_lextale.stopped,instructions_lextale_loop.thisRepN,instructions_lextale_loop.thisTrialN,instructions_lextale_loop.thisN,instructions_lextale_loop.thisIndex,instructions_lextale_loop.ran,practice_lextale.started,practice_lextale.stopped,key_resp_lextale_practice.keys,key_resp_lextale_practice.corr,key_resp_lextale_practice.rt,key_resp_lextale_practice.duration,practice_feedback_lextale.started,practice_feedback_lextale.stopped,trials_lextale_practice_loop.thisRepN,trials_lextale_practice_loop.thisTrialN,trials_lextale_practice_loop.thisN,trials_lextale_practice_loop.thisIndex,trials_lextale_practice_loop.ran,stim,word,prac_button_real,prac_button_false,check_lextale.started,check_lextale.stopped,trial_lextale.started,trial_lextale.stopped,key_resp_lextale_trial.keys,key_resp_lextale_trial.corr,key_resp_lextale_trial.rt,key_resp_lextale_trial.duration,trials_lextale_loop.thisRepN,trials_lextale_loop.thisTrialN,trials_lextale_loop.thisN,trials_lextale_loop.thisIndex,trials_lextale_loop.ran,button_real,button_false,instructions_eq.started,instructions_eq.stopped,trial_eq.started,trial_eq.stopped,slider_eq_trial.response,trials_eq_loop.thisRepN,trials_eq_loop.thisTrialN,trials_eq_loop.thisN,trials_eq_loop.thisIndex,trials_eq_loop.ran,item,is_test_item,is_distractor,is_agree_score,is_disagree_score,end_exp.started,end_exp.stopped
0.0118,2.1163,0,0,0,0,1,"In the following task, you are going to hear a series of conversations.", (press the space bar to continue),6742237ff27899244266a74f,Mexican,13 or older,"no, only English or Spanish",no,2025-07-22_20h38.25.860,empathy_intonation_perc,2024.2.4,MacIntel,59.88023952,6742237ff27899244266a74f,687ed1b7e638a4cbf2f02089,68802ed737db532102e2863f,,,,,,,,,,,,,,,,,,,,,,,,,,,,,,,,,,,,,,,,,,,,,,,,,,,,,,,,,,,,,,,,,,,,,,,,,,,,,,,,,,,,,,,,,,,,,,,,,,,,,,,,,,
2.1173,7.8327,0,1,1,1,1,It is okay if you don't not 100% understand them!, (press the space bar to continue),6742237ff27899244266a74f,Mexican,13 or older,"no, only English or Spanish",no,2025-07-22_20h38.25.860,empathy_intonation_perc,2024.2.4,MacIntel,59.88023952,6742237ff27899244266a74f,687ed1b7e638a4cbf2f02089,68802ed737db532102e2863f,,,,,,,,,,,,,,,,,,,,,,,,,,,,,,,,,,,,,,,,,,,,,,,,,,,,,,,,,,,,,,,,,,,,,,,,,,,,,,,,,,,,,,,,,,,,,,,,,,,,,,,,,,
7.8347,10.5326,0,2,2,2,1,"After, you will read a sentence about the conversation and decide if it's true or false.", (press the space bar to continue),6742237ff27899244266a74f,Mexican,13 or older,"no, only English or Spanish",no,2025-07-22_20h38.25.860,empathy_intonation_perc,2024.2.4,MacIntel,59.88023952,6742237ff27899244266a74f,687ed1b7e638a4cbf2f02089,68802ed737db532102e2863f,,,,,,,,,,,,,,,,,,,,,,,,,,,,,,,,,,,,,,,,,,,,,,,,,,,,,,,,,,,,,,,,,,,,,,,,,,,,,,,,,,,,,,,,,,,,,,,,,,,,,,,,,,
10.5341,13.1482,0,3,3,3,1,"If it's true, press '1' (True) and if it's false press '0' (False).", (press the space bar to continue),6742237ff27899244266a74f,Mexican,13 or older,"no, only English or Spanish",no,2025-07-22_20h38.25.860,empathy_intonation_perc,2024.2.4,MacIntel,59.88023952,6742237ff27899244266a74f,687ed1b7e638a4cbf2f02089,68802ed737db532102e2863f,,,,,,,,,,,,,,,,,,,,,,,,,,,,,,,,,,,,,,,,,,,,,,,,,,,,,,,,,,,,,,,,,,,,,,,,,,,,,,,,,,,,,,,,,,,,,,,,,,,,,,,,,,
,,,,,,,,,6742237ff27899244266a74f,Mexican,13 or older,"no, only English or Spanish",no,2025-07-22_20h38.25.860,empathy_intonation_perc,2024.2.4,MacIntel,59.88023952,6742237ff27899244266a74f,687ed1b7e638a4cbf2f02089,68802ed737db532102e2863f,13.1563,82.2523,1,1,22.0305,,,0,0,0,0,1,1,1,The son asked the mom if Aunt Marina is okay.,./stim/exposure_wavs/ga_stimuli_convo.wav,47,,,,,,,,,,,,,,,,,,,,,,,,,,,,,,,,,,,,,,,,,,,,,,,,,,,,,,,,,,,,,,,,,,,,,,,,,,,,,,,,,,,,,,,,,
,,,,,,,,,6742237ff27899244266a74f,Mexican,13 or older,"no, only English or Spanish",no,2025-07-22_20h38.25.860,empathy_intonation_perc,2024.2.4,MacIntel,59.88023952,6742237ff27899244266a74f,687ed1b7e638a4cbf2f02089,68802ed737db532102e2863f,82.2549,125.1526,0,1,6.8685,,,0,1,1,2,1,3,0,The mom already has rice.,./stim/exposure_wavs/pr_stimuli_convo.wav,36,,,,,,,,,,,,,,,,,,,,,,,,,,,,,,,,,,,,,,,,,,,,,,,,,,,,,,,,,,,,,,,,,,,,,,,,,,,,,,,,,,,,,,,,,
,,,,,,,,,6742237ff27899244266a74f,Mexican,13 or older,"no, only English or Spanish",no,2025-07-22_20h38.25.860,empathy_intonation_perc,2024.2.4,MacIntel,59.88023952,6742237ff27899244266a74f,687ed1b7e638a4cbf2f02089,68802ed737db532102e2863f,125.1534,188.6718,1,1,3.4835,,,0,2,2,1,1,2,1,The mom asked the daughter if she already went to the supermarket.,./stim/exposure_wavs/dr_stimuli_convo.wav,60,,,,,,,,,,,,,,,,,,,,,,,,,,,,,,,,,,,,,,,,,,,,,,,,,,,,,,,,,,,,,,,,,,,,,,,,,,,,,,,,,,,,,,,,,
,,,,,,,"In the following task you are going to hear a series of utterances. 

  You will decide if the utterances sound like questions or not using your keyboard.", (press the spacebar to continue),6742237ff27899244266a74f,Mexican,13 or older,"no, only English or Spanish",no,2025-07-22_20h38.25.860,empathy_intonation_perc,2024.2.4,MacIntel,59.88023952,6742237ff27899244266a74f,687ed1b7e638a4cbf2f02089,68802ed737db532102e2863f,,,,,,,,,,,,,,,,,,188.6779,195.5885,0,0,0,0,1,,,,,,,,,,,,,,,,,,,,,,,,,,,,,,,,,,,,,,,,,,,,,,,,,,,,,,,,,,,,,,,,,,,,,,,,,,,,,,,,,,
,,,,,,,"If you believe the utterance is a question, type '1' (for 'yes') and if you do not 
  believe it is a question type '0' (for 'no').

  Let's practice a bit...", (press the spacebar to continue),6742237ff27899244266a74f,Mexican,13 or older,"no, only English or Spanish",no,2025-07-22_20h38.25.860,empathy_intonation_perc,2024.2.4,MacIntel,59.88023952,6742237ff27899244266a74f,687ed1b7e638a4cbf2f02089,68802ed737db532102e2863f,,,,,,,,,,,,,,,,,,195.5906,203.2891,0,1,1,1,1,,,,,,,,,,,,,,,,,,,,,,,,,,,,,,,,,,,,,,,,,,,,,,,,,,,,,,,,,,,,,,,,,,,,,,,,,,,,,,,,,,
,,,,,,,,,6742237ff27899244266a74f,Mexican,13 or older,"no, only English or Spanish",no,2025-07-22_20h38.25.860,empathy_intonation_perc,2024.2.4,MacIntel,59.88023952,6742237ff27899244266a74f,687ed1b7e638a4cbf2f02089,68802ed737db532102e2863f,,,,,,,,,,,,,,0,,./stim/wavs/andalusian_statement_filler_Alberto-nunca-se-afeita.wav,,,,,,,,,203.296,208.6228,0,1,4.8037,,0,0,0,5,1,,,,,,,,,,,,,,,,,,,,,,,,,,,,,,,,,,,,,,,,,,,,,,,,,,,,,,,,,,,,,,,,,,,,,,,
,,,,,,,,,6742237ff27899244266a74f,Mexican,13 or older,"no, only English or Spanish",no,2025-07-22_20h38.25.860,empathy_intonation_perc,2024.2.4,MacIntel,59.88023952,6742237ff27899244266a74f,687ed1b7e638a4cbf2f02089,68802ed737db532102e2863f,,,,,,,,,,,,,,1,,./stim/wavs/castilian_question_filler_Mi-esposo-conoce-al-chico.wav,,,,,,,,,208.6239,212.1226,1,1,2.9694,,0,1,1,0,1,,,,,,,,,,,,,,,,,,,,,,,,,,,,,,,,,,,,,,,,,,,,,,,,,,,,,,,,,,,,,,,,,,,,,,,
,,,,,,,,,6742237ff27899244266a74f,Mexican,13 or older,"no, only English or Spanish",no,2025-07-22_20h38.25.860,empathy_intonation_perc,2024.2.4,MacIntel,59.88023952,6742237ff27899244266a74f,687ed1b7e638a4cbf2f02089,68802ed737db532102e2863f,,,,,,,,,,,,,,1,,./stim/wavs/argentine_question_filler_Mi-vecino-habla-mucho.wav,,,,,,,,,212.1234,215.5059,1,1,2.8509,,0,2,2,1,1,,,,,,,,,,,,,,,,,,,,,,,,,,,,,,,,,,,,,,,,,,,,,,,,,,,,,,,,,,,,,,,,,,,,,,,
,,,,,,,,,6742237ff27899244266a74f,Mexican,13 or older,"no, only English or Spanish",no,2025-07-22_20h38.25.860,empathy_intonation_perc,2024.2.4,MacIntel,59.88023952,6742237ff27899244266a74f,687ed1b7e638a4cbf2f02089,68802ed737db532102e2863f,,,,,,,,,,,,,,1,,./stim/wavs/mexican_question_filler_Felipe-no-tiene-contrasena.wav,,,,,,,,,215.5067,218.1228,1,1,2.0838,,0,3,3,3,1,,,,,,,,,,,,,,,,,,,,,,,,,,,,,,,,,,,,,,,,,,,,,,,,,,,,,,,,,,,,,,,,,,,,,,,
,,,,,,,,,6742237ff27899244266a74f,Mexican,13 or older,"no, only English or Spanish",no,2025-07-22_20h38.25.860,empathy_intonation_perc,2024.2.4,MacIntel,59.88023952,6742237ff27899244266a74f,687ed1b7e638a4cbf2f02089,68802ed737db532102e2863f,,,,,,,,,,,,,,1,,./stim/wavs/chilean_question_filler_Mi-padre-cantaba-bien.wav,,,,,,,,,218.1235,221.3728,0,0,2.7148,,0,4,4,2,1,,,,,,,,,,,,,,,,,,,,,,,,,,,,,,,,,,,,,,,,,,,,,,,,,,,,,,,,,,,,,,,,,,,,,,,
,,,,,,,,,6742237ff27899244266a74f,Mexican,13 or older,"no, only English or Spanish",no,2025-07-22_20h38.25.860,empathy_intonation_perc,2024.2.4,MacIntel,59.88023952,6742237ff27899244266a74f,687ed1b7e638a4cbf2f02089,68802ed737db532102e2863f,,,,,,,,,,,,,,0,,./stim/wavs/peruvian_statement_filler_El-nino-habla-con-su-madre.wav,,,,,,,,,221.3736,224.223,0,1,2.3159,,0,5,5,6,1,,,,,,,,,,,,,,,,,,,,,,,,,,,,,,,,,,,,,,,,,,,,,,,,,,,,,,,,,,,,,,,,,,,,,,,
,,,,,,,,,6742237ff27899244266a74f,Mexican,13 or older,"no, only English or Spanish",no,2025-07-22_20h38.25.860,empathy_intonation_perc,2024.2.4,MacIntel,59.88023952,6742237ff27899244266a74f,687ed1b7e638a4cbf2f02089,68802ed737db532102e2863f,,,,,,,,,,,,,,0,,./stim/wavs/puertorican_statement_filler_La-nina-pinta-con-su-amiga.wav,,,,,,,,,224.2237,226.6563,0,1,1.9001,,0,6,6,7,1,,,,,,,,,,,,,,,,,,,,,,,,,,,,,,,,,,,,,,,,,,,,,,,,,,,,,,,,,,,,,,,,,,,,,,,
,,,,,,,,,6742237ff27899244266a74f,Mexican,13 or older,"no, only English or Spanish",no,2025-07-22_20h38.25.860,empathy_intonation_perc,2024.2.4,MacIntel,59.88023952,6742237ff27899244266a74f,687ed1b7e638a4cbf2f02089,68802ed737db532102e2863f,,,,,,,,,,,,,,0,,./stim/wavs/cuban_statement_filler_Cocinabas-por-la-noche.wav,,,,,,,,,226.6569,228.7898,0,1,1.6007,,0,7,7,4,1,,,,,,,,,,,,,,,,,,,,,,,,,,,,,,,,,,,,,,,,,,,,,,,,,,,,,,,,,,,,,,,,,,,,,,,
,,,,,,,,,6742237ff27899244266a74f,Mexican,13 or older,"no, only English or Spanish",no,2025-07-22_20h38.25.860,empathy_intonation_perc,2024.2.4,MacIntel,59.88023952,6742237ff27899244266a74f,687ed1b7e638a4cbf2f02089,68802ed737db532102e2863f,,,,,,,,,,,,,,,,,,,,,,,,,,,,,,,,,,,,228.7902,231.7237,,,,,,,,,,,,,,,,,,,,,,,,,,,,,,,,,,,,,,,,,,,,,,,,,,,,,,,,,,,,,,,,,,,,,
,,,,,,,,,6742237ff27899244266a74f,Mexican,13 or older,"no, only English or Spanish",no,2025-07-22_20h38.25.860,empathy_intonation_perc,2024.2.4,MacIntel,59.88023952,6742237ff27899244266a74f,687ed1b7e638a4cbf2f02089,68802ed737db532102e2863f,,,,,,,,,,,,,76,0,,./stim/wavs/cuban_mismatch_declarative-broad-focus_La-nina-lava-el-plato.wav,,,,,,,,,,,,,,,,,,,,,,231.7336,234.2063,0,1,1.956,,0,0,0,75,1,0,cuban,,,,,,,,,,,,,,,,,,,,,,,,,,,,,,,,,,,,,,,,,,,,,,,,,,,,,,,,
,,,,,,,,,6742237ff27899244266a74f,Mexican,13 or older,"no, only English or Spanish",no,2025-07-22_20h38.25.860,empathy_intonation_perc,2024.2.4,MacIntel,59.88023952,6742237ff27899244266a74f,687ed1b7e638a4cbf2f02089,68802ed737db532102e2863f,,,,,,,,,,,,,49,0,,./stim/wavs/castilian_match_declarative-broad-focus_Mariano-habla-del-tiempo.wav,,,,,,,,,,,,,,,,,,,,,,234.2068,236.5564,0,1,1.8179,,0,1,1,48,1,0,castilian,,,,,,,,,,,,,,,,,,,,,,,,,,,,,,,,,,,,,,,,,,,,,,,,,,,,,,,,
,,,,,,,,,6742237ff27899244266a74f,Mexican,13 or older,"no, only English or Spanish",no,2025-07-22_20h38.25.860,empathy_intonation_perc,2024.2.4,MacIntel,59.88023952,6742237ff27899244266a74f,687ed1b7e638a4cbf2f02089,68802ed737db532102e2863f,,,,,,,,,,,,,55,0,,./stim/wavs/cuban_match_declarative-broad-focus_Mariano-habla-del-tiempo.wav,,,,,,,,,,,,,,,,,,,,,,236.5572,238.7734,0,1,1.6848,,0,2,2,54,1,0,cuban,,,,,,,,,,,,,,,,,,,,,,,,,,,,,,,,,,,,,,,,,,,,,,,,,,,,,,,,
,,,,,,,,,6742237ff27899244266a74f,Mexican,13 or older,"no, only English or Spanish",no,2025-07-22_20h38.25.860,empathy_intonation_perc,2024.2.4,MacIntel,59.88023952,6742237ff27899244266a74f,687ed1b7e638a4cbf2f02089,68802ed737db532102e2863f,,,,,,,,,,,,,82,0,,./stim/wavs/mexican_mismatch_declarative-broad-focus_Mi-novio-viene-del-lago.wav,,,,,,,,,,,,,,,,,,,,,,238.774,240.8067,0,1,1.5027,,0,3,3,81,1,0,mexican,,,,,,,,,,,,,,,,,,,,,,,,,,,,,,,,,,,,,,,,,,,,,,,,,,,,,,,,
,,,,,,,,,6742237ff27899244266a74f,Mexican,13 or older,"no, only English or Spanish",no,2025-07-22_20h38.25.860,empathy_intonation_perc,2024.2.4,MacIntel,59.88023952,6742237ff27899244266a74f,687ed1b7e638a4cbf2f02089,68802ed737db532102e2863f,,,,,,,,,,,,,77,0,,./stim/wavs/cuban_mismatch_declarative-broad-focus_Mi-novio-viene-del-lago.wav,,,,,,,,,,,,,,,,,,,,,,240.8072,243.4069,0,1,2.0672,,0,4,4,76,1,0,cuban,,,,,,,,,,,,,,,,,,,,,,,,,,,,,,,,,,,,,,,,,,,,,,,,,,,,,,,,
,,,,,,,,,6742237ff27899244266a74f,Mexican,13 or older,"no, only English or Spanish",no,2025-07-22_20h38.25.860,empathy_intonation_perc,2024.2.4,MacIntel,59.88023952,6742237ff27899244266a74f,687ed1b7e638a4cbf2f02089,68802ed737db532102e2863f,,,,,,,,,,,,,70,0,,./stim/wavs/castilian_mismatch_declarative-broad-focus_La-maestra-vive-en-Paris.wav,,,,,,,,,,,,,,,,,,,,,,243.4076,245.8237,0,1,1.8956,,0,5,5,69,1,0,castilian,,,,,,,,,,,,,,,,,,,,,,,,,,,,,,,,,,,,,,,,,,,,,,,,,,,,,,,,
,,,,,,,,,6742237ff27899244266a74f,Mexican,13 or older,"no, only English or Spanish",no,2025-07-22_20h38.25.860,empathy_intonation_perc,2024.2.4,MacIntel,59.88023952,6742237ff27899244266a74f,687ed1b7e638a4cbf2f02089,68802ed737db532102e2863f,,,,,,,,,,,,,32,1,,./stim/wavs/cuban_mismatch_interrogative-total-yn_Mi-madre-come-la-fruta.wav,,,,,,,,,,,,,,,,,,,,,,245.8244,248.3901,0,0,2.0431,,0,6,6,31,1,1,cuban,,,,,,,,,,,,,,,,,,,,,,,,,,,,,,,,,,,,,,,,,,,,,,,,,,,,,,,,
,,,,,,,,,6742237ff27899244266a74f,Mexican,13 or older,"no, only English or Spanish",no,2025-07-22_20h38.25.860,empathy_intonation_perc,2024.2.4,MacIntel,59.88023952,6742237ff27899244266a74f,687ed1b7e638a4cbf2f02089,68802ed737db532102e2863f,,,,,,,,,,,,,67,0,,./stim/wavs/puertorican_match_declarative-broad-focus_Manuela-vende-el-carro.wav,,,,,,,,,,,,,,,,,,,,,,248.3907,250.5738,0,1,1.6497,,0,7,7,66,1,0,puertorican,,,,,,,,,,,,,,,,,,,,,,,,,,,,,,,,,,,,,,,,,,,,,,,,,,,,,,,,
,,,,,,,,,6742237ff27899244266a74f,Mexican,13 or older,"no, only English or Spanish",no,2025-07-22_20h38.25.860,empathy_intonation_perc,2024.2.4,MacIntel,59.88023952,6742237ff27899244266a74f,687ed1b7e638a4cbf2f02089,68802ed737db532102e2863f,,,,,,,,,,,,,63,0,,./stim/wavs/puertorican_match_declarative-broad-focus_Ana-lleva-el-abrigo.wav,,,,,,,,,,,,,,,,,,,,,,250.5743,252.4238,0,1,1.3217,,0,8,8,62,1,0,puertorican,,,,,,,,,,,,,,,,,,,,,,,,,,,,,,,,,,,,,,,,,,,,,,,,,,,,,,,,
,,,,,,,,,6742237ff27899244266a74f,Mexican,13 or older,"no, only English or Spanish",no,2025-07-22_20h38.25.860,empathy_intonation_perc,2024.2.4,MacIntel,59.88023952,6742237ff27899244266a74f,687ed1b7e638a4cbf2f02089,68802ed737db532102e2863f,,,,,,,,,,,,,34,1,,./stim/wavs/cuban_mismatch_interrogative-total-yn_Mi-tia-odia-la-lluvia.wav,,,,,,,,,,,,,,,,,,,,,,252.4245,255.0239,0,0,2.0716,,0,9,9,33,1,1,cuban,,,,,,,,,,,,,,,,,,,,,,,,,,,,,,,,,,,,,,,,,,,,,,,,,,,,,,,,
,,,,,,,,,6742237ff27899244266a74f,Mexican,13 or older,"no, only English or Spanish",no,2025-07-22_20h38.25.860,empathy_intonation_perc,2024.2.4,MacIntel,59.88023952,6742237ff27899244266a74f,687ed1b7e638a4cbf2f02089,68802ed737db532102e2863f,,,,,,,,,,,,,15,1,,./stim/wavs/mexican_match_interrogative-total-yn_David-leia-el-libro.wav,,,,,,,,,,,,,,,,,,,,,,255.0245,257.2407,1,1,1.6833,,0,10,10,14,1,0,mexican,,,,,,,,,,,,,,,,,,,,,,,,,,,,,,,,,,,,,,,,,,,,,,,,,,,,,,,,
,,,,,,,,,6742237ff27899244266a74f,Mexican,13 or older,"no, only English or Spanish",no,2025-07-22_20h38.25.860,empathy_intonation_perc,2024.2.4,MacIntel,59.88023952,6742237ff27899244266a74f,687ed1b7e638a4cbf2f02089,68802ed737db532102e2863f,,,,,,,,,,,,,23,1,,./stim/wavs/puertorican_match_interrogative-total-yn_Manuela-vende-el-carro.wav,,,,,,,,,,,,,,,,,,,,,,257.2413,260.1236,1,1,2.362,,0,11,11,22,1,1,puertorican,,,,,,,,,,,,,,,,,,,,,,,,,,,,,,,,,,,,,,,,,,,,,,,,,,,,,,,,
,,,,,,,,,6742237ff27899244266a74f,Mexican,13 or older,"no, only English or Spanish",no,2025-07-22_20h38.25.860,empathy_intonation_perc,2024.2.4,MacIntel,59.88023952,6742237ff27899244266a74f,687ed1b7e638a4cbf2f02089,68802ed737db532102e2863f,,,,,,,,,,,,,71,0,,./stim/wavs/castilian_mismatch_declarative-broad-focus_La-nina-lava-el-plato.wav,,,,,,,,,,,,,,,,,,,,,,260.1243,262.5235,0,1,1.8669,,0,12,12,70,1,0,castilian,,,,,,,,,,,,,,,,,,,,,,,,,,,,,,,,,,,,,,,,,,,,,,,,,,,,,,,,
,,,,,,,,,6742237ff27899244266a74f,Mexican,13 or older,"no, only English or Spanish",no,2025-07-22_20h38.25.860,empathy_intonation_perc,2024.2.4,MacIntel,59.88023952,6742237ff27899244266a74f,687ed1b7e638a4cbf2f02089,68802ed737db532102e2863f,,,,,,,,,,,,,35,1,,./stim/wavs/mexican_mismatch_interrogative-total-yn_El-hombre-mira-la-luna.wav,,,,,,,,,,,,,,,,,,,,,,262.524,264.7908,0,0,1.7515,,0,13,13,34,1,0,mexican,,,,,,,,,,,,,,,,,,,,,,,,,,,,,,,,,,,,,,,,,,,,,,,,,,,,,,,,
,,,,,,,,,6742237ff27899244266a74f,Mexican,13 or older,"no, only English or Spanish",no,2025-07-22_20h38.25.860,empathy_intonation_perc,2024.2.4,MacIntel,59.88023952,6742237ff27899244266a74f,687ed1b7e638a4cbf2f02089,68802ed737db532102e2863f,,,,,,,,,,,,,2,1,,./stim/wavs/castilian_match_interrogative-total-yn_Emilio-ama-la-marcha.wav,,,,,,,,,,,,,,,,,,,,,,264.7913,265.3577,1,1,0.0464,,0,14,14,1,1,0,castilian,,,,,,,,,,,,,,,,,,,,,,,,,,,,,,,,,,,,,,,,,,,,,,,,,,,,,,,,
,,,,,,,,,6742237ff27899244266a74f,Mexican,13 or older,"no, only English or Spanish",no,2025-07-22_20h38.25.860,empathy_intonation_perc,2024.2.4,MacIntel,59.88023952,6742237ff27899244266a74f,687ed1b7e638a4cbf2f02089,68802ed737db532102e2863f,,,,,,,,,,,,,81,0,,./stim/wavs/mexican_mismatch_declarative-broad-focus_La-maestra-vive-en-Paris.wav,,,,,,,,,,,,,,,,,,,,,,265.3584,268.1743,0,1,2.2824,,0,15,15,80,1,0,mexican,,,,,,,,,,,,,,,,,,,,,,,,,,,,,,,,,,,,,,,,,,,,,,,,,,,,,,,,
,,,,,,,,,6742237ff27899244266a74f,Mexican,13 or older,"no, only English or Spanish",no,2025-07-22_20h38.25.860,empathy_intonation_perc,2024.2.4,MacIntel,59.88023952,6742237ff27899244266a74f,687ed1b7e638a4cbf2f02089,68802ed737db532102e2863f,,,,,,,,,,,,,69,0,,./stim/wavs/castilian_mismatch_declarative-broad-focus_El-nino-oye-el-rio.wav,,,,,,,,,,,,,,,,,,,,,,268.1749,270.4744,0,1,1.7673,,0,16,16,68,1,0,castilian,,,,,,,,,,,,,,,,,,,,,,,,,,,,,,,,,,,,,,,,,,,,,,,,,,,,,,,,
,,,,,,,,,6742237ff27899244266a74f,Mexican,13 or older,"no, only English or Spanish",no,2025-07-22_20h38.25.860,empathy_intonation_perc,2024.2.4,MacIntel,59.88023952,6742237ff27899244266a74f,687ed1b7e638a4cbf2f02089,68802ed737db532102e2863f,,,,,,,,,,,,,27,1,,./stim/wavs/castilian_mismatch_interrogative-total-yn_Mi-madre-come-la-fruta.wav,,,,,,,,,,,,,,,,,,,,,,270.4749,272.941,1,1,1.9382,,0,17,17,26,1,0,castilian,,,,,,,,,,,,,,,,,,,,,,,,,,,,,,,,,,,,,,,,,,,,,,,,,,,,,,,,
,,,,,,,,,6742237ff27899244266a74f,Mexican,13 or older,"no, only English or Spanish",no,2025-07-22_20h38.25.860,empathy_intonation_perc,2024.2.4,MacIntel,59.88023952,6742237ff27899244266a74f,687ed1b7e638a4cbf2f02089,68802ed737db532102e2863f,,,,,,,,,,,,,20,1,,./stim/wavs/puertorican_match_interrogative-total-yn_Daniel-iba-a-Bolivia.wav,,,,,,,,,,,,,,,,,,,,,,272.9417,275.0579,0,0,1.5859,,0,18,18,19,1,1,puertorican,,,,,,,,,,,,,,,,,,,,,,,,,,,,,,,,,,,,,,,,,,,,,,,,,,,,,,,,
,,,,,,,,,6742237ff27899244266a74f,Mexican,13 or older,"no, only English or Spanish",no,2025-07-22_20h38.25.860,empathy_intonation_perc,2024.2.4,MacIntel,59.88023952,6742237ff27899244266a74f,687ed1b7e638a4cbf2f02089,68802ed737db532102e2863f,,,,,,,,,,,,,79,0,,./stim/wavs/mexican_mismatch_declarative-broad-focus_El-bebe-comia-muy-bien.wav,,,,,,,,,,,,,,,,,,,,,,275.0587,277.2746,0,1,1.684,,0,19,19,78,1,0,mexican,,,,,,,,,,,,,,,,,,,,,,,,,,,,,,,,,,,,,,,,,,,,,,,,,,,,,,,,
,,,,,,,,,6742237ff27899244266a74f,Mexican,13 or older,"no, only English or Spanish",no,2025-07-22_20h38.25.860,empathy_intonation_perc,2024.2.4,MacIntel,59.88023952,6742237ff27899244266a74f,687ed1b7e638a4cbf2f02089,68802ed737db532102e2863f,,,,,,,,,,,,,62,0,,./stim/wavs/mexican_match_declarative-broad-focus_Marta-abre-el-regalo.wav,,,,,,,,,,,,,,,,,,,,,,277.2755,279.1748,0,1,1.3679,,0,20,20,61,1,0,mexican,,,,,,,,,,,,,,,,,,,,,,,,,,,,,,,,,,,,,,,,,,,,,,,,,,,,,,,,
,,,,,,,,,6742237ff27899244266a74f,Mexican,13 or older,"no, only English or Spanish",no,2025-07-22_20h38.25.860,empathy_intonation_perc,2024.2.4,MacIntel,59.88023952,6742237ff27899244266a74f,687ed1b7e638a4cbf2f02089,68802ed737db532102e2863f,,,,,,,,,,,,,73,0,,./stim/wavs/castilian_mismatch_declarative-broad-focus_Mi-tia-odia-la-lluvia.wav,,,,,,,,,,,,,,,,,,,,,,279.1754,281.3748,0,1,1.6674,,0,21,21,72,1,0,castilian,,,,,,,,,,,,,,,,,,,,,,,,,,,,,,,,,,,,,,,,,,,,,,,,,,,,,,,,
,,,,,,,,,6742237ff27899244266a74f,Mexican,13 or older,"no, only English or Spanish",no,2025-07-22_20h38.25.860,empathy_intonation_perc,2024.2.4,MacIntel,59.88023952,6742237ff27899244266a74f,687ed1b7e638a4cbf2f02089,68802ed737db532102e2863f,,,,,,,,,,,,,5,1,,./stim/wavs/castilian_match_interrogative-total-yn_Mariano-habla-del-tiempo.wav,,,,,,,,,,,,,,,,,,,,,,281.3755,283.8915,1,1,1.9839,,0,22,22,4,1,0,castilian,,,,,,,,,,,,,,,,,,,,,,,,,,,,,,,,,,,,,,,,,,,,,,,,,,,,,,,,
,,,,,,,,,6742237ff27899244266a74f,Mexican,13 or older,"no, only English or Spanish",no,2025-07-22_20h38.25.860,empathy_intonation_perc,2024.2.4,MacIntel,59.88023952,6742237ff27899244266a74f,687ed1b7e638a4cbf2f02089,68802ed737db532102e2863f,,,,,,,,,,,,,26,1,,./stim/wavs/castilian_mismatch_interrogative-total-yn_La-nina-lava-el-plato.wav,,,,,,,,,,,,,,,,,,,,,,283.8923,286.2581,1,1,1.8335,,0,23,23,25,1,0,castilian,,,,,,,,,,,,,,,,,,,,,,,,,,,,,,,,,,,,,,,,,,,,,,,,,,,,,,,,
,,,,,,,,,6742237ff27899244266a74f,Mexican,13 or older,"no, only English or Spanish",no,2025-07-22_20h38.25.860,empathy_intonation_perc,2024.2.4,MacIntel,59.88023952,6742237ff27899244266a74f,687ed1b7e638a4cbf2f02089,68802ed737db532102e2863f,,,,,,,,,,,,,47,0,,./stim/wavs/castilian_match_declarative-broad-focus_Manuela-vende-el-carro.wav,,,,,,,,,,,,,,,,,,,,,,286.2587,288.7082,0,1,1.9224,,0,24,24,46,1,0,castilian,,,,,,,,,,,,,,,,,,,,,,,,,,,,,,,,,,,,,,,,,,,,,,,,,,,,,,,,
,,,,,,,,,6742237ff27899244266a74f,Mexican,13 or older,"no, only English or Spanish",no,2025-07-22_20h38.25.860,empathy_intonation_perc,2024.2.4,MacIntel,59.88023952,6742237ff27899244266a74f,687ed1b7e638a4cbf2f02089,68802ed737db532102e2863f,,,,,,,,,,,,,24,1,,./stim/wavs/puertorican_match_interrogative-total-yn_Maria-bebe-el-vino.wav,,,,,,,,,,,,,,,,,,,,,,288.7087,291.175,0,0,1.9347,,0,25,25,23,1,1,puertorican,,,,,,,,,,,,,,,,,,,,,,,,,,,,,,,,,,,,,,,,,,,,,,,,,,,,,,,,
,,,,,,,,,6742237ff27899244266a74f,Mexican,13 or older,"no, only English or Spanish",no,2025-07-22_20h38.25.860,empathy_intonation_perc,2024.2.4,MacIntel,59.88023952,6742237ff27899244266a74f,687ed1b7e638a4cbf2f02089,68802ed737db532102e2863f,,,,,,,,,,,,,64,0,,./stim/wavs/puertorican_match_declarative-broad-focus_Daniel-iba-a-Bolivia.wav,,,,,,,,,,,,,,,,,,,,,,291.1757,293.1419,0,1,1.4352,,0,26,26,63,1,0,puertorican,,,,,,,,,,,,,,,,,,,,,,,,,,,,,,,,,,,,,,,,,,,,,,,,,,,,,,,,
,,,,,,,,,6742237ff27899244266a74f,Mexican,13 or older,"no, only English or Spanish",no,2025-07-22_20h38.25.860,empathy_intonation_perc,2024.2.4,MacIntel,59.88023952,6742237ff27899244266a74f,687ed1b7e638a4cbf2f02089,68802ed737db532102e2863f,,,,,,,,,,,,,7,1,,./stim/wavs/cuban_match_interrogative-total-yn_Ana-lleva-el-abrigo.wav,,,,,,,,,,,,,,,,,,,,,,293.1425,295.1584,0,0,1.4923,,0,27,27,6,1,1,cuban,,,,,,,,,,,,,,,,,,,,,,,,,,,,,,,,,,,,,,,,,,,,,,,,,,,,,,,,
,,,,,,,,,6742237ff27899244266a74f,Mexican,13 or older,"no, only English or Spanish",no,2025-07-22_20h38.25.860,empathy_intonation_perc,2024.2.4,MacIntel,59.88023952,6742237ff27899244266a74f,687ed1b7e638a4cbf2f02089,68802ed737db532102e2863f,,,,,,,,,,,,,39,1,,./stim/wavs/mexican_mismatch_interrogative-total-yn_Mi-tia-odia-la-lluvia.wav,,,,,,,,,,,,,,,,,,,,,,295.159,297.192,1,1,1.5001,,0,28,28,38,1,0,mexican,,,,,,,,,,,,,,,,,,,,,,,,,,,,,,,,,,,,,,,,,,,,,,,,,,,,,,,,
,,,,,,,,,6742237ff27899244266a74f,Mexican,13 or older,"no, only English or Spanish",no,2025-07-22_20h38.25.860,empathy_intonation_perc,2024.2.4,MacIntel,59.88023952,6742237ff27899244266a74f,687ed1b7e638a4cbf2f02089,68802ed737db532102e2863f,,,,,,,,,,,,,78,0,,./stim/wavs/cuban_mismatch_declarative-broad-focus_Mi-tia-odia-la-lluvia.wav,,,,,,,,,,,,,,,,,,,,,,297.1928,299.3753,0,1,1.6512,,0,29,29,77,1,0,cuban,,,,,,,,,,,,,,,,,,,,,,,,,,,,,,,,,,,,,,,,,,,,,,,,,,,,,,,,
,,,,,,,,,6742237ff27899244266a74f,Mexican,13 or older,"no, only English or Spanish",no,2025-07-22_20h38.25.860,empathy_intonation_perc,2024.2.4,MacIntel,59.88023952,6742237ff27899244266a74f,687ed1b7e638a4cbf2f02089,68802ed737db532102e2863f,,,,,,,,,,,,,28,1,,./stim/wavs/castilian_mismatch_interrogative-total-yn_Mi-novio-viene-del-lago.wav,,,,,,,,,,,,,,,,,,,,,,299.3758,301.7917,1,1,1.8942,,0,30,30,27,1,0,castilian,,,,,,,,,,,,,,,,,,,,,,,,,,,,,,,,,,,,,,,,,,,,,,,,,,,,,,,,
,,,,,,,,,6742237ff27899244266a74f,Mexican,13 or older,"no, only English or Spanish",no,2025-07-22_20h38.25.860,empathy_intonation_perc,2024.2.4,MacIntel,59.88023952,6742237ff27899244266a74f,687ed1b7e638a4cbf2f02089,68802ed737db532102e2863f,,,,,,,,,,,,,84,0,,./stim/wavs/puertorican_mismatch_declarative-broad-focus_El-bebe-comia-muy-bien.wav,,,,,,,,,,,,,,,,,,,,,,301.792,303.8083,0,1,1.5027,,0,31,31,83,1,0,puertorican,,,,,,,,,,,,,,,,,,,,,,,,,,,,,,,,,,,,,,,,,,,,,,,,,,,,,,,,
,,,,,,,,,6742237ff27899244266a74f,Mexican,13 or older,"no, only English or Spanish",no,2025-07-22_20h38.25.860,empathy_intonation_perc,2024.2.4,MacIntel,59.88023952,6742237ff27899244266a74f,687ed1b7e638a4cbf2f02089,68802ed737db532102e2863f,,,,,,,,,,,,,46,0,,./stim/wavs/castilian_match_declarative-broad-focus_Emilio-ama-la-marcha.wav,,,,,,,,,,,,,,,,,,,,,,303.8092,306.0581,0,1,1.7173,,0,32,32,45,1,0,castilian,,,,,,,,,,,,,,,,,,,,,,,,,,,,,,,,,,,,,,,,,,,,,,,,,,,,,,,,
,,,,,,,,,6742237ff27899244266a74f,Mexican,13 or older,"no, only English or Spanish",no,2025-07-22_20h38.25.860,empathy_intonation_perc,2024.2.4,MacIntel,59.88023952,6742237ff27899244266a74f,687ed1b7e638a4cbf2f02089,68802ed737db532102e2863f,,,,,,,,,,,,,18,1,,./stim/wavs/mexican_match_interrogative-total-yn_Marta-abre-el-regalo.wav,,,,,,,,,,,,,,,,,,,,,,306.0591,308.1424,1,1,1.5504,,0,33,33,17,1,0,mexican,,,,,,,,,,,,,,,,,,,,,,,,,,,,,,,,,,,,,,,,,,,,,,,,,,,,,,,,
,,,,,,,,,6742237ff27899244266a74f,Mexican,13 or older,"no, only English or Spanish",no,2025-07-22_20h38.25.860,empathy_intonation_perc,2024.2.4,MacIntel,59.88023952,6742237ff27899244266a74f,687ed1b7e638a4cbf2f02089,68802ed737db532102e2863f,,,,,,,,,,,,,83,0,,./stim/wavs/mexican_mismatch_declarative-broad-focus_Mi-tia-odia-la-lluvia.wav,,,,,,,,,,,,,,,,,,,,,,308.1431,310.1424,0,1,1.4665,,0,34,34,82,1,0,mexican,,,,,,,,,,,,,,,,,,,,,,,,,,,,,,,,,,,,,,,,,,,,,,,,,,,,,,,,
,,,,,,,,,6742237ff27899244266a74f,Mexican,13 or older,"no, only English or Spanish",no,2025-07-22_20h38.25.860,empathy_intonation_perc,2024.2.4,MacIntel,59.88023952,6742237ff27899244266a74f,687ed1b7e638a4cbf2f02089,68802ed737db532102e2863f,,,,,,,,,,,,,44,1,,./stim/wavs/puertorican_mismatch_interrogative-total-yn_Mi-madre-come-la-fruta.wav,,,,,,,,,,,,,,,,,,,,,,310.1432,312.3754,0,0,1.6999,,0,35,35,43,1,1,puertorican,,,,,,,,,,,,,,,,,,,,,,,,,,,,,,,,,,,,,,,,,,,,,,,,,,,,,,,,
,,,,,,,,,6742237ff27899244266a74f,Mexican,13 or older,"no, only English or Spanish",no,2025-07-22_20h38.25.860,empathy_intonation_perc,2024.2.4,MacIntel,59.88023952,6742237ff27899244266a74f,687ed1b7e638a4cbf2f02089,68802ed737db532102e2863f,,,,,,,,,,,,,72,0,,./stim/wavs/castilian_mismatch_declarative-broad-focus_Mi-novio-viene-del-lago.wav,,,,,,,,,,,,,,,,,,,,,,312.3757,313.8924,0,1,0.9897,,0,36,36,71,1,0,castilian,,,,,,,,,,,,,,,,,,,,,,,,,,,,,,,,,,,,,,,,,,,,,,,,,,,,,,,,
,,,,,,,,,6742237ff27899244266a74f,Mexican,13 or older,"no, only English or Spanish",no,2025-07-22_20h38.25.860,empathy_intonation_perc,2024.2.4,MacIntel,59.88023952,6742237ff27899244266a74f,687ed1b7e638a4cbf2f02089,68802ed737db532102e2863f,,,,,,,,,,,,,57,0,,./stim/wavs/mexican_match_declarative-broad-focus_Ana-lleva-el-abrigo.wav,,,,,,,,,,,,,,,,,,,,,,313.8929,315.9588,0,1,1.5454,,0,37,37,56,1,0,mexican,,,,,,,,,,,,,,,,,,,,,,,,,,,,,,,,,,,,,,,,,,,,,,,,,,,,,,,,
,,,,,,,,,6742237ff27899244266a74f,Mexican,13 or older,"no, only English or Spanish",no,2025-07-22_20h38.25.860,empathy_intonation_perc,2024.2.4,MacIntel,59.88023952,6742237ff27899244266a74f,687ed1b7e638a4cbf2f02089,68802ed737db532102e2863f,,,,,,,,,,,,,9,1,,./stim/wavs/cuban_match_interrogative-total-yn_Manuela-vende-el-carro.wav,,,,,,,,,,,,,,,,,,,,,,315.9591,318.0928,0,0,1.6219,,0,38,38,8,1,1,cuban,,,,,,,,,,,,,,,,,,,,,,,,,,,,,,,,,,,,,,,,,,,,,,,,,,,,,,,,
,,,,,,,,,6742237ff27899244266a74f,Mexican,13 or older,"no, only English or Spanish",no,2025-07-22_20h38.25.860,empathy_intonation_perc,2024.2.4,MacIntel,59.88023952,6742237ff27899244266a74f,687ed1b7e638a4cbf2f02089,68802ed737db532102e2863f,,,,,,,,,,,,,16,1,,./stim/wavs/mexican_match_interrogative-total-yn_Emilio-ama-la-marcha.wav,,,,,,,,,,,,,,,,,,,,,,318.0936,320.4595,1,1,1.8331,,0,39,39,15,1,0,mexican,,,,,,,,,,,,,,,,,,,,,,,,,,,,,,,,,,,,,,,,,,,,,,,,,,,,,,,,
,,,,,,,,,6742237ff27899244266a74f,Mexican,13 or older,"no, only English or Spanish",no,2025-07-22_20h38.25.860,empathy_intonation_perc,2024.2.4,MacIntel,59.88023952,6742237ff27899244266a74f,687ed1b7e638a4cbf2f02089,68802ed737db532102e2863f,,,,,,,,,,,,,13,1,,./stim/wavs/mexican_match_interrogative-total-yn_Ana-lleva-el-abrigo.wav,,,,,,,,,,,,,,,,,,,,,,320.4602,322.7428,1,1,1.7541,,0,40,40,12,1,0,mexican,,,,,,,,,,,,,,,,,,,,,,,,,,,,,,,,,,,,,,,,,,,,,,,,,,,,,,,,
,,,,,,,,,6742237ff27899244266a74f,Mexican,13 or older,"no, only English or Spanish",no,2025-07-22_20h38.25.860,empathy_intonation_perc,2024.2.4,MacIntel,59.88023952,6742237ff27899244266a74f,687ed1b7e638a4cbf2f02089,68802ed737db532102e2863f,,,,,,,,,,,,,3,1,,./stim/wavs/castilian_match_interrogative-total-yn_Manuela-vende-el-carro.wav,,,,,,,,,,,,,,,,,,,,,,322.7437,325.0263,1,1,1.7508,,0,41,41,2,1,0,castilian,,,,,,,,,,,,,,,,,,,,,,,,,,,,,,,,,,,,,,,,,,,,,,,,,,,,,,,,
,,,,,,,,,6742237ff27899244266a74f,Mexican,13 or older,"no, only English or Spanish",no,2025-07-22_20h38.25.860,empathy_intonation_perc,2024.2.4,MacIntel,59.88023952,6742237ff27899244266a74f,687ed1b7e638a4cbf2f02089,68802ed737db532102e2863f,,,,,,,,,,,,,37,1,,./stim/wavs/mexican_mismatch_interrogative-total-yn_La-maestra-vive-en-Paris.wav,,,,,,,,,,,,,,,,,,,,,,325.0268,327.6597,1,1,2.1002,,0,42,42,36,1,0,mexican,,,,,,,,,,,,,,,,,,,,,,,,,,,,,,,,,,,,,,,,,,,,,,,,,,,,,,,,
,,,,,,,,,6742237ff27899244266a74f,Mexican,13 or older,"no, only English or Spanish",no,2025-07-22_20h38.25.860,empathy_intonation_perc,2024.2.4,MacIntel,59.88023952,6742237ff27899244266a74f,687ed1b7e638a4cbf2f02089,68802ed737db532102e2863f,,,,,,,,,,,,,22,1,,./stim/wavs/puertorican_match_interrogative-total-yn_Emilio-ama-la-marcha.wav,,,,,,,,,,,,,,,,,,,,,,327.6602,329.6598,0,0,1.469,,0,43,43,21,1,1,puertorican,,,,,,,,,,,,,,,,,,,,,,,,,,,,,,,,,,,,,,,,,,,,,,,,,,,,,,,,
,,,,,,,,,6742237ff27899244266a74f,Mexican,13 or older,"no, only English or Spanish",no,2025-07-22_20h38.25.860,empathy_intonation_perc,2024.2.4,MacIntel,59.88023952,6742237ff27899244266a74f,687ed1b7e638a4cbf2f02089,68802ed737db532102e2863f,,,,,,,,,,,,,88,0,,./stim/wavs/puertorican_mismatch_declarative-broad-focus_La-nina-lava-el-plato.wav,,,,,,,,,,,,,,,,,,,,,,329.6604,331.7265,0,1,1.5336,,0,44,44,87,1,0,puertorican,,,,,,,,,,,,,,,,,,,,,,,,,,,,,,,,,,,,,,,,,,,,,,,,,,,,,,,,
,,,,,,,,,6742237ff27899244266a74f,Mexican,13 or older,"no, only English or Spanish",no,2025-07-22_20h38.25.860,empathy_intonation_perc,2024.2.4,MacIntel,59.88023952,6742237ff27899244266a74f,687ed1b7e638a4cbf2f02089,68802ed737db532102e2863f,,,,,,,,,,,,,10,1,,./stim/wavs/cuban_match_interrogative-total-yn_Maria-bebe-el-vino.wav,,,,,,,,,,,,,,,,,,,,,,331.727,333.7764,0,0,1.5189,,0,45,45,9,1,1,cuban,,,,,,,,,,,,,,,,,,,,,,,,,,,,,,,,,,,,,,,,,,,,,,,,,,,,,,,,
,,,,,,,,,6742237ff27899244266a74f,Mexican,13 or older,"no, only English or Spanish",no,2025-07-22_20h38.25.860,empathy_intonation_perc,2024.2.4,MacIntel,59.88023952,6742237ff27899244266a74f,687ed1b7e638a4cbf2f02089,68802ed737db532102e2863f,,,,,,,,,,,,,12,1,,./stim/wavs/cuban_match_interrogative-total-yn_Marta-abre-el-regalo.wav,,,,,,,,,,,,,,,,,,,,,,333.7771,335.7265,0,0,1.4209,,0,46,46,11,1,1,cuban,,,,,,,,,,,,,,,,,,,,,,,,,,,,,,,,,,,,,,,,,,,,,,,,,,,,,,,,
,,,,,,,,,6742237ff27899244266a74f,Mexican,13 or older,"no, only English or Spanish",no,2025-07-22_20h38.25.860,empathy_intonation_perc,2024.2.4,MacIntel,59.88023952,6742237ff27899244266a74f,687ed1b7e638a4cbf2f02089,68802ed737db532102e2863f,,,,,,,,,,,,,85,0,,./stim/wavs/puertorican_mismatch_declarative-broad-focus_El-hombre-mira-la-luna.wav,,,,,,,,,,,,,,,,,,,,,,335.7271,337.7099,0,1,1.4505,,0,47,47,84,1,0,puertorican,,,,,,,,,,,,,,,,,,,,,,,,,,,,,,,,,,,,,,,,,,,,,,,,,,,,,,,,
,,,,,,,,,6742237ff27899244266a74f,Mexican,13 or older,"no, only English or Spanish",no,2025-07-22_20h38.25.860,empathy_intonation_perc,2024.2.4,MacIntel,59.88023952,6742237ff27899244266a74f,687ed1b7e638a4cbf2f02089,68802ed737db532102e2863f,,,,,,,,,,,,,65,0,,./stim/wavs/puertorican_match_declarative-broad-focus_David-leia-el-libro.wav,,,,,,,,,,,,,,,,,,,,,,337.7105,339.6429,0,1,1.4006,,0,48,48,64,1,0,puertorican,,,,,,,,,,,,,,,,,,,,,,,,,,,,,,,,,,,,,,,,,,,,,,,,,,,,,,,,
,,,,,,,,,6742237ff27899244266a74f,Mexican,13 or older,"no, only English or Spanish",no,2025-07-22_20h38.25.860,empathy_intonation_perc,2024.2.4,MacIntel,59.88023952,6742237ff27899244266a74f,687ed1b7e638a4cbf2f02089,68802ed737db532102e2863f,,,,,,,,,,,,,43,1,,./stim/wavs/puertorican_mismatch_interrogative-total-yn_La-nina-lava-el-plato.wav,,,,,,,,,,,,,,,,,,,,,,339.6433,341.6438,0,0,1.4797,,0,49,49,42,1,1,puertorican,,,,,,,,,,,,,,,,,,,,,,,,,,,,,,,,,,,,,,,,,,,,,,,,,,,,,,,,
,,,,,,,,,6742237ff27899244266a74f,Mexican,13 or older,"no, only English or Spanish",no,2025-07-22_20h38.25.860,empathy_intonation_perc,2024.2.4,MacIntel,59.88023952,6742237ff27899244266a74f,687ed1b7e638a4cbf2f02089,68802ed737db532102e2863f,,,,,,,,,,,,,68,0,,./stim/wavs/puertorican_match_declarative-broad-focus_Maria-bebe-el-vino.wav,,,,,,,,,,,,,,,,,,,,,,341.6444,343.5101,0,1,1.3336,,0,50,50,67,1,0,puertorican,,,,,,,,,,,,,,,,,,,,,,,,,,,,,,,,,,,,,,,,,,,,,,,,,,,,,,,,
,,,,,,,,,6742237ff27899244266a74f,Mexican,13 or older,"no, only English or Spanish",no,2025-07-22_20h38.25.860,empathy_intonation_perc,2024.2.4,MacIntel,59.88023952,6742237ff27899244266a74f,687ed1b7e638a4cbf2f02089,68802ed737db532102e2863f,,,,,,,,,,,,,14,1,,./stim/wavs/mexican_match_interrogative-total-yn_Daniel-iba-a-Bolivia.wav,,,,,,,,,,,,,,,,,,,,,,343.5106,345.7269,1,1,1.6843,,0,51,51,13,1,0,mexican,,,,,,,,,,,,,,,,,,,,,,,,,,,,,,,,,,,,,,,,,,,,,,,,,,,,,,,,
,,,,,,,,,6742237ff27899244266a74f,Mexican,13 or older,"no, only English or Spanish",no,2025-07-22_20h38.25.860,empathy_intonation_perc,2024.2.4,MacIntel,59.88023952,6742237ff27899244266a74f,687ed1b7e638a4cbf2f02089,68802ed737db532102e2863f,,,,,,,,,,,,,86,0,,./stim/wavs/puertorican_mismatch_declarative-broad-focus_El-nino-oye-el-rio.wav,,,,,,,,,,,,,,,,,,,,,,345.7274,347.6435,0,1,1.3886,,0,52,52,85,1,0,puertorican,,,,,,,,,,,,,,,,,,,,,,,,,,,,,,,,,,,,,,,,,,,,,,,,,,,,,,,,
,,,,,,,,,6742237ff27899244266a74f,Mexican,13 or older,"no, only English or Spanish",no,2025-07-22_20h38.25.860,empathy_intonation_perc,2024.2.4,MacIntel,59.88023952,6742237ff27899244266a74f,687ed1b7e638a4cbf2f02089,68802ed737db532102e2863f,,,,,,,,,,,,,11,1,,./stim/wavs/cuban_match_interrogative-total-yn_Mariano-habla-del-tiempo.wav,,,,,,,,,,,,,,,,,,,,,,347.6439,350.2604,0,0,2.0877,,0,53,53,10,1,1,cuban,,,,,,,,,,,,,,,,,,,,,,,,,,,,,,,,,,,,,,,,,,,,,,,,,,,,,,,,
,,,,,,,,,6742237ff27899244266a74f,Mexican,13 or older,"no, only English or Spanish",no,2025-07-22_20h38.25.860,empathy_intonation_perc,2024.2.4,MacIntel,59.88023952,6742237ff27899244266a74f,687ed1b7e638a4cbf2f02089,68802ed737db532102e2863f,,,,,,,,,,,,,52,0,,./stim/wavs/cuban_match_declarative-broad-focus_Daniel-iba-a-Bolivia.wav,,,,,,,,,,,,,,,,,,,,,,350.2612,352.5428,0,1,1.7508,,0,54,54,51,1,0,cuban,,,,,,,,,,,,,,,,,,,,,,,,,,,,,,,,,,,,,,,,,,,,,,,,,,,,,,,,
,,,,,,,,,6742237ff27899244266a74f,Mexican,13 or older,"no, only English or Spanish",no,2025-07-22_20h38.25.860,empathy_intonation_perc,2024.2.4,MacIntel,59.88023952,6742237ff27899244266a74f,687ed1b7e638a4cbf2f02089,68802ed737db532102e2863f,,,,,,,,,,,,,58,0,,./stim/wavs/mexican_match_declarative-broad-focus_Daniel-iba-a-Bolivia.wav,,,,,,,,,,,,,,,,,,,,,,352.5433,354.4605,0,1,1.401,,0,55,55,57,1,0,mexican,,,,,,,,,,,,,,,,,,,,,,,,,,,,,,,,,,,,,,,,,,,,,,,,,,,,,,,,
,,,,,,,,,6742237ff27899244266a74f,Mexican,13 or older,"no, only English or Spanish",no,2025-07-22_20h38.25.860,empathy_intonation_perc,2024.2.4,MacIntel,59.88023952,6742237ff27899244266a74f,687ed1b7e638a4cbf2f02089,68802ed737db532102e2863f,,,,,,,,,,,,,36,1,,./stim/wavs/mexican_mismatch_interrogative-total-yn_El-nino-oye-el-rio.wav,,,,,,,,,,,,,,,,,,,,,,354.4611,356.5926,1,1,1.6011,,0,56,56,35,1,0,mexican,,,,,,,,,,,,,,,,,,,,,,,,,,,,,,,,,,,,,,,,,,,,,,,,,,,,,,,,
,,,,,,,,,6742237ff27899244266a74f,Mexican,13 or older,"no, only English or Spanish",no,2025-07-22_20h38.25.860,empathy_intonation_perc,2024.2.4,MacIntel,59.88023952,6742237ff27899244266a74f,687ed1b7e638a4cbf2f02089,68802ed737db532102e2863f,,,,,,,,,,,,,4,1,,./stim/wavs/castilian_match_interrogative-total-yn_Maria-bebe-el-vino.wav,,,,,,,,,,,,,,,,,,,,,,356.5931,358.4606,1,1,1.3504,,0,57,57,3,1,0,castilian,,,,,,,,,,,,,,,,,,,,,,,,,,,,,,,,,,,,,,,,,,,,,,,,,,,,,,,,
,,,,,,,,,6742237ff27899244266a74f,Mexican,13 or older,"no, only English or Spanish",no,2025-07-22_20h38.25.860,empathy_intonation_perc,2024.2.4,MacIntel,59.88023952,6742237ff27899244266a74f,687ed1b7e638a4cbf2f02089,68802ed737db532102e2863f,,,,,,,,,,,,,33,1,,./stim/wavs/cuban_mismatch_interrogative-total-yn_Mi-novio-viene-del-lago.wav,,,,,,,,,,,,,,,,,,,,,,358.4612,362.8103,0,0,3.8298,,0,58,58,32,1,1,cuban,,,,,,,,,,,,,,,,,,,,,,,,,,,,,,,,,,,,,,,,,,,,,,,,,,,,,,,,
,,,,,,,,,6742237ff27899244266a74f,Mexican,13 or older,"no, only English or Spanish",no,2025-07-22_20h38.25.860,empathy_intonation_perc,2024.2.4,MacIntel,59.88023952,6742237ff27899244266a74f,687ed1b7e638a4cbf2f02089,68802ed737db532102e2863f,,,,,,,,,,,,,29,1,,./stim/wavs/castilian_mismatch_interrogative-total-yn_Mi-tia-odia-la-lluvia.wav,,,,,,,,,,,,,,,,,,,,,,362.8106,364.9104,1,1,1.5673,,0,59,59,28,1,0,castilian,,,,,,,,,,,,,,,,,,,,,,,,,,,,,,,,,,,,,,,,,,,,,,,,,,,,,,,,
,,,,,,,,,6742237ff27899244266a74f,Mexican,13 or older,"no, only English or Spanish",no,2025-07-22_20h38.25.860,empathy_intonation_perc,2024.2.4,MacIntel,59.88023952,6742237ff27899244266a74f,687ed1b7e638a4cbf2f02089,68802ed737db532102e2863f,,,,,,,,,,,,,60,0,,./stim/wavs/mexican_match_declarative-broad-focus_Emilio-ama-la-marcha.wav,,,,,,,,,,,,,,,,,,,,,,364.9107,367.811,0,1,2.366,,0,60,60,59,1,0,mexican,,,,,,,,,,,,,,,,,,,,,,,,,,,,,,,,,,,,,,,,,,,,,,,,,,,,,,,,
,,,,,,,,,6742237ff27899244266a74f,Mexican,13 or older,"no, only English or Spanish",no,2025-07-22_20h38.25.860,empathy_intonation_perc,2024.2.4,MacIntel,59.88023952,6742237ff27899244266a74f,687ed1b7e638a4cbf2f02089,68802ed737db532102e2863f,,,,,,,,,,,,,80,0,,./stim/wavs/mexican_mismatch_declarative-broad-focus_El-hombre-mira-la-luna.wav,,,,,,,,,,,,,,,,,,,,,,367.8116,369.8111,0,1,1.4663,,0,61,61,79,1,0,mexican,,,,,,,,,,,,,,,,,,,,,,,,,,,,,,,,,,,,,,,,,,,,,,,,,,,,,,,,
,,,,,,,,,6742237ff27899244266a74f,Mexican,13 or older,"no, only English or Spanish",no,2025-07-22_20h38.25.860,empathy_intonation_perc,2024.2.4,MacIntel,59.88023952,6742237ff27899244266a74f,687ed1b7e638a4cbf2f02089,68802ed737db532102e2863f,,,,,,,,,,,,,41,1,,./stim/wavs/puertorican_mismatch_interrogative-total-yn_El-nino-oye-el-rio.wav,,,,,,,,,,,,,,,,,,,,,,369.8117,371.8111,0,0,1.4658,,0,62,62,40,1,1,puertorican,,,,,,,,,,,,,,,,,,,,,,,,,,,,,,,,,,,,,,,,,,,,,,,,,,,,,,,,
,,,,,,,,,6742237ff27899244266a74f,Mexican,13 or older,"no, only English or Spanish",no,2025-07-22_20h38.25.860,empathy_intonation_perc,2024.2.4,MacIntel,59.88023952,6742237ff27899244266a74f,687ed1b7e638a4cbf2f02089,68802ed737db532102e2863f,,,,,,,,,,,,,53,0,,./stim/wavs/cuban_match_declarative-broad-focus_Manuela-vende-el-carro.wav,,,,,,,,,,,,,,,,,,,,,,371.8116,373.8947,0,1,1.5624,,0,63,63,52,1,0,cuban,,,,,,,,,,,,,,,,,,,,,,,,,,,,,,,,,,,,,,,,,,,,,,,,,,,,,,,,
,,,,,,,,,6742237ff27899244266a74f,Mexican,13 or older,"no, only English or Spanish",no,2025-07-22_20h38.25.860,empathy_intonation_perc,2024.2.4,MacIntel,59.88023952,6742237ff27899244266a74f,687ed1b7e638a4cbf2f02089,68802ed737db532102e2863f,,,,,,,,,,,,,51,0,,./stim/wavs/cuban_match_declarative-broad-focus_Ana-lleva-el-abrigo.wav,,,,,,,,,,,,,,,,,,,,,,373.8952,375.977,0,1,1.5502,,0,64,64,50,1,0,cuban,,,,,,,,,,,,,,,,,,,,,,,,,,,,,,,,,,,,,,,,,,,,,,,,,,,,,,,,
,,,,,,,,,6742237ff27899244266a74f,Mexican,13 or older,"no, only English or Spanish",no,2025-07-22_20h38.25.860,empathy_intonation_perc,2024.2.4,MacIntel,59.88023952,6742237ff27899244266a74f,687ed1b7e638a4cbf2f02089,68802ed737db532102e2863f,,,,,,,,,,,,,61,0,,./stim/wavs/mexican_match_declarative-broad-focus_Mariano-habla-del-tiempo.wav,,,,,,,,,,,,,,,,,,,,,,375.9775,378.0442,0,1,1.5506,,0,65,65,60,1,0,mexican,,,,,,,,,,,,,,,,,,,,,,,,,,,,,,,,,,,,,,,,,,,,,,,,,,,,,,,,
,,,,,,,,,6742237ff27899244266a74f,Mexican,13 or older,"no, only English or Spanish",no,2025-07-22_20h38.25.860,empathy_intonation_perc,2024.2.4,MacIntel,59.88023952,6742237ff27899244266a74f,687ed1b7e638a4cbf2f02089,68802ed737db532102e2863f,,,,,,,,,,,,,38,1,,./stim/wavs/mexican_mismatch_interrogative-total-yn_Mi-novio-viene-del-lago.wav,,,,,,,,,,,,,,,,,,,,,,378.045,380.2114,1,1,1.6342,,0,66,66,37,1,0,mexican,,,,,,,,,,,,,,,,,,,,,,,,,,,,,,,,,,,,,,,,,,,,,,,,,,,,,,,,
,,,,,,,,,6742237ff27899244266a74f,Mexican,13 or older,"no, only English or Spanish",no,2025-07-22_20h38.25.860,empathy_intonation_perc,2024.2.4,MacIntel,59.88023952,6742237ff27899244266a74f,687ed1b7e638a4cbf2f02089,68802ed737db532102e2863f,,,,,,,,,,,,,87,0,,./stim/wavs/puertorican_mismatch_declarative-broad-focus_La-maestra-vive-en-Paris.wav,,,,,,,,,,,,,,,,,,,,,,380.212,382.3437,0,1,1.5996,,0,67,67,86,1,0,puertorican,,,,,,,,,,,,,,,,,,,,,,,,,,,,,,,,,,,,,,,,,,,,,,,,,,,,,,,,
,,,,,,,,,6742237ff27899244266a74f,Mexican,13 or older,"no, only English or Spanish",no,2025-07-22_20h38.25.860,empathy_intonation_perc,2024.2.4,MacIntel,59.88023952,6742237ff27899244266a74f,687ed1b7e638a4cbf2f02089,68802ed737db532102e2863f,,,,,,,,,,,,,25,1,,./stim/wavs/castilian_mismatch_interrogative-total-yn_La-maestra-vive-en-Paris.wav,,,,,,,,,,,,,,,,,,,,,,382.3444,384.7283,1,1,1.8523,,0,68,68,24,1,0,castilian,,,,,,,,,,,,,,,,,,,,,,,,,,,,,,,,,,,,,,,,,,,,,,,,,,,,,,,,
,,,,,,,,,6742237ff27899244266a74f,Mexican,13 or older,"no, only English or Spanish",no,2025-07-22_20h38.25.860,empathy_intonation_perc,2024.2.4,MacIntel,59.88023952,6742237ff27899244266a74f,687ed1b7e638a4cbf2f02089,68802ed737db532102e2863f,,,,,,,,,,,,,66,0,,./stim/wavs/puertorican_match_declarative-broad-focus_Emilio-ama-la-marcha.wav,,,,,,,,,,,,,,,,,,,,,,384.729,387.0274,0,1,1.7722,,0,69,69,65,1,0,puertorican,,,,,,,,,,,,,,,,,,,,,,,,,,,,,,,,,,,,,,,,,,,,,,,,,,,,,,,,
,,,,,,,,,6742237ff27899244266a74f,Mexican,13 or older,"no, only English or Spanish",no,2025-07-22_20h38.25.860,empathy_intonation_perc,2024.2.4,MacIntel,59.88023952,6742237ff27899244266a74f,687ed1b7e638a4cbf2f02089,68802ed737db532102e2863f,,,,,,,,,,,,,45,0,,./stim/wavs/castilian_match_declarative-broad-focus_David-leia-el-libro.wav,,,,,,,,,,,,,,,,,,,,,,387.028,389.1775,0,1,1.638,,0,70,70,44,1,0,castilian,,,,,,,,,,,,,,,,,,,,,,,,,,,,,,,,,,,,,,,,,,,,,,,,,,,,,,,,
,,,,,,,,,6742237ff27899244266a74f,Mexican,13 or older,"no, only English or Spanish",no,2025-07-22_20h38.25.860,empathy_intonation_perc,2024.2.4,MacIntel,59.88023952,6742237ff27899244266a74f,687ed1b7e638a4cbf2f02089,68802ed737db532102e2863f,,,,,,,,,,,,,48,0,,./stim/wavs/castilian_match_declarative-broad-focus_Maria-bebe-el-vino.wav,,,,,,,,,,,,,,,,,,,,,,389.1782,391.2941,0,1,1.6015,,0,71,71,47,1,0,castilian,,,,,,,,,,,,,,,,,,,,,,,,,,,,,,,,,,,,,,,,,,,,,,,,,,,,,,,,
,,,,,,,,,6742237ff27899244266a74f,Mexican,13 or older,"no, only English or Spanish",no,2025-07-22_20h38.25.860,empathy_intonation_perc,2024.2.4,MacIntel,59.88023952,6742237ff27899244266a74f,687ed1b7e638a4cbf2f02089,68802ed737db532102e2863f,,,,,,,,,,,,,40,1,,./stim/wavs/puertorican_mismatch_interrogative-total-yn_El-hombre-mira-la-luna.wav,,,,,,,,,,,,,,,,,,,,,,391.2949,393.4785,1,1,1.6531,,0,72,72,39,1,1,puertorican,,,,,,,,,,,,,,,,,,,,,,,,,,,,,,,,,,,,,,,,,,,,,,,,,,,,,,,,
,,,,,,,,,6742237ff27899244266a74f,Mexican,13 or older,"no, only English or Spanish",no,2025-07-22_20h38.25.860,empathy_intonation_perc,2024.2.4,MacIntel,59.88023952,6742237ff27899244266a74f,687ed1b7e638a4cbf2f02089,68802ed737db532102e2863f,,,,,,,,,,,,,17,1,,./stim/wavs/mexican_match_interrogative-total-yn_Mariano-habla-del-tiempo.wav,,,,,,,,,,,,,,,,,,,,,,393.4791,395.5118,0,0,1.5035,,0,73,73,16,1,0,mexican,,,,,,,,,,,,,,,,,,,,,,,,,,,,,,,,,,,,,,,,,,,,,,,,,,,,,,,,
,,,,,,,,,6742237ff27899244266a74f,Mexican,13 or older,"no, only English or Spanish",no,2025-07-22_20h38.25.860,empathy_intonation_perc,2024.2.4,MacIntel,59.88023952,6742237ff27899244266a74f,687ed1b7e638a4cbf2f02089,68802ed737db532102e2863f,,,,,,,,,,,,,74,0,,./stim/wavs/cuban_mismatch_declarative-broad-focus_El-bebe-comia-muy-bien.wav,,,,,,,,,,,,,,,,,,,,,,395.5125,397.5287,0,1,1.4828,,0,74,74,73,1,0,cuban,,,,,,,,,,,,,,,,,,,,,,,,,,,,,,,,,,,,,,,,,,,,,,,,,,,,,,,,
,,,,,,,,,6742237ff27899244266a74f,Mexican,13 or older,"no, only English or Spanish",no,2025-07-22_20h38.25.860,empathy_intonation_perc,2024.2.4,MacIntel,59.88023952,6742237ff27899244266a74f,687ed1b7e638a4cbf2f02089,68802ed737db532102e2863f,,,,,,,,,,,,,19,1,,./stim/wavs/puertorican_match_interrogative-total-yn_Ana-lleva-el-abrigo.wav,,,,,,,,,,,,,,,,,,,,,,397.5293,399.611,1,1,1.5528,,0,75,75,18,1,1,puertorican,,,,,,,,,,,,,,,,,,,,,,,,,,,,,,,,,,,,,,,,,,,,,,,,,,,,,,,,
,,,,,,,,,6742237ff27899244266a74f,Mexican,13 or older,"no, only English or Spanish",no,2025-07-22_20h38.25.860,empathy_intonation_perc,2024.2.4,MacIntel,59.88023952,6742237ff27899244266a74f,687ed1b7e638a4cbf2f02089,68802ed737db532102e2863f,,,,,,,,,,,,,50,0,,./stim/wavs/castilian_match_declarative-broad-focus_Marta-abre-el-regalo.wav,,,,,,,,,,,,,,,,,,,,,,399.6115,401.7287,0,1,1.6003,,0,76,76,49,1,0,castilian,,,,,,,,,,,,,,,,,,,,,,,,,,,,,,,,,,,,,,,,,,,,,,,,,,,,,,,,
,,,,,,,,,6742237ff27899244266a74f,Mexican,13 or older,"no, only English or Spanish",no,2025-07-22_20h38.25.860,empathy_intonation_perc,2024.2.4,MacIntel,59.88023952,6742237ff27899244266a74f,687ed1b7e638a4cbf2f02089,68802ed737db532102e2863f,,,,,,,,,,,,,54,0,,./stim/wavs/cuban_match_declarative-broad-focus_Maria-bebe-el-vino.wav,,,,,,,,,,,,,,,,,,,,,,401.7293,403.8955,0,1,1.6338,,0,77,77,53,1,0,cuban,,,,,,,,,,,,,,,,,,,,,,,,,,,,,,,,,,,,,,,,,,,,,,,,,,,,,,,,
,,,,,,,,,6742237ff27899244266a74f,Mexican,13 or older,"no, only English or Spanish",no,2025-07-22_20h38.25.860,empathy_intonation_perc,2024.2.4,MacIntel,59.88023952,6742237ff27899244266a74f,687ed1b7e638a4cbf2f02089,68802ed737db532102e2863f,,,,,,,,,,,,,6,1,,./stim/wavs/castilian_match_interrogative-total-yn_Marta-abre-el-regalo.wav,,,,,,,,,,,,,,,,,,,,,,403.8962,406.2456,1,1,1.8207,,0,78,78,5,1,0,castilian,,,,,,,,,,,,,,,,,,,,,,,,,,,,,,,,,,,,,,,,,,,,,,,,,,,,,,,,
,,,,,,,,,6742237ff27899244266a74f,Mexican,13 or older,"no, only English or Spanish",no,2025-07-22_20h38.25.860,empathy_intonation_perc,2024.2.4,MacIntel,59.88023952,6742237ff27899244266a74f,687ed1b7e638a4cbf2f02089,68802ed737db532102e2863f,,,,,,,,,,,,,8,1,,./stim/wavs/cuban_match_interrogative-total-yn_Daniel-iba-a-Bolivia.wav,,,,,,,,,,,,,,,,,,,,,,406.2462,408.6124,0,0,1.8374,,0,79,79,7,1,1,cuban,,,,,,,,,,,,,,,,,,,,,,,,,,,,,,,,,,,,,,,,,,,,,,,,,,,,,,,,
,,,,,,,,,6742237ff27899244266a74f,Mexican,13 or older,"no, only English or Spanish",no,2025-07-22_20h38.25.860,empathy_intonation_perc,2024.2.4,MacIntel,59.88023952,6742237ff27899244266a74f,687ed1b7e638a4cbf2f02089,68802ed737db532102e2863f,,,,,,,,,,,,,59,0,,./stim/wavs/mexican_match_declarative-broad-focus_David-leia-el-libro.wav,,,,,,,,,,,,,,,,,,,,,,408.6129,410.779,0,1,1.6339,,0,80,80,58,1,0,mexican,,,,,,,,,,,,,,,,,,,,,,,,,,,,,,,,,,,,,,,,,,,,,,,,,,,,,,,,
,,,,,,,,,6742237ff27899244266a74f,Mexican,13 or older,"no, only English or Spanish",no,2025-07-22_20h38.25.860,empathy_intonation_perc,2024.2.4,MacIntel,59.88023952,6742237ff27899244266a74f,687ed1b7e638a4cbf2f02089,68802ed737db532102e2863f,,,,,,,,,,,,,56,0,,./stim/wavs/cuban_match_declarative-broad-focus_Marta-abre-el-regalo.wav,,,,,,,,,,,,,,,,,,,,,,410.7795,412.7792,0,1,1.4701,,0,81,81,55,1,0,cuban,,,,,,,,,,,,,,,,,,,,,,,,,,,,,,,,,,,,,,,,,,,,,,,,,,,,,,,,
,,,,,,,,,6742237ff27899244266a74f,Mexican,13 or older,"no, only English or Spanish",no,2025-07-22_20h38.25.860,empathy_intonation_perc,2024.2.4,MacIntel,59.88023952,6742237ff27899244266a74f,687ed1b7e638a4cbf2f02089,68802ed737db532102e2863f,,,,,,,,,,,,,1,1,,./stim/wavs/castilian_match_interrogative-total-yn_David-leia-el-libro.wav,,,,,,,,,,,,,,,,,,,,,,412.7797,414.8959,1,1,1.583,,0,82,82,0,1,0,castilian,,,,,,,,,,,,,,,,,,,,,,,,,,,,,,,,,,,,,,,,,,,,,,,,,,,,,,,,
,,,,,,,,,6742237ff27899244266a74f,Mexican,13 or older,"no, only English or Spanish",no,2025-07-22_20h38.25.860,empathy_intonation_perc,2024.2.4,MacIntel,59.88023952,6742237ff27899244266a74f,687ed1b7e638a4cbf2f02089,68802ed737db532102e2863f,,,,,,,,,,,,,30,1,,./stim/wavs/cuban_mismatch_interrogative-total-yn_El-hombre-mira-la-luna.wav,,,,,,,,,,,,,,,,,,,,,,414.8966,417.246,0,0,1.8196,,0,83,83,29,1,1,cuban,,,,,,,,,,,,,,,,,,,,,,,,,,,,,,,,,,,,,,,,,,,,,,,,,,,,,,,,
,,,,,,,,,6742237ff27899244266a74f,Mexican,13 or older,"no, only English or Spanish",no,2025-07-22_20h38.25.860,empathy_intonation_perc,2024.2.4,MacIntel,59.88023952,6742237ff27899244266a74f,687ed1b7e638a4cbf2f02089,68802ed737db532102e2863f,,,,,,,,,,,,,31,1,,./stim/wavs/cuban_mismatch_interrogative-total-yn_El-nino-oye-el-rio.wav,,,,,,,,,,,,,,,,,,,,,,417.2466,419.2458,0,0,1.4719,,0,84,84,30,1,1,cuban,,,,,,,,,,,,,,,,,,,,,,,,,,,,,,,,,,,,,,,,,,,,,,,,,,,,,,,,
,,,,,,,,,6742237ff27899244266a74f,Mexican,13 or older,"no, only English or Spanish",no,2025-07-22_20h38.25.860,empathy_intonation_perc,2024.2.4,MacIntel,59.88023952,6742237ff27899244266a74f,687ed1b7e638a4cbf2f02089,68802ed737db532102e2863f,,,,,,,,,,,,,21,1,,./stim/wavs/puertorican_match_interrogative-total-yn_David-leia-el-libro.wav,,,,,,,,,,,,,,,,,,,,,,419.2464,421.2127,0,0,1.4341,,0,85,85,20,1,1,puertorican,,,,,,,,,,,,,,,,,,,,,,,,,,,,,,,,,,,,,,,,,,,,,,,,,,,,,,,,
,,,,,,,,,6742237ff27899244266a74f,Mexican,13 or older,"no, only English or Spanish",no,2025-07-22_20h38.25.860,empathy_intonation_perc,2024.2.4,MacIntel,59.88023952,6742237ff27899244266a74f,687ed1b7e638a4cbf2f02089,68802ed737db532102e2863f,,,,,,,,,,,,,75,0,,./stim/wavs/cuban_mismatch_declarative-broad-focus_El-hombre-mira-la-luna.wav,,,,,,,,,,,,,,,,,,,,,,421.2132,423.0794,0,1,1.3343,,0,86,86,74,1,0,cuban,,,,,,,,,,,,,,,,,,,,,,,,,,,,,,,,,,,,,,,,,,,,,,,,,,,,,,,,
,,,,,,,,,6742237ff27899244266a74f,Mexican,13 or older,"no, only English or Spanish",no,2025-07-22_20h38.25.860,empathy_intonation_perc,2024.2.4,MacIntel,59.88023952,6742237ff27899244266a74f,687ed1b7e638a4cbf2f02089,68802ed737db532102e2863f,,,,,,,,,,,,,42,1,,./stim/wavs/puertorican_mismatch_interrogative-total-yn_La-maestra-vive-en-Paris.wav,,,,,,,,,,,,,,,,,,,,,,423.08,425.3794,0,0,1.7707,,0,87,87,41,1,1,puertorican,,,,,,,,,,,,,,,,,,,,,,,,,,,,,,,,,,,,,,,,,,,,,,,,,,,,,,,,
,,,,,,,"Great! Now we will move on. The next task consists of about 60 trials, in each of which you will see a string of letters. 
  
  Your task is to decide whether this is a real Spanish word or not.", (press the spacebar to continue),6742237ff27899244266a74f,Mexican,13 or older,"no, only English or Spanish",no,2025-07-22_20h38.25.860,empathy_intonation_perc,2024.2.4,MacIntel,59.88023952,6742237ff27899244266a74f,687ed1b7e638a4cbf2f02089,68802ed737db532102e2863f,,,,,,,,,,,,,,,,,,,,,,,,,,,,,,,,,,,,,,,,,,,,,,,,,,,425.3863,431.1632,0,0,0,0,1,,,,,,,,,,,,,,,,,,,,,,,,,,,,,,,,,,,,,,,,,,,,,,,,,
,,,,,,,"If you think it is an existing Spanish word, you type '1' (for 'REAL'), and if you think it is not an existing Spanish word, you type '0' (for 'FAKE').", (press the spacebar to continue),6742237ff27899244266a74f,Mexican,13 or older,"no, only English or Spanish",no,2025-07-22_20h38.25.860,empathy_intonation_perc,2024.2.4,MacIntel,59.88023952,6742237ff27899244266a74f,687ed1b7e638a4cbf2f02089,68802ed737db532102e2863f,,,,,,,,,,,,,,,,,,,,,,,,,,,,,,,,,,,,,,,,,,,,,,,,,,,431.1647,436.1797,0,1,1,1,1,,,,,,,,,,,,,,,,,,,,,,,,,,,,,,,,,,,,,,,,,,,,,,,,,
,,,,,,,"If you are sure that the word exists, even though you don’t know its exact meaning, you may still respond '1' (REAL). 
  
  But if you are not sure if it is an existing word, you should respond '0' (FAKE).
  
  Let's do a practice round...", (press the spacebar to continue),6742237ff27899244266a74f,Mexican,13 or older,"no, only English or Spanish",no,2025-07-22_20h38.25.860,empathy_intonation_perc,2024.2.4,MacIntel,59.88023952,6742237ff27899244266a74f,687ed1b7e638a4cbf2f02089,68802ed737db532102e2863f,,,,,,,,,,,,,,,,,,,,,,,,,,,,,,,,,,,,,,,,,,,,,,,,,,,436.1807,445.7804,0,2,2,2,1,,,,,,,,,,,,,,,,,,,,,,,,,,,,,,,,,,,,,,,,,,,,,,,,,
,,,,,,,,,6742237ff27899244266a74f,Mexican,13 or older,"no, only English or Spanish",no,2025-07-22_20h38.25.860,empathy_intonation_perc,2024.2.4,MacIntel,59.88023952,6742237ff27899244266a74f,687ed1b7e638a4cbf2f02089,68802ed737db532102e2863f,,,,,,,,,,,,,,0,,,,,,,,,,,,,,,,,,,,,,,,,,,,,,,,,,,,,,,,,,,,445.7872,448.8807,0,1,2.5563,,448.881,449.8806,0,0,0,0,1,0,depiste,REAL,FAKE,,,,,,,,,,,,,,,,,,,,,,,,,,,,,,,,
,,,,,,,,,6742237ff27899244266a74f,Mexican,13 or older,"no, only English or Spanish",no,2025-07-22_20h38.25.860,empathy_intonation_perc,2024.2.4,MacIntel,59.88023952,6742237ff27899244266a74f,687ed1b7e638a4cbf2f02089,68802ed737db532102e2863f,,,,,,,,,,,,,,1,,,,,,,,,,,,,,,,,,,,,,,,,,,,,,,,,,,,,,,,,,,,449.882,451.5805,1,1,1.1618,,451.5807,452.5804,0,1,1,1,1,0,sí,REAL,FAKE,,,,,,,,,,,,,,,,,,,,,,,,,,,,,,,,
,,,,,,,,,6742237ff27899244266a74f,Mexican,13 or older,"no, only English or Spanish",no,2025-07-22_20h38.25.860,empathy_intonation_perc,2024.2.4,MacIntel,59.88023952,6742237ff27899244266a74f,687ed1b7e638a4cbf2f02089,68802ed737db532102e2863f,,,,,,,,,,,,,,0,,,,,,,,,,,,,,,,,,,,,,,,,,,,,,,,,,,,,,,,,,,,452.5817,454.7804,0,1,1.6542,,454.7804,455.7805,0,2,2,2,1,0,coné,REAL,FAKE,,,,,,,,,,,,,,,,,,,,,,,,,,,,,,,,
,,,,,,,,,6742237ff27899244266a74f,Mexican,13 or older,"no, only English or Spanish",no,2025-07-22_20h38.25.860,empathy_intonation_perc,2024.2.4,MacIntel,59.88023952,6742237ff27899244266a74f,687ed1b7e638a4cbf2f02089,68802ed737db532102e2863f,,,,,,,,,,,,,,0,,,,,,,,,,,,,,,,,,,,,,,,,,,,,,,,,,,,,,,,,,,,455.7816,457.7805,0,1,1.4563,,457.7806,458.7807,0,3,3,3,1,0,calpar,REAL,FAKE,,,,,,,,,,,,,,,,,,,,,,,,,,,,,,,,
,,,,,,,,,6742237ff27899244266a74f,Mexican,13 or older,"no, only English or Spanish",no,2025-07-22_20h38.25.860,empathy_intonation_perc,2024.2.4,MacIntel,59.88023952,6742237ff27899244266a74f,687ed1b7e638a4cbf2f02089,68802ed737db532102e2863f,,,,,,,,,,,,,,0,,,,,,,,,,,,,,,,,,,,,,,,,,,,,,,,,,,,,,,,,,,,458.7819,460.2642,0,1,0.9504,,460.2643,461.2641,0,4,4,4,1,0,joten,REAL,FAKE,,,,,,,,,,,,,,,,,,,,,,,,,,,,,,,,
,,,,,,,,,6742237ff27899244266a74f,Mexican,13 or older,"no, only English or Spanish",no,2025-07-22_20h38.25.860,empathy_intonation_perc,2024.2.4,MacIntel,59.88023952,6742237ff27899244266a74f,687ed1b7e638a4cbf2f02089,68802ed737db532102e2863f,,,,,,,,,,,,,,1,,,,,,,,,,,,,,,,,,,,,,,,,,,,,,,,,,,,,,,,,,,,461.2655,463.7806,1,1,1.9746,,463.7808,464.7807,0,5,5,5,1,0,sacapuntas,REAL,FAKE,,,,,,,,,,,,,,,,,,,,,,,,,,,,,,,,
,,,,,,,,,6742237ff27899244266a74f,Mexican,13 or older,"no, only English or Spanish",no,2025-07-22_20h38.25.860,empathy_intonation_perc,2024.2.4,MacIntel,59.88023952,6742237ff27899244266a74f,687ed1b7e638a4cbf2f02089,68802ed737db532102e2863f,,,,,,,,,,,,,,0,,,,,,,,,,,,,,,,,,,,,,,,,,,,,,,,,,,,,,,,,,,,464.7821,466.2472,0,1,0.9315,,466.2473,467.2467,0,6,6,6,1,0,priba,REAL,FAKE,,,,,,,,,,,,,,,,,,,,,,,,,,,,,,,,
,,,,,,,,,6742237ff27899244266a74f,Mexican,13 or older,"no, only English or Spanish",no,2025-07-22_20h38.25.860,empathy_intonation_perc,2024.2.4,MacIntel,59.88023952,6742237ff27899244266a74f,687ed1b7e638a4cbf2f02089,68802ed737db532102e2863f,,,,,,,,,,,,,,0,,,,,,,,,,,,,,,,,,,,,,,,,,,,,,,,,,,,,,,,,,,,467.2474,469.0968,0,1,1.3289,,469.0969,470.0973,0,7,7,7,1,0,pelasula,REAL,FAKE,,,,,,,,,,,,,,,,,,,,,,,,,,,,,,,,
,,,,,,,,,6742237ff27899244266a74f,Mexican,13 or older,"no, only English or Spanish",no,2025-07-22_20h38.25.860,empathy_intonation_perc,2024.2.4,MacIntel,59.88023952,6742237ff27899244266a74f,687ed1b7e638a4cbf2f02089,68802ed737db532102e2863f,,,,,,,,,,,,,,1,,,,,,,,,,,,,,,,,,,,,,,,,,,,,,,,,,,,,,,,,,,,470.0978,471.5476,1,1,0.9132,,471.5477,472.5477,0,8,8,8,1,0,bien,REAL,FAKE,,,,,,,,,,,,,,,,,,,,,,,,,,,,,,,,
,,,,,,,,,6742237ff27899244266a74f,Mexican,13 or older,"no, only English or Spanish",no,2025-07-22_20h38.25.860,empathy_intonation_perc,2024.2.4,MacIntel,59.88023952,6742237ff27899244266a74f,687ed1b7e638a4cbf2f02089,68802ed737db532102e2863f,,,,,,,,,,,,,,1,,,,,,,,,,,,,,,,,,,,,,,,,,,,,,,,,,,,,,,,,,,,472.5488,473.731,1,1,0.6398,,473.7311,474.7311,0,9,9,9,1,0,casa,REAL,FAKE,,,,,,,,,,,,,,,,,,,,,,,,,,,,,,,,
,,,,,,,,,6742237ff27899244266a74f,Mexican,13 or older,"no, only English or Spanish",no,2025-07-22_20h38.25.860,empathy_intonation_perc,2024.2.4,MacIntel,59.88023952,6742237ff27899244266a74f,687ed1b7e638a4cbf2f02089,68802ed737db532102e2863f,,,,,,,,,,,,,,0,,,,,,,,,,,,,,,,,,,,,,,,,,,,,,,,,,,,,,,,,,,,474.7323,476.5812,0,1,1.3164,,476.5813,477.5808,0,10,10,10,1,0,lejo,REAL,FAKE,,,,,,,,,,,,,,,,,,,,,,,,,,,,,,,,
,,,,,,,,,6742237ff27899244266a74f,Mexican,13 or older,"no, only English or Spanish",no,2025-07-22_20h38.25.860,empathy_intonation_perc,2024.2.4,MacIntel,59.88023952,6742237ff27899244266a74f,687ed1b7e638a4cbf2f02089,68802ed737db532102e2863f,,,,,,,,,,,,,,0,,,,,,,,,,,,,,,,,,,,,,,,,,,,,,,,,,,,,,,,,,,,477.5816,479.3478,0,1,1.2295,,479.3479,480.3479,0,11,11,11,1,0,pretantas,REAL,FAKE,,,,,,,,,,,,,,,,,,,,,,,,,,,,,,,,
,,,,,,,,,6742237ff27899244266a74f,Mexican,13 or older,"no, only English or Spanish",no,2025-07-22_20h38.25.860,empathy_intonation_perc,2024.2.4,MacIntel,59.88023952,6742237ff27899244266a74f,687ed1b7e638a4cbf2f02089,68802ed737db532102e2863f,,,,,,,,,,,,,,,,,,,,,,,,,,,,,,,,,,,,,,,,,,,,,,,,,,,,,,,,,,,,,,,,,,,,,,,,,,,480.3483,481.6149,,,,,,,,,,,,,,,,,,,,,,,,,,,,,,
,,,,,,,,,6742237ff27899244266a74f,Mexican,13 or older,"no, only English or Spanish",no,2025-07-22_20h38.25.860,empathy_intonation_perc,2024.2.4,MacIntel,59.88023952,6742237ff27899244266a74f,687ed1b7e638a4cbf2f02089,68802ed737db532102e2863f,,,,,,,,,,,,,,0,,,,,,,,,,,,,,,,,,,,,,,,,,,,,,,,,,,,,,,,,,,,,,,,,,,,,,,,,29,decar,,,,,481.6251,484.7651,0,1,2.6139,,0,0,0,28,1,REAL,FAKE,,,,,,,,,,,,,,,,,
,,,,,,,,,6742237ff27899244266a74f,Mexican,13 or older,"no, only English or Spanish",no,2025-07-22_20h38.25.860,empathy_intonation_perc,2024.2.4,MacIntel,59.88023952,6742237ff27899244266a74f,687ed1b7e638a4cbf2f02089,68802ed737db532102e2863f,,,,,,,,,,,,,,1,,,,,,,,,,,,,,,,,,,,,,,,,,,,,,,,,,,,,,,,,,,,,,,,,,,,,,,,,49,ganar,,,,,484.7662,486.2151,1,1,0.9163,,0,1,1,48,1,REAL,FAKE,,,,,,,,,,,,,,,,,
,,,,,,,,,6742237ff27899244266a74f,Mexican,13 or older,"no, only English or Spanish",no,2025-07-22_20h38.25.860,empathy_intonation_perc,2024.2.4,MacIntel,59.88023952,6742237ff27899244266a74f,687ed1b7e638a4cbf2f02089,68802ed737db532102e2863f,,,,,,,,,,,,,,0,,,,,,,,,,,,,,,,,,,,,,,,,,,,,,,,,,,,,,,,,,,,,,,,,,,,,,,,,21,capillo,,,,,486.2161,487.7641,0,1,1.0119,,0,2,2,20,1,REAL,FAKE,,,,,,,,,,,,,,,,,
,,,,,,,,,6742237ff27899244266a74f,Mexican,13 or older,"no, only English or Spanish",no,2025-07-22_20h38.25.860,empathy_intonation_perc,2024.2.4,MacIntel,59.88023952,6742237ff27899244266a74f,687ed1b7e638a4cbf2f02089,68802ed737db532102e2863f,,,,,,,,,,,,,,1,,,,,,,,,,,,,,,,,,,,,,,,,,,,,,,,,,,,,,,,,,,,,,,,,,,,,,,,,62,flaco,,,,,487.7651,489.2649,1,1,0.9725,,0,3,3,61,1,REAL,FAKE,,,,,,,,,,,,,,,,,
,,,,,,,,,6742237ff27899244266a74f,Mexican,13 or older,"no, only English or Spanish",no,2025-07-22_20h38.25.860,empathy_intonation_perc,2024.2.4,MacIntel,59.88023952,6742237ff27899244266a74f,687ed1b7e638a4cbf2f02089,68802ed737db532102e2863f,,,,,,,,,,,,,,1,,,,,,,,,,,,,,,,,,,,,,,,,,,,,,,,,,,,,,,,,,,,,,,,,,,,,,,,,64,orgulloso,,,,,489.2658,490.9482,0,0,1.1396,,0,4,4,63,1,REAL,FAKE,,,,,,,,,,,,,,,,,
,,,,,,,,,6742237ff27899244266a74f,Mexican,13 or older,"no, only English or Spanish",no,2025-07-22_20h38.25.860,empathy_intonation_perc,2024.2.4,MacIntel,59.88023952,6742237ff27899244266a74f,687ed1b7e638a4cbf2f02089,68802ed737db532102e2863f,,,,,,,,,,,,,,1,,,,,,,,,,,,,,,,,,,,,,,,,,,,,,,,,,,,,,,,,,,,,,,,,,,,,,,,,67,cabello,,,,,490.9492,492.365,1,1,0.8806,,0,5,5,66,1,REAL,FAKE,,,,,,,,,,,,,,,,,
,,,,,,,,,6742237ff27899244266a74f,Mexican,13 or older,"no, only English or Spanish",no,2025-07-22_20h38.25.860,empathy_intonation_perc,2024.2.4,MacIntel,59.88023952,6742237ff27899244266a74f,687ed1b7e638a4cbf2f02089,68802ed737db532102e2863f,,,,,,,,,,,,,,0,,,,,,,,,,,,,,,,,,,,,,,,,,,,,,,,,,,,,,,,,,,,,,,,,,,,,,,,,35,rompido,,,,,492.3662,493.7317,0,1,0.8301,,0,6,6,34,1,REAL,FAKE,,,,,,,,,,,,,,,,,
,,,,,,,,,6742237ff27899244266a74f,Mexican,13 or older,"no, only English or Spanish",no,2025-07-22_20h38.25.860,empathy_intonation_perc,2024.2.4,MacIntel,59.88023952,6742237ff27899244266a74f,687ed1b7e638a4cbf2f02089,68802ed737db532102e2863f,,,,,,,,,,,,,,1,,,,,,,,,,,,,,,,,,,,,,,,,,,,,,,,,,,,,,,,,,,,,,,,,,,,,,,,,20,ávido,,,,,493.7327,495.3814,0,0,1.1147,,0,7,7,19,1,REAL,FAKE,,,,,,,,,,,,,,,,,
,,,,,,,,,6742237ff27899244266a74f,Mexican,13 or older,"no, only English or Spanish",no,2025-07-22_20h38.25.860,empathy_intonation_perc,2024.2.4,MacIntel,59.88023952,6742237ff27899244266a74f,687ed1b7e638a4cbf2f02089,68802ed737db532102e2863f,,,,,,,,,,,,,,1,,,,,,,,,,,,,,,,,,,,,,,,,,,,,,,,,,,,,,,,,,,,,,,,,,,,,,,,,31,pandilla,,,,,495.3818,496.7817,0,0,0.876,,0,8,8,30,1,REAL,FAKE,,,,,,,,,,,,,,,,,
,,,,,,,,,6742237ff27899244266a74f,Mexican,13 or older,"no, only English or Spanish",no,2025-07-22_20h38.25.860,empathy_intonation_perc,2024.2.4,MacIntel,59.88023952,6742237ff27899244266a74f,687ed1b7e638a4cbf2f02089,68802ed737db532102e2863f,,,,,,,,,,,,,,0,,,,,,,,,,,,,,,,,,,,,,,,,,,,,,,,,,,,,,,,,,,,,,,,,,,,,,,,,19,brecedad,,,,,496.7831,498.1818,0,1,0.8624,,0,9,9,18,1,REAL,FAKE,,,,,,,,,,,,,,,,,
,,,,,,,,,6742237ff27899244266a74f,Mexican,13 or older,"no, only English or Spanish",no,2025-07-22_20h38.25.860,empathy_intonation_perc,2024.2.4,MacIntel,59.88023952,6742237ff27899244266a74f,687ed1b7e638a4cbf2f02089,68802ed737db532102e2863f,,,,,,,,,,,,,,0,,,,,,,,,,,,,,,,,,,,,,,,,,,,,,,,,,,,,,,,,,,,,,,,,,,,,,,,,8,cadeña,,,,,498.1833,499.9152,0,1,1.1886,,0,10,10,7,1,REAL,FAKE,,,,,,,,,,,,,,,,,
,,,,,,,,,6742237ff27899244266a74f,Mexican,13 or older,"no, only English or Spanish",no,2025-07-22_20h38.25.860,empathy_intonation_perc,2024.2.4,MacIntel,59.88023952,6742237ff27899244266a74f,687ed1b7e638a4cbf2f02089,68802ed737db532102e2863f,,,,,,,,,,,,,,1,,,,,,,,,,,,,,,,,,,,,,,,,,,,,,,,,,,,,,,,,,,,,,,,,,,,,,,,,80,hormiga,,,,,499.9162,501.2486,0,0,0.7961,,0,11,11,79,1,REAL,FAKE,,,,,,,,,,,,,,,,,
,,,,,,,,,6742237ff27899244266a74f,Mexican,13 or older,"no, only English or Spanish",no,2025-07-22_20h38.25.860,empathy_intonation_perc,2024.2.4,MacIntel,59.88023952,6742237ff27899244266a74f,687ed1b7e638a4cbf2f02089,68802ed737db532102e2863f,,,,,,,,,,,,,,0,,,,,,,,,,,,,,,,,,,,,,,,,,,,,,,,,,,,,,,,,,,,,,,,,,,,,,,,,30,alardio,,,,,501.2495,502.732,0,1,0.9451,,0,12,12,29,1,REAL,FAKE,,,,,,,,,,,,,,,,,
,,,,,,,,,6742237ff27899244266a74f,Mexican,13 or older,"no, only English or Spanish",no,2025-07-22_20h38.25.860,empathy_intonation_perc,2024.2.4,MacIntel,59.88023952,6742237ff27899244266a74f,687ed1b7e638a4cbf2f02089,68802ed737db532102e2863f,,,,,,,,,,,,,,1,,,,,,,,,,,,,,,,,,,,,,,,,,,,,,,,,,,,,,,,,,,,,,,,,,,,,,,,,7,pésimo,,,,,502.733,504.732,0,0,1.4563,,0,13,13,6,1,REAL,FAKE,,,,,,,,,,,,,,,,,
,,,,,,,,,6742237ff27899244266a74f,Mexican,13 or older,"no, only English or Spanish",no,2025-07-22_20h38.25.860,empathy_intonation_perc,2024.2.4,MacIntel,59.88023952,6742237ff27899244266a74f,687ed1b7e638a4cbf2f02089,68802ed737db532102e2863f,,,,,,,,,,,,,,0,,,,,,,,,,,,,,,,,,,,,,,,,,,,,,,,,,,,,,,,,,,,,,,,,,,,,,,,,42,cadallo,,,,,504.7329,506.0988,0,1,0.8319,,0,14,14,41,1,REAL,FAKE,,,,,,,,,,,,,,,,,
,,,,,,,,,6742237ff27899244266a74f,Mexican,13 or older,"no, only English or Spanish",no,2025-07-22_20h38.25.860,empathy_intonation_perc,2024.2.4,MacIntel,59.88023952,6742237ff27899244266a74f,687ed1b7e638a4cbf2f02089,68802ed737db532102e2863f,,,,,,,,,,,,,,1,,,,,,,,,,,,,,,,,,,,,,,,,,,,,,,,,,,,,,,,,,,,,,,,,,,,,,,,,22,lacayo,,,,,506.0998,507.5654,0,0,0.9219,,0,15,15,21,1,REAL,FAKE,,,,,,,,,,,,,,,,,
,,,,,,,,,6742237ff27899244266a74f,Mexican,13 or older,"no, only English or Spanish",no,2025-07-22_20h38.25.860,empathy_intonation_perc,2024.2.4,MacIntel,59.88023952,6742237ff27899244266a74f,687ed1b7e638a4cbf2f02089,68802ed737db532102e2863f,,,,,,,,,,,,,,1,,,,,,,,,,,,,,,,,,,,,,,,,,,,,,,,,,,,,,,,,,,,,,,,,,,,,,,,,51,candado,,,,,507.5663,509.199,1,1,1.1014,,0,16,16,50,1,REAL,FAKE,,,,,,,,,,,,,,,,,
,,,,,,,,,6742237ff27899244266a74f,Mexican,13 or older,"no, only English or Spanish",no,2025-07-22_20h38.25.860,empathy_intonation_perc,2024.2.4,MacIntel,59.88023952,6742237ff27899244266a74f,687ed1b7e638a4cbf2f02089,68802ed737db532102e2863f,,,,,,,,,,,,,,0,,,,,,,,,,,,,,,,,,,,,,,,,,,,,,,,,,,,,,,,,,,,,,,,,,,,,,,,,72,pemición,,,,,509.2002,510.4491,0,1,0.7027,,0,17,17,71,1,REAL,FAKE,,,,,,,,,,,,,,,,,
,,,,,,,,,6742237ff27899244266a74f,Mexican,13 or older,"no, only English or Spanish",no,2025-07-22_20h38.25.860,empathy_intonation_perc,2024.2.4,MacIntel,59.88023952,6742237ff27899244266a74f,687ed1b7e638a4cbf2f02089,68802ed737db532102e2863f,,,,,,,,,,,,,,1,,,,,,,,,,,,,,,,,,,,,,,,,,,,,,,,,,,,,,,,,,,,,,,,,,,,,,,,,54,fomentar,,,,,510.4501,511.8156,0,0,0.8286,,0,18,18,53,1,REAL,FAKE,,,,,,,,,,,,,,,,,
,,,,,,,,,6742237ff27899244266a74f,Mexican,13 or older,"no, only English or Spanish",no,2025-07-22_20h38.25.860,empathy_intonation_perc,2024.2.4,MacIntel,59.88023952,6742237ff27899244266a74f,687ed1b7e638a4cbf2f02089,68802ed737db532102e2863f,,,,,,,,,,,,,,1,,,,,,,,,,,,,,,,,,,,,,,,,,,,,,,,,,,,,,,,,,,,,,,,,,,,,,,,,6,tergiversar,,,,,511.8169,513.1985,0,0,0.8556,,0,19,19,5,1,REAL,FAKE,,,,,,,,,,,,,,,,,
,,,,,,,,,6742237ff27899244266a74f,Mexican,13 or older,"no, only English or Spanish",no,2025-07-22_20h38.25.860,empathy_intonation_perc,2024.2.4,MacIntel,59.88023952,6742237ff27899244266a74f,687ed1b7e638a4cbf2f02089,68802ed737db532102e2863f,,,,,,,,,,,,,,1,,,,,,,,,,,,,,,,,,,,,,,,,,,,,,,,,,,,,,,,,,,,,,,,,,,,,,,,,52,camisa,,,,,513.1992,514.5325,1,1,0.8125,,0,20,20,51,1,REAL,FAKE,,,,,,,,,,,,,,,,,
,,,,,,,,,6742237ff27899244266a74f,Mexican,13 or older,"no, only English or Spanish",no,2025-07-22_20h38.25.860,empathy_intonation_perc,2024.2.4,MacIntel,59.88023952,6742237ff27899244266a74f,687ed1b7e638a4cbf2f02089,68802ed737db532102e2863f,,,,,,,,,,,,,,1,,,,,,,,,,,,,,,,,,,,,,,,,,,,,,,,,,,,,,,,,,,,,,,,,,,,,,,,,83,guante,,,,,514.5336,515.899,0,0,0.8283,,0,21,21,82,1,REAL,FAKE,,,,,,,,,,,,,,,,,
,,,,,,,,,6742237ff27899244266a74f,Mexican,13 or older,"no, only English or Spanish",no,2025-07-22_20h38.25.860,empathy_intonation_perc,2024.2.4,MacIntel,59.88023952,6742237ff27899244266a74f,687ed1b7e638a4cbf2f02089,68802ed737db532102e2863f,,,,,,,,,,,,,,1,,,,,,,,,,,,,,,,,,,,,,,,,,,,,,,,,,,,,,,,,,,,,,,,,,,,,,,,,78,frondoso,,,,,515.9,517.2659,0,0,0.83,,0,22,22,77,1,REAL,FAKE,,,,,,,,,,,,,,,,,
,,,,,,,,,6742237ff27899244266a74f,Mexican,13 or older,"no, only English or Spanish",no,2025-07-22_20h38.25.860,empathy_intonation_perc,2024.2.4,MacIntel,59.88023952,6742237ff27899244266a74f,687ed1b7e638a4cbf2f02089,68802ed737db532102e2863f,,,,,,,,,,,,,,0,,,,,,,,,,,,,,,,,,,,,,,,,,,,,,,,,,,,,,,,,,,,,,,,,,,,,,,,,70,temblo,,,,,517.267,518.5324,0,1,0.7298,,0,23,23,69,1,REAL,FAKE,,,,,,,,,,,,,,,,,
,,,,,,,,,6742237ff27899244266a74f,Mexican,13 or older,"no, only English or Spanish",no,2025-07-22_20h38.25.860,empathy_intonation_perc,2024.2.4,MacIntel,59.88023952,6742237ff27899244266a74f,687ed1b7e638a4cbf2f02089,68802ed737db532102e2863f,,,,,,,,,,,,,,1,,,,,,,,,,,,,,,,,,,,,,,,,,,,,,,,,,,,,,,,,,,,,,,,,,,,,,,,,65,bizcocho,,,,,518.5335,519.8989,0,0,0.8236,,0,24,24,64,1,REAL,FAKE,,,,,,,,,,,,,,,,,
,,,,,,,,,6742237ff27899244266a74f,Mexican,13 or older,"no, only English or Spanish",no,2025-07-22_20h38.25.860,empathy_intonation_perc,2024.2.4,MacIntel,59.88023952,6742237ff27899244266a74f,687ed1b7e638a4cbf2f02089,68802ed737db532102e2863f,,,,,,,,,,,,,,0,,,,,,,,,,,,,,,,,,,,,,,,,,,,,,,,,,,,,,,,,,,,,,,,,,,,,,,,,32,fatacidad,,,,,519.9,521.2817,0,1,0.8456,,0,25,25,31,1,REAL,FAKE,,,,,,,,,,,,,,,,,
,,,,,,,,,6742237ff27899244266a74f,Mexican,13 or older,"no, only English or Spanish",no,2025-07-22_20h38.25.860,empathy_intonation_perc,2024.2.4,MacIntel,59.88023952,6742237ff27899244266a74f,687ed1b7e638a4cbf2f02089,68802ed737db532102e2863f,,,,,,,,,,,,,,1,,,,,,,,,,,,,,,,,,,,,,,,,,,,,,,,,,,,,,,,,,,,,,,,,,,,,,,,,89,prisa,,,,,521.2826,522.8657,0,0,1.0462,,0,26,26,88,1,REAL,FAKE,,,,,,,,,,,,,,,,,
,,,,,,,,,6742237ff27899244266a74f,Mexican,13 or older,"no, only English or Spanish",no,2025-07-22_20h38.25.860,empathy_intonation_perc,2024.2.4,MacIntel,59.88023952,6742237ff27899244266a74f,687ed1b7e638a4cbf2f02089,68802ed737db532102e2863f,,,,,,,,,,,,,,1,,,,,,,,,,,,,,,,,,,,,,,,,,,,,,,,,,,,,,,,,,,,,,,,,,,,,,,,,45,jilguero,,,,,522.8666,524.1332,0,0,0.7398,,0,27,27,44,1,REAL,FAKE,,,,,,,,,,,,,,,,,
,,,,,,,,,6742237ff27899244266a74f,Mexican,13 or older,"no, only English or Spanish",no,2025-07-22_20h38.25.860,empathy_intonation_perc,2024.2.4,MacIntel,59.88023952,6742237ff27899244266a74f,687ed1b7e638a4cbf2f02089,68802ed737db532102e2863f,,,,,,,,,,,,,,0,,,,,,,,,,,,,,,,,,,,,,,,,,,,,,,,,,,,,,,,,,,,,,,,,,,,,,,,,18,arsa,,,,,524.1342,525.4652,0,1,0.7989,,0,28,28,17,1,REAL,FAKE,,,,,,,,,,,,,,,,,
,,,,,,,,,6742237ff27899244266a74f,Mexican,13 or older,"no, only English or Spanish",no,2025-07-22_20h38.25.860,empathy_intonation_perc,2024.2.4,MacIntel,59.88023952,6742237ff27899244266a74f,687ed1b7e638a4cbf2f02089,68802ed737db532102e2863f,,,,,,,,,,,,,,0,,,,,,,,,,,,,,,,,,,,,,,,,,,,,,,,,,,,,,,,,,,,,,,,,,,,,,,,,10,antar,,,,,525.4664,527.1161,0,1,1.1322,,0,29,29,9,1,REAL,FAKE,,,,,,,,,,,,,,,,,
,,,,,,,,,6742237ff27899244266a74f,Mexican,13 or older,"no, only English or Spanish",no,2025-07-22_20h38.25.860,empathy_intonation_perc,2024.2.4,MacIntel,59.88023952,6742237ff27899244266a74f,687ed1b7e638a4cbf2f02089,68802ed737db532102e2863f,,,,,,,,,,,,,,1,,,,,,,,,,,,,,,,,,,,,,,,,,,,,,,,,,,,,,,,,,,,,,,,,,,,,,,,,59,besar,,,,,527.1172,528.4329,0,0,0.7775,,0,30,30,58,1,REAL,FAKE,,,,,,,,,,,,,,,,,
,,,,,,,,,6742237ff27899244266a74f,Mexican,13 or older,"no, only English or Spanish",no,2025-07-22_20h38.25.860,empathy_intonation_perc,2024.2.4,MacIntel,59.88023952,6742237ff27899244266a74f,687ed1b7e638a4cbf2f02089,68802ed737db532102e2863f,,,,,,,,,,,,,,1,,,,,,,,,,,,,,,,,,,,,,,,,,,,,,,,,,,,,,,,,,,,,,,,,,,,,,,,,25,bisagra,,,,,528.434,529.6995,0,0,0.7283,,0,31,31,24,1,REAL,FAKE,,,,,,,,,,,,,,,,,
,,,,,,,,,6742237ff27899244266a74f,Mexican,13 or older,"no, only English or Spanish",no,2025-07-22_20h38.25.860,empathy_intonation_perc,2024.2.4,MacIntel,59.88023952,6742237ff27899244266a74f,687ed1b7e638a4cbf2f02089,68802ed737db532102e2863f,,,,,,,,,,,,,,1,,,,,,,,,,,,,,,,,,,,,,,,,,,,,,,,,,,,,,,,,,,,,,,,,,,,,,,,,60,matar,,,,,529.7004,530.9493,0,0,0.7133,,0,32,32,59,1,REAL,FAKE,,,,,,,,,,,,,,,,,
,,,,,,,,,6742237ff27899244266a74f,Mexican,13 or older,"no, only English or Spanish",no,2025-07-22_20h38.25.860,empathy_intonation_perc,2024.2.4,MacIntel,59.88023952,6742237ff27899244266a74f,687ed1b7e638a4cbf2f02089,68802ed737db532102e2863f,,,,,,,,,,,,,,1,,,,,,,,,,,,,,,,,,,,,,,,,,,,,,,,,,,,,,,,,,,,,,,,,,,,,,,,,73,hervidor,,,,,530.9505,532.1496,0,0,0.6634,,0,33,33,72,1,REAL,FAKE,,,,,,,,,,,,,,,,,
,,,,,,,,,6742237ff27899244266a74f,Mexican,13 or older,"no, only English or Spanish",no,2025-07-22_20h38.25.860,empathy_intonation_perc,2024.2.4,MacIntel,59.88023952,6742237ff27899244266a74f,687ed1b7e638a4cbf2f02089,68802ed737db532102e2863f,,,,,,,,,,,,,,1,,,,,,,,,,,,,,,,,,,,,,,,,,,,,,,,,,,,,,,,,,,,,,,,,,,,,,,,,26,secuestro,,,,,532.1508,534.4831,0,0,1.7941,,0,34,34,25,1,REAL,FAKE,,,,,,,,,,,,,,,,,
,,,,,,,,,6742237ff27899244266a74f,Mexican,13 or older,"no, only English or Spanish",no,2025-07-22_20h38.25.860,empathy_intonation_perc,2024.2.4,MacIntel,59.88023952,6742237ff27899244266a74f,687ed1b7e638a4cbf2f02089,68802ed737db532102e2863f,,,,,,,,,,,,,,0,,,,,,,,,,,,,,,,,,,,,,,,,,,,,,,,,,,,,,,,,,,,,,,,,,,,,,,,,92,click the 0 key.,,,,,534.4843,537.2822,0,1,2.2529,,0,35,35,91,1,REAL,FAKE,,,,,,,,,,,,,,,,,
,,,,,,,,,6742237ff27899244266a74f,Mexican,13 or older,"no, only English or Spanish",no,2025-07-22_20h38.25.860,empathy_intonation_perc,2024.2.4,MacIntel,59.88023952,6742237ff27899244266a74f,687ed1b7e638a4cbf2f02089,68802ed737db532102e2863f,,,,,,,,,,,,,,1,,,,,,,,,,,,,,,,,,,,,,,,,,,,,,,,,,,,,,,,,,,,,,,,,,,,,,,,,68,alegre,,,,,537.2831,539.4832,0,0,1.6779,,0,36,36,67,1,REAL,FAKE,,,,,,,,,,,,,,,,,
,,,,,,,,,6742237ff27899244266a74f,Mexican,13 or older,"no, only English or Spanish",no,2025-07-22_20h38.25.860,empathy_intonation_perc,2024.2.4,MacIntel,59.88023952,6742237ff27899244266a74f,687ed1b7e638a4cbf2f02089,68802ed737db532102e2863f,,,,,,,,,,,,,,1,,,,,,,,,,,,,,,,,,,,,,,,,,,,,,,,,,,,,,,,,,,,,,,,,,,,,,,,,88,acantilado,,,,,539.4843,541.0666,0,0,1.0447,,0,37,37,87,1,REAL,FAKE,,,,,,,,,,,,,,,,,
,,,,,,,,,6742237ff27899244266a74f,Mexican,13 or older,"no, only English or Spanish",no,2025-07-22_20h38.25.860,empathy_intonation_perc,2024.2.4,MacIntel,59.88023952,6742237ff27899244266a74f,687ed1b7e638a4cbf2f02089,68802ed737db532102e2863f,,,,,,,,,,,,,,0,,,,,,,,,,,,,,,,,,,,,,,,,,,,,,,,,,,,,,,,,,,,,,,,,,,,,,,,,84,escuto,,,,,541.0678,542.683,0,1,1.0779,,0,38,38,83,1,REAL,FAKE,,,,,,,,,,,,,,,,,
,,,,,,,,,6742237ff27899244266a74f,Mexican,13 or older,"no, only English or Spanish",no,2025-07-22_20h38.25.860,empathy_intonation_perc,2024.2.4,MacIntel,59.88023952,6742237ff27899244266a74f,687ed1b7e638a4cbf2f02089,68802ed737db532102e2863f,,,,,,,,,,,,,,1,,,,,,,,,,,,,,,,,,,,,,,,,,,,,,,,,,,,,,,,,,,,,,,,,,,,,,,,,24,látigo,,,,,542.6836,544.15,0,0,0.9301,,0,39,39,23,1,REAL,FAKE,,,,,,,,,,,,,,,,,
,,,,,,,,,6742237ff27899244266a74f,Mexican,13 or older,"no, only English or Spanish",no,2025-07-22_20h38.25.860,empathy_intonation_perc,2024.2.4,MacIntel,59.88023952,6742237ff27899244266a74f,687ed1b7e638a4cbf2f02089,68802ed737db532102e2863f,,,,,,,,,,,,,,0,,,,,,,,,,,,,,,,,,,,,,,,,,,,,,,,,,,,,,,,,,,,,,,,,,,,,,,,,33,pauca,,,,,544.1511,545.5502,0,1,0.8647,,0,40,40,32,1,REAL,FAKE,,,,,,,,,,,,,,,,,
,,,,,,,,,6742237ff27899244266a74f,Mexican,13 or older,"no, only English or Spanish",no,2025-07-22_20h38.25.860,empathy_intonation_perc,2024.2.4,MacIntel,59.88023952,6742237ff27899244266a74f,687ed1b7e638a4cbf2f02089,68802ed737db532102e2863f,,,,,,,,,,,,,,1,,,,,,,,,,,,,,,,,,,,,,,,,,,,,,,,,,,,,,,,,,,,,,,,,,,,,,,,,75,yacer,,,,,545.5513,546.8158,0,0,0.7319,,0,41,41,74,1,REAL,FAKE,,,,,,,,,,,,,,,,,
,,,,,,,,,6742237ff27899244266a74f,Mexican,13 or older,"no, only English or Spanish",no,2025-07-22_20h38.25.860,empathy_intonation_perc,2024.2.4,MacIntel,59.88023952,6742237ff27899244266a74f,687ed1b7e638a4cbf2f02089,68802ed737db532102e2863f,,,,,,,,,,,,,,1,,,,,,,,,,,,,,,,,,,,,,,,,,,,,,,,,,,,,,,,,,,,,,,,,,,,,,,,,41,rebuscar,,,,,546.8169,550.7668,1,1,3.4339,,0,42,42,40,1,REAL,FAKE,,,,,,,,,,,,,,,,,
,,,,,,,,,6742237ff27899244266a74f,Mexican,13 or older,"no, only English or Spanish",no,2025-07-22_20h38.25.860,empathy_intonation_perc,2024.2.4,MacIntel,59.88023952,6742237ff27899244266a74f,687ed1b7e638a4cbf2f02089,68802ed737db532102e2863f,,,,,,,,,,,,,,0,,,,,,,,,,,,,,,,,,,,,,,,,,,,,,,,,,,,,,,,,,,,,,,,,,,,,,,,,27,acutación,,,,,550.7682,552.8836,0,1,1.5743,,0,43,43,26,1,REAL,FAKE,,,,,,,,,,,,,,,,,
,,,,,,,,,6742237ff27899244266a74f,Mexican,13 or older,"no, only English or Spanish",no,2025-07-22_20h38.25.860,empathy_intonation_perc,2024.2.4,MacIntel,59.88023952,6742237ff27899244266a74f,687ed1b7e638a4cbf2f02089,68802ed737db532102e2863f,,,,,,,,,,,,,,0,,,,,,,,,,,,,,,,,,,,,,,,,,,,,,,,,,,,,,,,,,,,,,,,,,,,,,,,,58,plaudir,,,,,552.8845,554.4337,0,1,1.0085,,0,44,44,57,1,REAL,FAKE,,,,,,,,,,,,,,,,,
,,,,,,,,,6742237ff27899244266a74f,Mexican,13 or older,"no, only English or Spanish",no,2025-07-22_20h38.25.860,empathy_intonation_perc,2024.2.4,MacIntel,59.88023952,6742237ff27899244266a74f,687ed1b7e638a4cbf2f02089,68802ed737db532102e2863f,,,,,,,,,,,,,,0,,,,,,,,,,,,,,,,,,,,,,,,,,,,,,,,,,,,,,,,,,,,,,,,,,,,,,,,,66,hacido,,,,,554.4349,556.0835,1,0,1.114,,0,45,45,65,1,REAL,FAKE,,,,,,,,,,,,,,,,,
,,,,,,,,,6742237ff27899244266a74f,Mexican,13 or older,"no, only English or Spanish",no,2025-07-22_20h38.25.860,empathy_intonation_perc,2024.2.4,MacIntel,59.88023952,6742237ff27899244266a74f,687ed1b7e638a4cbf2f02089,68802ed737db532102e2863f,,,,,,,,,,,,,,0,,,,,,,,,,,,,,,,,,,,,,,,,,,,,,,,,,,,,,,,,,,,,,,,,,,,,,,,,47,cartinar,,,,,556.0844,557.6002,0,1,0.9842,,0,46,46,46,1,REAL,FAKE,,,,,,,,,,,,,,,,,
,,,,,,,,,6742237ff27899244266a74f,Mexican,13 or older,"no, only English or Spanish",no,2025-07-22_20h38.25.860,empathy_intonation_perc,2024.2.4,MacIntel,59.88023952,6742237ff27899244266a74f,687ed1b7e638a4cbf2f02089,68802ed737db532102e2863f,,,,,,,,,,,,,,1,,,,,,,,,,,,,,,,,,,,,,,,,,,,,,,,,,,,,,,,,,,,,,,,,,,,,,,,,85,laúd,,,,,557.601,558.8672,0,0,0.7459,,0,47,47,84,1,REAL,FAKE,,,,,,,,,,,,,,,,,
,,,,,,,,,6742237ff27899244266a74f,Mexican,13 or older,"no, only English or Spanish",no,2025-07-22_20h38.25.860,empathy_intonation_perc,2024.2.4,MacIntel,59.88023952,6742237ff27899244266a74f,687ed1b7e638a4cbf2f02089,68802ed737db532102e2863f,,,,,,,,,,,,,,1,,,,,,,,,,,,,,,,,,,,,,,,,,,,,,,,,,,,,,,,,,,,,,,,,,,,,,,,,12,asesinato,,,,,558.8683,560.4672,0,0,1.0556,,0,48,48,11,1,REAL,FAKE,,,,,,,,,,,,,,,,,
,,,,,,,,,6742237ff27899244266a74f,Mexican,13 or older,"no, only English or Spanish",no,2025-07-22_20h38.25.860,empathy_intonation_perc,2024.2.4,MacIntel,59.88023952,6742237ff27899244266a74f,687ed1b7e638a4cbf2f02089,68802ed737db532102e2863f,,,,,,,,,,,,,,1,,,,,,,,,,,,,,,,,,,,,,,,,,,,,,,,,,,,,,,,,,,,,,,,,,,,,,,,,69,engatusar,,,,,560.4684,562.0506,0,0,1.0366,,0,49,49,68,1,REAL,FAKE,,,,,,,,,,,,,,,,,
,,,,,,,,,6742237ff27899244266a74f,Mexican,13 or older,"no, only English or Spanish",no,2025-07-22_20h38.25.860,empathy_intonation_perc,2024.2.4,MacIntel,59.88023952,6742237ff27899244266a74f,687ed1b7e638a4cbf2f02089,68802ed737db532102e2863f,,,,,,,,,,,,,,0,,,,,,,,,,,,,,,,,,,,,,,,,,,,,,,,,,,,,,,,,,,,,,,,,,,,,,,,,63,esposante,,,,,562.0515,564.5007,1,0,1.9044,,0,50,50,62,1,REAL,FAKE,,,,,,,,,,,,,,,,,
,,,,,,,,,6742237ff27899244266a74f,Mexican,13 or older,"no, only English or Spanish",no,2025-07-22_20h38.25.860,empathy_intonation_perc,2024.2.4,MacIntel,59.88023952,6742237ff27899244266a74f,687ed1b7e638a4cbf2f02089,68802ed737db532102e2863f,,,,,,,,,,,,,,1,,,,,,,,,,,,,,,,,,,,,,,,,,,,,,,,,,,,,,,,,,,,,,,,,,,,,,,,,39,torpe,,,,,564.5018,565.9506,1,1,0.9062,,0,51,51,38,1,REAL,FAKE,,,,,,,,,,,,,,,,,
,,,,,,,,,6742237ff27899244266a74f,Mexican,13 or older,"no, only English or Spanish",no,2025-07-22_20h38.25.860,empathy_intonation_perc,2024.2.4,MacIntel,59.88023952,6742237ff27899244266a74f,687ed1b7e638a4cbf2f02089,68802ed737db532102e2863f,,,,,,,,,,,,,,1,,,,,,,,,,,,,,,,,,,,,,,,,,,,,,,,,,,,,,,,,,,,,,,,,,,,,,,,,3,pulmones,,,,,565.9518,567.9008,1,1,1.4084,,0,52,52,2,1,REAL,FAKE,,,,,,,,,,,,,,,,,
,,,,,,,,,6742237ff27899244266a74f,Mexican,13 or older,"no, only English or Spanish",no,2025-07-22_20h38.25.860,empathy_intonation_perc,2024.2.4,MacIntel,59.88023952,6742237ff27899244266a74f,687ed1b7e638a4cbf2f02089,68802ed737db532102e2863f,,,,,,,,,,,,,,1,,,,,,,,,,,,,,,,,,,,,,,,,,,,,,,,,,,,,,,,,,,,,,,,,,,,,,,,,61,seda,,,,,567.9018,569.0341,0,0,0.5961,,0,53,53,60,1,REAL,FAKE,,,,,,,,,,,,,,,,,
,,,,,,,,,6742237ff27899244266a74f,Mexican,13 or older,"no, only English or Spanish",no,2025-07-22_20h38.25.860,empathy_intonation_perc,2024.2.4,MacIntel,59.88023952,6742237ff27899244266a74f,687ed1b7e638a4cbf2f02089,68802ed737db532102e2863f,,,,,,,,,,,,,,0,,,,,,,,,,,,,,,,,,,,,,,,,,,,,,,,,,,,,,,,,,,,,,,,,,,,,,,,,4,batillón,,,,,569.0351,570.2008,0,1,0.623,,0,54,54,3,1,REAL,FAKE,,,,,,,,,,,,,,,,,
,,,,,,,,,6742237ff27899244266a74f,Mexican,13 or older,"no, only English or Spanish",no,2025-07-22_20h38.25.860,empathy_intonation_perc,2024.2.4,MacIntel,59.88023952,6742237ff27899244266a74f,687ed1b7e638a4cbf2f02089,68802ed737db532102e2863f,,,,,,,,,,,,,,1,,,,,,,,,,,,,,,,,,,,,,,,,,,,,,,,,,,,,,,,,,,,,,,,,,,,,,,,,77,tiburón,,,,,570.2017,571.3511,0,0,0.6249,,0,55,55,76,1,REAL,FAKE,,,,,,,,,,,,,,,,,
,,,,,,,,,6742237ff27899244266a74f,Mexican,13 or older,"no, only English or Spanish",no,2025-07-22_20h38.25.860,empathy_intonation_perc,2024.2.4,MacIntel,59.88023952,6742237ff27899244266a74f,687ed1b7e638a4cbf2f02089,68802ed737db532102e2863f,,,,,,,,,,,,,,0,,,,,,,,,,,,,,,,,,,,,,,,,,,,,,,,,,,,,,,,,,,,,,,,,,,,,,,,,16,abracer,,,,,571.3523,573.0676,0,1,1.1726,,0,56,56,15,1,REAL,FAKE,,,,,,,,,,,,,,,,,
,,,,,,,,,6742237ff27899244266a74f,Mexican,13 or older,"no, only English or Spanish",no,2025-07-22_20h38.25.860,empathy_intonation_perc,2024.2.4,MacIntel,59.88023952,6742237ff27899244266a74f,687ed1b7e638a4cbf2f02089,68802ed737db532102e2863f,,,,,,,,,,,,,,1,,,,,,,,,,,,,,,,,,,,,,,,,,,,,,,,,,,,,,,,,,,,,,,,,,,,,,,,,40,alfombra,,,,,573.0685,574.1507,0,0,0.55,,0,57,57,39,1,REAL,FAKE,,,,,,,,,,,,,,,,,
,,,,,,,,,6742237ff27899244266a74f,Mexican,13 or older,"no, only English or Spanish",no,2025-07-22_20h38.25.860,empathy_intonation_perc,2024.2.4,MacIntel,59.88023952,6742237ff27899244266a74f,687ed1b7e638a4cbf2f02089,68802ed737db532102e2863f,,,,,,,,,,,,,,1,,,,,,,,,,,,,,,,,,,,,,,,,,,,,,,,,,,,,,,,,,,,,,,,,,,,,,,,,46,martillo,,,,,574.1514,575.251,1,1,0.5683,,0,58,58,45,1,REAL,FAKE,,,,,,,,,,,,,,,,,
,,,,,,,,,6742237ff27899244266a74f,Mexican,13 or older,"no, only English or Spanish",no,2025-07-22_20h38.25.860,empathy_intonation_perc,2024.2.4,MacIntel,59.88023952,6742237ff27899244266a74f,687ed1b7e638a4cbf2f02089,68802ed737db532102e2863f,,,,,,,,,,,,,,0,,,,,,,,,,,,,,,,,,,,,,,,,,,,,,,,,,,,,,,,,,,,,,,,,,,,,,,,,50,flamida,,,,,575.252,577.5677,0,1,1.78,,0,59,59,49,1,REAL,FAKE,,,,,,,,,,,,,,,,,
,,,,,,,,,6742237ff27899244266a74f,Mexican,13 or older,"no, only English or Spanish",no,2025-07-22_20h38.25.860,empathy_intonation_perc,2024.2.4,MacIntel,59.88023952,6742237ff27899244266a74f,687ed1b7e638a4cbf2f02089,68802ed737db532102e2863f,,,,,,,,,,,,,,0,,,,,,,,,,,,,,,,,,,,,,,,,,,,,,,,,,,,,,,,,,,,,,,,,,,,,,,,,1,terzo,,,,,577.5689,578.8511,0,1,0.7431,,0,60,60,0,1,REAL,FAKE,,,,,,,,,,,,,,,,,
,,,,,,,,,6742237ff27899244266a74f,Mexican,13 or older,"no, only English or Spanish",no,2025-07-22_20h38.25.860,empathy_intonation_perc,2024.2.4,MacIntel,59.88023952,6742237ff27899244266a74f,687ed1b7e638a4cbf2f02089,68802ed737db532102e2863f,,,,,,,,,,,,,,1,,,,,,,,,,,,,,,,,,,,,,,,,,,,,,,,,,,,,,,,,,,,,,,,,,,,,,,,,43,canela,,,,,578.8521,580.5512,0,0,1.1622,,0,61,61,42,1,REAL,FAKE,,,,,,,,,,,,,,,,,
,,,,,,,,,6742237ff27899244266a74f,Mexican,13 or older,"no, only English or Spanish",no,2025-07-22_20h38.25.860,empathy_intonation_perc,2024.2.4,MacIntel,59.88023952,6742237ff27899244266a74f,687ed1b7e638a4cbf2f02089,68802ed737db532102e2863f,,,,,,,,,,,,,,1,,,,,,,,,,,,,,,,,,,,,,,,,,,,,,,,,,,,,,,,,,,,,,,,,,,,,,,,,86,barato,,,,,580.5523,582.2847,1,1,1.195,,0,62,62,85,1,REAL,FAKE,,,,,,,,,,,,,,,,,
,,,,,,,,,6742237ff27899244266a74f,Mexican,13 or older,"no, only English or Spanish",no,2025-07-22_20h38.25.860,empathy_intonation_perc,2024.2.4,MacIntel,59.88023952,6742237ff27899244266a74f,687ed1b7e638a4cbf2f02089,68802ed737db532102e2863f,,,,,,,,,,,,,,1,,,,,,,,,,,,,,,,,,,,,,,,,,,,,,,,,,,,,,,,,,,,,,,,,,,,,,,,,37,granuja,,,,,582.2857,584.0016,1,1,1.1854,,0,63,63,36,1,REAL,FAKE,,,,,,,,,,,,,,,,,
,,,,,,,,,6742237ff27899244266a74f,Mexican,13 or older,"no, only English or Spanish",no,2025-07-22_20h38.25.860,empathy_intonation_perc,2024.2.4,MacIntel,59.88023952,6742237ff27899244266a74f,687ed1b7e638a4cbf2f02089,68802ed737db532102e2863f,,,,,,,,,,,,,,1,,,,,,,,,,,,,,,,,,,,,,,,,,,,,,,,,,,,,,,,,,,,,,,,,,,,,,,,,14,yunque,,,,,584.0025,585.1846,0,0,0.6397,,0,64,64,13,1,REAL,FAKE,,,,,,,,,,,,,,,,,
,,,,,,,,,6742237ff27899244266a74f,Mexican,13 or older,"no, only English or Spanish",no,2025-07-22_20h38.25.860,empathy_intonation_perc,2024.2.4,MacIntel,59.88023952,6742237ff27899244266a74f,687ed1b7e638a4cbf2f02089,68802ed737db532102e2863f,,,,,,,,,,,,,,1,,,,,,,,,,,,,,,,,,,,,,,,,,,,,,,,,,,,,,,,,,,,,,,,,,,,,,,,,55,nevar,,,,,585.1857,586.618,0,0,0.8889,,0,65,65,54,1,REAL,FAKE,,,,,,,,,,,,,,,,,
,,,,,,,,,6742237ff27899244266a74f,Mexican,13 or older,"no, only English or Spanish",no,2025-07-22_20h38.25.860,empathy_intonation_perc,2024.2.4,MacIntel,59.88023952,6742237ff27899244266a74f,687ed1b7e638a4cbf2f02089,68802ed737db532102e2863f,,,,,,,,,,,,,,1,,,,,,,,,,,,,,,,,,,,,,,,,,,,,,,,,,,,,,,,,,,,,,,,,,,,,,,,,56,musgo,,,,,586.619,587.9517,0,0,0.8023,,0,66,66,55,1,REAL,FAKE,,,,,,,,,,,,,,,,,
,,,,,,,,,6742237ff27899244266a74f,Mexican,13 or older,"no, only English or Spanish",no,2025-07-22_20h38.25.860,empathy_intonation_perc,2024.2.4,MacIntel,59.88023952,6742237ff27899244266a74f,687ed1b7e638a4cbf2f02089,68802ed737db532102e2863f,,,,,,,,,,,,,,1,,,,,,,,,,,,,,,,,,,,,,,,,,,,,,,,,,,,,,,,,,,,,,,,,,,,,,,,,5,zapato,,,,,587.9528,589.3515,1,1,0.8619,,0,67,67,4,1,REAL,FAKE,,,,,,,,,,,,,,,,,
,,,,,,,,,6742237ff27899244266a74f,Mexican,13 or older,"no, only English or Spanish",no,2025-07-22_20h38.25.860,empathy_intonation_perc,2024.2.4,MacIntel,59.88023952,6742237ff27899244266a74f,687ed1b7e638a4cbf2f02089,68802ed737db532102e2863f,,,,,,,,,,,,,,0,,,,,,,,,,,,,,,,,,,,,,,,,,,,,,,,,,,,,,,,,,,,,,,,,,,,,,,,,82,empirador,,,,,589.3525,591.1682,1,0,1.2789,,0,68,68,81,1,REAL,FAKE,,,,,,,,,,,,,,,,,
,,,,,,,,,6742237ff27899244266a74f,Mexican,13 or older,"no, only English or Spanish",no,2025-07-22_20h38.25.860,empathy_intonation_perc,2024.2.4,MacIntel,59.88023952,6742237ff27899244266a74f,687ed1b7e638a4cbf2f02089,68802ed737db532102e2863f,,,,,,,,,,,,,,1,,,,,,,,,,,,,,,,,,,,,,,,,,,,,,,,,,,,,,,,,,,,,,,,,,,,,,,,,81,pozo,,,,,591.1693,592.3349,0,0,0.6278,,0,69,69,80,1,REAL,FAKE,,,,,,,,,,,,,,,,,
,,,,,,,,,6742237ff27899244266a74f,Mexican,13 or older,"no, only English or Spanish",no,2025-07-22_20h38.25.860,empathy_intonation_perc,2024.2.4,MacIntel,59.88023952,6742237ff27899244266a74f,687ed1b7e638a4cbf2f02089,68802ed737db532102e2863f,,,,,,,,,,,,,,0,,,,,,,,,,,,,,,,,,,,,,,,,,,,,,,,,,,,,,,,,,,,,,,,,,,,,,,,,17,floroso,,,,,592.3358,593.5016,0,1,0.6286,,0,70,70,16,1,REAL,FAKE,,,,,,,,,,,,,,,,,
,,,,,,,,,6742237ff27899244266a74f,Mexican,13 or older,"no, only English or Spanish",no,2025-07-22_20h38.25.860,empathy_intonation_perc,2024.2.4,MacIntel,59.88023952,6742237ff27899244266a74f,687ed1b7e638a4cbf2f02089,68802ed737db532102e2863f,,,,,,,,,,,,,,1,,,,,,,,,,,,,,,,,,,,,,,,,,,,,,,,,,,,,,,,,,,,,,,,,,,,,,,,,28,merodear,,,,,593.5026,594.6674,0,0,0.6279,,0,71,71,27,1,REAL,FAKE,,,,,,,,,,,,,,,,,
,,,,,,,,,6742237ff27899244266a74f,Mexican,13 or older,"no, only English or Spanish",no,2025-07-22_20h38.25.860,empathy_intonation_perc,2024.2.4,MacIntel,59.88023952,6742237ff27899244266a74f,687ed1b7e638a4cbf2f02089,68802ed737db532102e2863f,,,,,,,,,,,,,,1,,,,,,,,,,,,,,,,,,,,,,,,,,,,,,,,,,,,,,,,,,,,,,,,,,,,,,,,,71,polvoriento,,,,,594.6685,596.0516,0,0,0.8624,,0,72,72,70,1,REAL,FAKE,,,,,,,,,,,,,,,,,
,,,,,,,,,6742237ff27899244266a74f,Mexican,13 or older,"no, only English or Spanish",no,2025-07-22_20h38.25.860,empathy_intonation_perc,2024.2.4,MacIntel,59.88023952,6742237ff27899244266a74f,687ed1b7e638a4cbf2f02089,68802ed737db532102e2863f,,,,,,,,,,,,,,1,,,,,,,,,,,,,,,,,,,,,,,,,,,,,,,,,,,,,,,,,,,,,,,,,,,,,,,,,34,aviso,,,,,596.0526,597.7017,0,0,1.1159,,0,73,73,33,1,REAL,FAKE,,,,,,,,,,,,,,,,,
,,,,,,,,,6742237ff27899244266a74f,Mexican,13 or older,"no, only English or Spanish",no,2025-07-22_20h38.25.860,empathy_intonation_perc,2024.2.4,MacIntel,59.88023952,6742237ff27899244266a74f,687ed1b7e638a4cbf2f02089,68802ed737db532102e2863f,,,,,,,,,,,,,,0,,,,,,,,,,,,,,,,,,,,,,,,,,,,,,,,,,,,,,,,,,,,,,,,,,,,,,,,,23,lampera,,,,,597.7027,599.1518,1,0,0.9135,,0,74,74,22,1,REAL,FAKE,,,,,,,,,,,,,,,,,
,,,,,,,,,6742237ff27899244266a74f,Mexican,13 or older,"no, only English or Spanish",no,2025-07-22_20h38.25.860,empathy_intonation_perc,2024.2.4,MacIntel,59.88023952,6742237ff27899244266a74f,687ed1b7e638a4cbf2f02089,68802ed737db532102e2863f,,,,,,,,,,,,,,1,,,,,,,,,,,,,,,,,,,,,,,,,,,,,,,,,,,,,,,,,,,,,,,,,,,,,,,,,13,helar,,,,,599.1529,600.2852,0,0,0.5884,,0,75,75,12,1,REAL,FAKE,,,,,,,,,,,,,,,,,
,,,,,,,,,6742237ff27899244266a74f,Mexican,13 or older,"no, only English or Spanish",no,2025-07-22_20h38.25.860,empathy_intonation_perc,2024.2.4,MacIntel,59.88023952,6742237ff27899244266a74f,687ed1b7e638a4cbf2f02089,68802ed737db532102e2863f,,,,,,,,,,,,,,1,,,,,,,,,,,,,,,,,,,,,,,,,,,,,,,,,,,,,,,,,,,,,,,,,,,,,,,,,36,loro,,,,,600.2863,601.4854,0,0,0.6568,,0,76,76,35,1,REAL,FAKE,,,,,,,,,,,,,,,,,
,,,,,,,,,6742237ff27899244266a74f,Mexican,13 or older,"no, only English or Spanish",no,2025-07-22_20h38.25.860,empathy_intonation_perc,2024.2.4,MacIntel,59.88023952,6742237ff27899244266a74f,687ed1b7e638a4cbf2f02089,68802ed737db532102e2863f,,,,,,,,,,,,,,0,,,,,,,,,,,,,,,,,,,,,,,,,,,,,,,,,,,,,,,,,,,,,,,,,,,,,,,,,87,grodo,,,,,601.4864,602.9519,0,1,0.93,,0,77,77,86,1,REAL,FAKE,,,,,,,,,,,,,,,,,
,,,,,,,,,6742237ff27899244266a74f,Mexican,13 or older,"no, only English or Spanish",no,2025-07-22_20h38.25.860,empathy_intonation_perc,2024.2.4,MacIntel,59.88023952,6742237ff27899244266a74f,687ed1b7e638a4cbf2f02089,68802ed737db532102e2863f,,,,,,,,,,,,,,1,,,,,,,,,,,,,,,,,,,,,,,,,,,,,,,,,,,,,,,,,,,,,,,,,,,,,,,,,2,pellizcar,,,,,602.9529,604.301,0,0,0.8141,,0,78,78,1,1,REAL,FAKE,,,,,,,,,,,,,,,,,
,,,,,,,,,6742237ff27899244266a74f,Mexican,13 or older,"no, only English or Spanish",no,2025-07-22_20h38.25.860,empathy_intonation_perc,2024.2.4,MacIntel,59.88023952,6742237ff27899244266a74f,687ed1b7e638a4cbf2f02089,68802ed737db532102e2863f,,,,,,,,,,,,,,1,,,,,,,,,,,,,,,,,,,,,,,,,,,,,,,,,,,,,,,,,,,,,,,,,,,,,,,,,15,regar,,,,,604.3017,605.6683,1,1,0.8616,,0,79,79,14,1,REAL,FAKE,,,,,,,,,,,,,,,,,
,,,,,,,,,6742237ff27899244266a74f,Mexican,13 or older,"no, only English or Spanish",no,2025-07-22_20h38.25.860,empathy_intonation_perc,2024.2.4,MacIntel,59.88023952,6742237ff27899244266a74f,687ed1b7e638a4cbf2f02089,68802ed737db532102e2863f,,,,,,,,,,,,,,1,,,,,,,,,,,,,,,,,,,,,,,,,,,,,,,,,,,,,,,,,,,,,,,,,,,,,,,,,90,clavel,,,,,605.6688,606.7846,0,0,0.5827,,0,80,80,89,1,REAL,FAKE,,,,,,,,,,,,,,,,,
,,,,,,,,,6742237ff27899244266a74f,Mexican,13 or older,"no, only English or Spanish",no,2025-07-22_20h38.25.860,empathy_intonation_perc,2024.2.4,MacIntel,59.88023952,6742237ff27899244266a74f,687ed1b7e638a4cbf2f02089,68802ed737db532102e2863f,,,,,,,,,,,,,,1,,,,,,,,,,,,,,,,,,,,,,,,,,,,,,,,,,,,,,,,,,,,,,,,,,,,,,,,,9,hacha,,,,,606.7855,607.9181,0,0,0.5949,,0,81,81,8,1,REAL,FAKE,,,,,,,,,,,,,,,,,
,,,,,,,,,6742237ff27899244266a74f,Mexican,13 or older,"no, only English or Spanish",no,2025-07-22_20h38.25.860,empathy_intonation_perc,2024.2.4,MacIntel,59.88023952,6742237ff27899244266a74f,687ed1b7e638a4cbf2f02089,68802ed737db532102e2863f,,,,,,,,,,,,,,1,,,,,,,,,,,,,,,,,,,,,,,,,,,,,,,,,,,,,,,,,,,,,,,,,,,,,,,,,76,atar,,,,,607.9191,609.0188,0,0,0.5624,,0,82,82,75,1,REAL,FAKE,,,,,,,,,,,,,,,,,
,,,,,,,,,6742237ff27899244266a74f,Mexican,13 or older,"no, only English or Spanish",no,2025-07-22_20h38.25.860,empathy_intonation_perc,2024.2.4,MacIntel,59.88023952,6742237ff27899244266a74f,687ed1b7e638a4cbf2f02089,68802ed737db532102e2863f,,,,,,,,,,,,,,1,,,,,,,,,,,,,,,,,,,,,,,,,,,,,,,,,,,,,,,,,,,,,,,,,,,,,,,,,11,cenefa,,,,,609.0197,610.1022,0,0,0.5471,,0,83,83,10,1,REAL,FAKE,,,,,,,,,,,,,,,,,
,,,,,,,,,6742237ff27899244266a74f,Mexican,13 or older,"no, only English or Spanish",no,2025-07-22_20h38.25.860,empathy_intonation_perc,2024.2.4,MacIntel,59.88023952,6742237ff27899244266a74f,687ed1b7e638a4cbf2f02089,68802ed737db532102e2863f,,,,,,,,,,,,,,1,,,,,,,,,,,,,,,,,,,,,,,,,,,,,,,,,,,,,,,,,,,,,,,,,,,,,,,,,91,click the 1 key.,,,,,610.1034,611.6023,1,1,0.9543,,0,84,84,90,1,REAL,FAKE,,,,,,,,,,,,,,,,,
,,,,,,,,,6742237ff27899244266a74f,Mexican,13 or older,"no, only English or Spanish",no,2025-07-22_20h38.25.860,empathy_intonation_perc,2024.2.4,MacIntel,59.88023952,6742237ff27899244266a74f,687ed1b7e638a4cbf2f02089,68802ed737db532102e2863f,,,,,,,,,,,,,,0,,,,,,,,,,,,,,,,,,,,,,,,,,,,,,,,,,,,,,,,,,,,,,,,,,,,,,,,,79,tropaje,,,,,611.6032,614.7346,0,1,2.5942,,0,85,85,78,1,REAL,FAKE,,,,,,,,,,,,,,,,,
,,,,,,,,,6742237ff27899244266a74f,Mexican,13 or older,"no, only English or Spanish",no,2025-07-22_20h38.25.860,empathy_intonation_perc,2024.2.4,MacIntel,59.88023952,6742237ff27899244266a74f,687ed1b7e638a4cbf2f02089,68802ed737db532102e2863f,,,,,,,,,,,,,,1,,,,,,,,,,,,,,,,,,,,,,,,,,,,,,,,,,,,,,,,,,,,,,,,,,,,,,,,,48,ladrón,,,,,614.7359,617.1024,0,0,1.8453,,0,86,86,47,1,REAL,FAKE,,,,,,,,,,,,,,,,,
,,,,,,,,,6742237ff27899244266a74f,Mexican,13 or older,"no, only English or Spanish",no,2025-07-22_20h38.25.860,empathy_intonation_perc,2024.2.4,MacIntel,59.88023952,6742237ff27899244266a74f,687ed1b7e638a4cbf2f02089,68802ed737db532102e2863f,,,,,,,,,,,,,,0,,,,,,,,,,,,,,,,,,,,,,,,,,,,,,,,,,,,,,,,,,,,,,,,,,,,,,,,,74,cintro,,,,,617.1036,618.3192,0,1,0.6729,,0,87,87,73,1,REAL,FAKE,,,,,,,,,,,,,,,,,
,,,,,,,,,6742237ff27899244266a74f,Mexican,13 or older,"no, only English or Spanish",no,2025-07-22_20h38.25.860,empathy_intonation_perc,2024.2.4,MacIntel,59.88023952,6742237ff27899244266a74f,687ed1b7e638a4cbf2f02089,68802ed737db532102e2863f,,,,,,,,,,,,,,0,,,,,,,,,,,,,,,,,,,,,,,,,,,,,,,,,,,,,,,,,,,,,,,,,,,,,,,,,53,vegada,,,,,618.3202,620.2359,0,1,1.3789,,0,88,88,52,1,REAL,FAKE,,,,,,,,,,,,,,,,,
,,,,,,,,,6742237ff27899244266a74f,Mexican,13 or older,"no, only English or Spanish",no,2025-07-22_20h38.25.860,empathy_intonation_perc,2024.2.4,MacIntel,59.88023952,6742237ff27899244266a74f,687ed1b7e638a4cbf2f02089,68802ed737db532102e2863f,,,,,,,,,,,,,,1,,,,,,,,,,,,,,,,,,,,,,,,,,,,,,,,,,,,,,,,,,,,,,,,,,,,,,,,,44,cuchara,,,,,620.2371,621.5694,1,1,0.8021,,0,89,89,43,1,REAL,FAKE,,,,,,,,,,,,,,,,,
,,,,,,,,,6742237ff27899244266a74f,Mexican,13 or older,"no, only English or Spanish",no,2025-07-22_20h38.25.860,empathy_intonation_perc,2024.2.4,MacIntel,59.88023952,6742237ff27899244266a74f,687ed1b7e638a4cbf2f02089,68802ed737db532102e2863f,,,,,,,,,,,,,,1,,,,,,,,,,,,,,,,,,,,,,,,,,,,,,,,,,,,,,,,,,,,,,,,,,,,,,,,,38,estornudar,,,,,621.5704,623.2189,0,0,1.1113,,0,90,90,37,1,REAL,FAKE,,,,,,,,,,,,,,,,,
,,,,,,,,,6742237ff27899244266a74f,Mexican,13 or older,"no, only English or Spanish",no,2025-07-22_20h38.25.860,empathy_intonation_perc,2024.2.4,MacIntel,59.88023952,6742237ff27899244266a74f,687ed1b7e638a4cbf2f02089,68802ed737db532102e2863f,,,,,,,,,,,,,,1,,,,,,,,,,,,,,,,,,,,,,,,,,,,,,,,,,,,,,,,,,,,,,,,,,,,,,,,,57,tacaño,,,,,623.2196,624.8526,0,0,1.1013,,0,91,91,56,1,REAL,FAKE,,,,,,,,,,,,,,,,,
,,,,,,,,,6742237ff27899244266a74f,Mexican,13 or older,"no, only English or Spanish",no,2025-07-22_20h38.25.860,empathy_intonation_perc,2024.2.4,MacIntel,59.88023952,6742237ff27899244266a74f,687ed1b7e638a4cbf2f02089,68802ed737db532102e2863f,,,,,,,,,,,,,,,,,,,,,,,,,,,,,,,,,,,,,,,,,,,,,,,,,,,,,,,,,,,,,,,,,,,,,,,,,,,,,,,,,,,,,,,,,,624.8531,630.5199,,,,,,,,,,,,,,,
,,,,,,,,,6742237ff27899244266a74f,Mexican,13 or older,"no, only English or Spanish",no,2025-07-22_20h38.25.860,empathy_intonation_perc,2024.2.4,MacIntel,59.88023952,6742237ff27899244266a74f,687ed1b7e638a4cbf2f02089,68802ed737db532102e2863f,,,,,,,,,,,,,1,,,,,,,,,,,,,,,,,,,,,,,,,,,,,,,,,,,,,,,,,,,,,,,,,,,,,,,,,,,,,,,,,,,,,,,,,,,,,,,630.5318,637.7532,slightly agree,0,0,0,0,1,I can easily tell if someone else wants to enter a conversation.,1,0,1,0,,
,,,,,,,,,6742237ff27899244266a74f,Mexican,13 or older,"no, only English or Spanish",no,2025-07-22_20h38.25.860,empathy_intonation_perc,2024.2.4,MacIntel,59.88023952,6742237ff27899244266a74f,687ed1b7e638a4cbf2f02089,68802ed737db532102e2863f,,,,,,,,,,,,,2,,,,,,,,,,,,,,,,,,,,,,,,,,,,,,,,,,,,,,,,,,,,,,,,,,,,,,,,,,,,,,,,,,,,,,,,,,,,,,,637.7546,640.2695,slightly disagree,0,1,1,1,1,I prefer animals to humans.,0,1,0,0,,
,,,,,,,,,6742237ff27899244266a74f,Mexican,13 or older,"no, only English or Spanish",no,2025-07-22_20h38.25.860,empathy_intonation_perc,2024.2.4,MacIntel,59.88023952,6742237ff27899244266a74f,687ed1b7e638a4cbf2f02089,68802ed737db532102e2863f,,,,,,,,,,,,,3,,,,,,,,,,,,,,,,,,,,,,,,,,,,,,,,,,,,,,,,,,,,,,,,,,,,,,,,,,,,,,,,,,,,,,,,,,,,,,,640.2704,643.8697,slightly agree,0,2,2,2,1,I try to keep up with the current trends and fashions.,0,1,0,0,,
,,,,,,,,,6742237ff27899244266a74f,Mexican,13 or older,"no, only English or Spanish",no,2025-07-22_20h38.25.860,empathy_intonation_perc,2024.2.4,MacIntel,59.88023952,6742237ff27899244266a74f,687ed1b7e638a4cbf2f02089,68802ed737db532102e2863f,,,,,,,,,,,,,4,,,,,,,,,,,,,,,,,,,,,,,,,,,,,,,,,,,,,,,,,,,,,,,,,,,,,,,,,,,,,,,,,,,,,,,,,,,,,,,643.8706,652.4705,slightly agree,0,3,3,3,1,"I find it difficult to explain to others things that I understand easily,   when they don't understand it first time.",1,0,0,1,,
,,,,,,,,,6742237ff27899244266a74f,Mexican,13 or older,"no, only English or Spanish",no,2025-07-22_20h38.25.860,empathy_intonation_perc,2024.2.4,MacIntel,59.88023952,6742237ff27899244266a74f,687ed1b7e638a4cbf2f02089,68802ed737db532102e2863f,,,,,,,,,,,,,5,,,,,,,,,,,,,,,,,,,,,,,,,,,,,,,,,,,,,,,,,,,,,,,,,,,,,,,,,,,,,,,,,,,,,,,,,,,,,,,652.4717,654.637,slightly agree,0,4,4,4,1,I dream most nights.,0,1,0,0,,
,,,,,,,,,6742237ff27899244266a74f,Mexican,13 or older,"no, only English or Spanish",no,2025-07-22_20h38.25.860,empathy_intonation_perc,2024.2.4,MacIntel,59.88023952,6742237ff27899244266a74f,687ed1b7e638a4cbf2f02089,68802ed737db532102e2863f,,,,,,,,,,,,,6,,,,,,,,,,,,,,,,,,,,,,,,,,,,,,,,,,,,,,,,,,,,,,,,,,,,,,,,,,,,,,,,,,,,,,,,,,,,,,,654.6385,656.6869,strongly agree,0,5,5,5,1,I really enjoy caring for other people.,1,0,1,0,,
,,,,,,,,,6742237ff27899244266a74f,Mexican,13 or older,"no, only English or Spanish",no,2025-07-22_20h38.25.860,empathy_intonation_perc,2024.2.4,MacIntel,59.88023952,6742237ff27899244266a74f,687ed1b7e638a4cbf2f02089,68802ed737db532102e2863f,,,,,,,,,,,,,7,,,,,,,,,,,,,,,,,,,,,,,,,,,,,,,,,,,,,,,,,,,,,,,,,,,,,,,,,,,,,,,,,,,,,,,,,,,,,,,656.6882,659.3202,slightly agree,0,6,6,6,1,I try to solve my own problems rather than discussing them with others.,0,1,0,0,,
,,,,,,,,,6742237ff27899244266a74f,Mexican,13 or older,"no, only English or Spanish",no,2025-07-22_20h38.25.860,empathy_intonation_perc,2024.2.4,MacIntel,59.88023952,6742237ff27899244266a74f,687ed1b7e638a4cbf2f02089,68802ed737db532102e2863f,,,,,,,,,,,,,8,,,,,,,,,,,,,,,,,,,,,,,,,,,,,,,,,,,,,,,,,,,,,,,,,,,,,,,,,,,,,,,,,,,,,,,,,,,,,,,659.3211,660.9875,slightly agree,0,7,7,7,1,I find it hard to know what to do in a social situation.,1,0,0,1,,
