instructions_exposure.started,instructions_exposure.stopped,instructions_exposure_loop.thisRepN,instructions_exposure_loop.thisTrialN,instructions_exposure_loop.thisN,instructions_exposure_loop.thisIndex,instructions_exposure_loop.ran,instructions_text,continue_text,participant_id,"What variety of Spanish are you most familiar with? (e.g., Peruvian, Spanish, Mexican)",At what age did you begin learning Spanish?,Are you proficient in any languages other than English/Spanish?,"Are you familiar with Caribbean (e.g., Caribbean, Puerto Rican) or Galician Spanish?",date,expName,psychopyVersion,OS,frameRate,id,study_id,session,trial_exposure.started,trial_exposure.stopped,key_resp_exposure.keys,key_resp_exposure.corr,key_resp_exposure.rt,key_resp_exposure.duration,key_resp.keys,exposure_loop.thisRepN,exposure_loop.thisTrialN,exposure_loop.thisN,exposure_loop.thisIndex,exposure_loop.ran,item_num,correct_response,question,path,duration,instructions_2afc.started,instructions_2afc.stopped,instructions_2afc_loop.thisRepN,instructions_2afc_loop.thisTrialN,instructions_2afc_loop.thisN,instructions_2afc_loop.thisIndex,instructions_2afc_loop.ran,practice_2afc.started,practice_2afc.stopped,key_resp_2afc_practice.keys,key_resp_2afc_practice.corr,key_resp_2afc_practice.rt,key_resp_2afc_practice.duration,trials_2afc_practice_loop.thisRepN,trials_2afc_practice_loop.thisTrialN,trials_2afc_practice_loop.thisN,trials_2afc_practice_loop.thisIndex,trials_2afc_practice_loop.ran,check_2afc.started,check_2afc.stopped,trial_2afc.started,trial_2afc.stopped,key_resp_2afc_trial.keys,key_resp_2afc_trial.corr,key_resp_2afc_trial.rt,key_resp_2afc_trial.duration,trials_2afc_loop.thisRepN,trials_2afc_loop.thisTrialN,trials_2afc_loop.thisN,trials_2afc_loop.thisIndex,trials_2afc_loop.ran,target,variety,instructions_lextale.started,instructions_lextale.stopped,instructions_lextale_loop.thisRepN,instructions_lextale_loop.thisTrialN,instructions_lextale_loop.thisN,instructions_lextale_loop.thisIndex,instructions_lextale_loop.ran,practice_lextale.started,practice_lextale.stopped,key_resp_lextale_practice.keys,key_resp_lextale_practice.corr,key_resp_lextale_practice.rt,key_resp_lextale_practice.duration,practice_feedback_lextale.started,practice_feedback_lextale.stopped,trials_lextale_practice_loop.thisRepN,trials_lextale_practice_loop.thisTrialN,trials_lextale_practice_loop.thisN,trials_lextale_practice_loop.thisIndex,trials_lextale_practice_loop.ran,stim,word,prac_button_real,prac_button_false,check_lextale.started,check_lextale.stopped,trial_lextale.started,trial_lextale.stopped,key_resp_lextale_trial.keys,key_resp_lextale_trial.corr,key_resp_lextale_trial.rt,key_resp_lextale_trial.duration,trials_lextale_loop.thisRepN,trials_lextale_loop.thisTrialN,trials_lextale_loop.thisN,trials_lextale_loop.thisIndex,trials_lextale_loop.ran,button_real,button_false,instructions_eq.started,instructions_eq.stopped,trial_eq.started,trial_eq.stopped,slider_eq_trial.response,trials_eq_loop.thisRepN,trials_eq_loop.thisTrialN,trials_eq_loop.thisN,trials_eq_loop.thisIndex,trials_eq_loop.ran,item,is_test_item,is_distractor,is_agree_score,is_disagree_score,end_exp.started,end_exp.stopped
0.0084,2.7836,0,0,0,0,1,"In the following task, you are going to hear a series of conversations.", (press the space bar to continue),6743f87f4c502222ee322464,Argentinian ,13 or older,"no, only English or Spanish",yes,2025-08-12_14h05.16.529,empathy_intonation_perc,2024.2.4,MacIntel,120.4819277,6743f87f4c502222ee322464,687ed1b7e638a4cbf2f02089,689b822d3749c77261060acd,,,,,,,,,,,,,,,,,,,,,,,,,,,,,,,,,,,,,,,,,,,,,,,,,,,,,,,,,,,,,,,,,,,,,,,,,,,,,,,,,,,,,,,,,,,,,,,,,,,,,,,,,,
2.7842,4.4416,0,1,1,1,1,It is okay if you don't not 100% understand them!, (press the space bar to continue),6743f87f4c502222ee322464,Argentinian ,13 or older,"no, only English or Spanish",yes,2025-08-12_14h05.16.529,empathy_intonation_perc,2024.2.4,MacIntel,120.4819277,6743f87f4c502222ee322464,687ed1b7e638a4cbf2f02089,689b822d3749c77261060acd,,,,,,,,,,,,,,,,,,,,,,,,,,,,,,,,,,,,,,,,,,,,,,,,,,,,,,,,,,,,,,,,,,,,,,,,,,,,,,,,,,,,,,,,,,,,,,,,,,,,,,,,,,
4.4426,6.8126,0,2,2,2,1,"After, you will read a sentence about the conversation and decide if it's true or false.", (press the space bar to continue),6743f87f4c502222ee322464,Argentinian ,13 or older,"no, only English or Spanish",yes,2025-08-12_14h05.16.529,empathy_intonation_perc,2024.2.4,MacIntel,120.4819277,6743f87f4c502222ee322464,687ed1b7e638a4cbf2f02089,689b822d3749c77261060acd,,,,,,,,,,,,,,,,,,,,,,,,,,,,,,,,,,,,,,,,,,,,,,,,,,,,,,,,,,,,,,,,,,,,,,,,,,,,,,,,,,,,,,,,,,,,,,,,,,,,,,,,,,
6.814,23.6748,0,3,3,3,1,"If it's true, press '1' (True) and if it's false press '0' (False).", (press the space bar to continue),6743f87f4c502222ee322464,Argentinian ,13 or older,"no, only English or Spanish",yes,2025-08-12_14h05.16.529,empathy_intonation_perc,2024.2.4,MacIntel,120.4819277,6743f87f4c502222ee322464,687ed1b7e638a4cbf2f02089,689b822d3749c77261060acd,,,,,,,,,,,,,,,,,,,,,,,,,,,,,,,,,,,,,,,,,,,,,,,,,,,,,,,,,,,,,,,,,,,,,,,,,,,,,,,,,,,,,,,,,,,,,,,,,,,,,,,,,,
,,,,,,,,,6743f87f4c502222ee322464,Argentinian ,13 or older,"no, only English or Spanish",yes,2025-08-12_14h05.16.529,empathy_intonation_perc,2024.2.4,MacIntel,120.4819277,6743f87f4c502222ee322464,687ed1b7e638a4cbf2f02089,689b822d3749c77261060acd,23.682,74.4148,1,1,3.6782,,,0,0,0,0,1,1,1,The son asked the mom if Aunt Marina is okay.,./stim/exposure_wavs/ga_stimuli_convo.wav,47,,,,,,,,,,,,,,,,,,,,,,,,,,,,,,,,,,,,,,,,,,,,,,,,,,,,,,,,,,,,,,,,,,,,,,,,,,,,,,,,,,,,,,,,,
,,,,,,,,,6743f87f4c502222ee322464,Argentinian ,13 or older,"no, only English or Spanish",yes,2025-08-12_14h05.16.529,empathy_intonation_perc,2024.2.4,MacIntel,120.4819277,6743f87f4c502222ee322464,687ed1b7e638a4cbf2f02089,689b822d3749c77261060acd,74.4167,114.024,0,1,3.5813,,,0,1,1,2,1,3,0,The mom already has rice.,./stim/exposure_wavs/pr_stimuli_convo.wav,36,,,,,,,,,,,,,,,,,,,,,,,,,,,,,,,,,,,,,,,,,,,,,,,,,,,,,,,,,,,,,,,,,,,,,,,,,,,,,,,,,,,,,,,,,
,,,,,,,,,6743f87f4c502222ee322464,Argentinian ,13 or older,"no, only English or Spanish",yes,2025-08-12_14h05.16.529,empathy_intonation_perc,2024.2.4,MacIntel,120.4819277,6743f87f4c502222ee322464,687ed1b7e638a4cbf2f02089,689b822d3749c77261060acd,114.0254,177.7378,1,1,3.6837,,,0,2,2,1,1,2,1,The mom asked the daughter if she already went to the supermarket.,./stim/exposure_wavs/dr_stimuli_convo.wav,60,,,,,,,,,,,,,,,,,,,,,,,,,,,,,,,,,,,,,,,,,,,,,,,,,,,,,,,,,,,,,,,,,,,,,,,,,,,,,,,,,,,,,,,,,
,,,,,,,"In the following task you are going to hear a series of utterances. 

  You will decide if the utterances sound like questions or not using your keyboard.", (press the spacebar to continue),6743f87f4c502222ee322464,Argentinian ,13 or older,"no, only English or Spanish",yes,2025-08-12_14h05.16.529,empathy_intonation_perc,2024.2.4,MacIntel,120.4819277,6743f87f4c502222ee322464,687ed1b7e638a4cbf2f02089,689b822d3749c77261060acd,,,,,,,,,,,,,,,,,,177.7431,182.8711,0,0,0,0,1,,,,,,,,,,,,,,,,,,,,,,,,,,,,,,,,,,,,,,,,,,,,,,,,,,,,,,,,,,,,,,,,,,,,,,,,,,,,,,,,,,
,,,,,,,"If you believe the utterance is a question, type '1' (for 'yes') and if you do not 
  believe it is a question type '0' (for 'no').

  Let's practice a bit...", (press the spacebar to continue),6743f87f4c502222ee322464,Argentinian ,13 or older,"no, only English or Spanish",yes,2025-08-12_14h05.16.529,empathy_intonation_perc,2024.2.4,MacIntel,120.4819277,6743f87f4c502222ee322464,687ed1b7e638a4cbf2f02089,689b822d3749c77261060acd,,,,,,,,,,,,,,,,,,182.8723,188.6371,0,1,1,1,1,,,,,,,,,,,,,,,,,,,,,,,,,,,,,,,,,,,,,,,,,,,,,,,,,,,,,,,,,,,,,,,,,,,,,,,,,,,,,,,,,,
,,,,,,,,,6743f87f4c502222ee322464,Argentinian ,13 or older,"no, only English or Spanish",yes,2025-08-12_14h05.16.529,empathy_intonation_perc,2024.2.4,MacIntel,120.4819277,6743f87f4c502222ee322464,687ed1b7e638a4cbf2f02089,689b822d3749c77261060acd,,,,,,,,,,,,,,0,,./stim/wavs/peruvian_statement_filler_El-nino-habla-con-su-madre.wav,,,,,,,,,188.6452,191.7867,0,1,2.6344,,0,0,0,6,1,,,,,,,,,,,,,,,,,,,,,,,,,,,,,,,,,,,,,,,,,,,,,,,,,,,,,,,,,,,,,,,,,,,,,,,
,,,,,,,,,6743f87f4c502222ee322464,Argentinian ,13 or older,"no, only English or Spanish",yes,2025-08-12_14h05.16.529,empathy_intonation_perc,2024.2.4,MacIntel,120.4819277,6743f87f4c502222ee322464,687ed1b7e638a4cbf2f02089,689b822d3749c77261060acd,,,,,,,,,,,,,,1,,./stim/wavs/argentine_question_filler_Mi-vecino-habla-mucho.wav,,,,,,,,,191.7872,193.7956,1,1,1.4963,,0,1,1,1,1,,,,,,,,,,,,,,,,,,,,,,,,,,,,,,,,,,,,,,,,,,,,,,,,,,,,,,,,,,,,,,,,,,,,,,,
,,,,,,,,,6743f87f4c502222ee322464,Argentinian ,13 or older,"no, only English or Spanish",yes,2025-08-12_14h05.16.529,empathy_intonation_perc,2024.2.4,MacIntel,120.4819277,6743f87f4c502222ee322464,687ed1b7e638a4cbf2f02089,689b822d3749c77261060acd,,,,,,,,,,,,,,0,,./stim/wavs/cuban_statement_filler_Cocinabas-por-la-noche.wav,,,,,,,,,193.7961,195.8848,0,1,1.5809,,0,2,2,4,1,,,,,,,,,,,,,,,,,,,,,,,,,,,,,,,,,,,,,,,,,,,,,,,,,,,,,,,,,,,,,,,,,,,,,,,
,,,,,,,,,6743f87f4c502222ee322464,Argentinian ,13 or older,"no, only English or Spanish",yes,2025-08-12_14h05.16.529,empathy_intonation_perc,2024.2.4,MacIntel,120.4819277,6743f87f4c502222ee322464,687ed1b7e638a4cbf2f02089,689b822d3749c77261060acd,,,,,,,,,,,,,,1,,./stim/wavs/mexican_question_filler_Felipe-no-tiene-contrasena.wav,,,,,,,,,195.8854,198.0072,1,1,1.6123,,0,3,3,3,1,,,,,,,,,,,,,,,,,,,,,,,,,,,,,,,,,,,,,,,,,,,,,,,,,,,,,,,,,,,,,,,,,,,,,,,
,,,,,,,,,6743f87f4c502222ee322464,Argentinian ,13 or older,"no, only English or Spanish",yes,2025-08-12_14h05.16.529,empathy_intonation_perc,2024.2.4,MacIntel,120.4819277,6743f87f4c502222ee322464,687ed1b7e638a4cbf2f02089,689b822d3749c77261060acd,,,,,,,,,,,,,,0,,./stim/wavs/andalusian_statement_filler_Alberto-nunca-se-afeita.wav,,,,,,,,,198.008,200.1204,0,1,1.6006,,0,4,4,5,1,,,,,,,,,,,,,,,,,,,,,,,,,,,,,,,,,,,,,,,,,,,,,,,,,,,,,,,,,,,,,,,,,,,,,,,
,,,,,,,,,6743f87f4c502222ee322464,Argentinian ,13 or older,"no, only English or Spanish",yes,2025-08-12_14h05.16.529,empathy_intonation_perc,2024.2.4,MacIntel,120.4819277,6743f87f4c502222ee322464,687ed1b7e638a4cbf2f02089,689b822d3749c77261060acd,,,,,,,,,,,,,,1,,./stim/wavs/castilian_question_filler_Mi-esposo-conoce-al-chico.wav,,,,,,,,,200.1209,202.5499,0,0,1.9182,,0,5,5,0,1,,,,,,,,,,,,,,,,,,,,,,,,,,,,,,,,,,,,,,,,,,,,,,,,,,,,,,,,,,,,,,,,,,,,,,,
,,,,,,,,,6743f87f4c502222ee322464,Argentinian ,13 or older,"no, only English or Spanish",yes,2025-08-12_14h05.16.529,empathy_intonation_perc,2024.2.4,MacIntel,120.4819277,6743f87f4c502222ee322464,687ed1b7e638a4cbf2f02089,689b822d3749c77261060acd,,,,,,,,,,,,,,0,,./stim/wavs/puertorican_statement_filler_La-nina-pinta-con-su-amiga.wav,,,,,,,,,202.5503,205.729,0,1,2.6665,,0,6,6,7,1,,,,,,,,,,,,,,,,,,,,,,,,,,,,,,,,,,,,,,,,,,,,,,,,,,,,,,,,,,,,,,,,,,,,,,,
,,,,,,,,,6743f87f4c502222ee322464,Argentinian ,13 or older,"no, only English or Spanish",yes,2025-08-12_14h05.16.529,empathy_intonation_perc,2024.2.4,MacIntel,120.4819277,6743f87f4c502222ee322464,687ed1b7e638a4cbf2f02089,689b822d3749c77261060acd,,,,,,,,,,,,,,1,,./stim/wavs/chilean_question_filler_Mi-padre-cantaba-bien.wav,,,,,,,,,205.7295,209.2455,1,1,3.0073,,0,7,7,2,1,,,,,,,,,,,,,,,,,,,,,,,,,,,,,,,,,,,,,,,,,,,,,,,,,,,,,,,,,,,,,,,,,,,,,,,
,,,,,,,,,6743f87f4c502222ee322464,Argentinian ,13 or older,"no, only English or Spanish",yes,2025-08-12_14h05.16.529,empathy_intonation_perc,2024.2.4,MacIntel,120.4819277,6743f87f4c502222ee322464,687ed1b7e638a4cbf2f02089,689b822d3749c77261060acd,,,,,,,,,,,,,,,,,,,,,,,,,,,,,,,,,,,,209.2459,212.1251,,,,,,,,,,,,,,,,,,,,,,,,,,,,,,,,,,,,,,,,,,,,,,,,,,,,,,,,,,,,,,,,,,,,,
,,,,,,,,,6743f87f4c502222ee322464,Argentinian ,13 or older,"no, only English or Spanish",yes,2025-08-12_14h05.16.529,empathy_intonation_perc,2024.2.4,MacIntel,120.4819277,6743f87f4c502222ee322464,687ed1b7e638a4cbf2f02089,689b822d3749c77261060acd,,,,,,,,,,,,,44,1,,./stim/wavs/puertorican_mismatch_interrogative-total-yn_Mi-madre-come-la-fruta.wav,,,,,,,,,,,,,,,,,,,,,,212.1414,214.2961,0,0,1.6413,,0,0,0,43,1,1,puertorican,,,,,,,,,,,,,,,,,,,,,,,,,,,,,,,,,,,,,,,,,,,,,,,,,,,,,,,,
,,,,,,,,,6743f87f4c502222ee322464,Argentinian ,13 or older,"no, only English or Spanish",yes,2025-08-12_14h05.16.529,empathy_intonation_perc,2024.2.4,MacIntel,120.4819277,6743f87f4c502222ee322464,687ed1b7e638a4cbf2f02089,689b822d3749c77261060acd,,,,,,,,,,,,,53,0,,./stim/wavs/cuban_match_declarative-broad-focus_Manuela-vende-el-carro.wav,,,,,,,,,,,,,,,,,,,,,,214.297,216.4079,0,1,1.5964,,0,1,1,52,1,0,cuban,,,,,,,,,,,,,,,,,,,,,,,,,,,,,,,,,,,,,,,,,,,,,,,,,,,,,,,,
,,,,,,,,,6743f87f4c502222ee322464,Argentinian ,13 or older,"no, only English or Spanish",yes,2025-08-12_14h05.16.529,empathy_intonation_perc,2024.2.4,MacIntel,120.4819277,6743f87f4c502222ee322464,687ed1b7e638a4cbf2f02089,689b822d3749c77261060acd,,,,,,,,,,,,,19,1,,./stim/wavs/puertorican_match_interrogative-total-yn_Ana-lleva-el-abrigo.wav,,,,,,,,,,,,,,,,,,,,,,216.4082,218.3476,1,1,1.4253,,0,2,2,18,1,1,puertorican,,,,,,,,,,,,,,,,,,,,,,,,,,,,,,,,,,,,,,,,,,,,,,,,,,,,,,,,
,,,,,,,,,6743f87f4c502222ee322464,Argentinian ,13 or older,"no, only English or Spanish",yes,2025-08-12_14h05.16.529,empathy_intonation_perc,2024.2.4,MacIntel,120.4819277,6743f87f4c502222ee322464,687ed1b7e638a4cbf2f02089,689b822d3749c77261060acd,,,,,,,,,,,,,48,0,,./stim/wavs/castilian_match_declarative-broad-focus_Maria-bebe-el-vino.wav,,,,,,,,,,,,,,,,,,,,,,218.348,220.4706,0,1,1.6092,,0,3,3,47,1,0,castilian,,,,,,,,,,,,,,,,,,,,,,,,,,,,,,,,,,,,,,,,,,,,,,,,,,,,,,,,
,,,,,,,,,6743f87f4c502222ee322464,Argentinian ,13 or older,"no, only English or Spanish",yes,2025-08-12_14h05.16.529,empathy_intonation_perc,2024.2.4,MacIntel,120.4819277,6743f87f4c502222ee322464,687ed1b7e638a4cbf2f02089,689b822d3749c77261060acd,,,,,,,,,,,,,26,1,,./stim/wavs/castilian_mismatch_interrogative-total-yn_La-nina-lava-el-plato.wav,,,,,,,,,,,,,,,,,,,,,,220.471,222.4905,1,1,1.5047,,0,4,4,25,1,0,castilian,,,,,,,,,,,,,,,,,,,,,,,,,,,,,,,,,,,,,,,,,,,,,,,,,,,,,,,,
,,,,,,,,,6743f87f4c502222ee322464,Argentinian ,13 or older,"no, only English or Spanish",yes,2025-08-12_14h05.16.529,empathy_intonation_perc,2024.2.4,MacIntel,120.4819277,6743f87f4c502222ee322464,687ed1b7e638a4cbf2f02089,689b822d3749c77261060acd,,,,,,,,,,,,,51,0,,./stim/wavs/cuban_match_declarative-broad-focus_Ana-lleva-el-abrigo.wav,,,,,,,,,,,,,,,,,,,,,,222.4909,224.6298,0,1,1.6265,,0,5,5,50,1,0,cuban,,,,,,,,,,,,,,,,,,,,,,,,,,,,,,,,,,,,,,,,,,,,,,,,,,,,,,,,
,,,,,,,,,6743f87f4c502222ee322464,Argentinian ,13 or older,"no, only English or Spanish",yes,2025-08-12_14h05.16.529,empathy_intonation_perc,2024.2.4,MacIntel,120.4819277,6743f87f4c502222ee322464,687ed1b7e638a4cbf2f02089,689b822d3749c77261060acd,,,,,,,,,,,,,58,0,,./stim/wavs/mexican_match_declarative-broad-focus_Daniel-iba-a-Bolivia.wav,,,,,,,,,,,,,,,,,,,,,,224.6304,226.8402,0,1,1.7027,,0,6,6,57,1,0,mexican,,,,,,,,,,,,,,,,,,,,,,,,,,,,,,,,,,,,,,,,,,,,,,,,,,,,,,,,
,,,,,,,,,6743f87f4c502222ee322464,Argentinian ,13 or older,"no, only English or Spanish",yes,2025-08-12_14h05.16.529,empathy_intonation_perc,2024.2.4,MacIntel,120.4819277,6743f87f4c502222ee322464,687ed1b7e638a4cbf2f02089,689b822d3749c77261060acd,,,,,,,,,,,,,63,0,,./stim/wavs/puertorican_match_declarative-broad-focus_Ana-lleva-el-abrigo.wav,,,,,,,,,,,,,,,,,,,,,,226.8405,228.6534,0,1,1.3043,,0,7,7,62,1,0,puertorican,,,,,,,,,,,,,,,,,,,,,,,,,,,,,,,,,,,,,,,,,,,,,,,,,,,,,,,,
,,,,,,,,,6743f87f4c502222ee322464,Argentinian ,13 or older,"no, only English or Spanish",yes,2025-08-12_14h05.16.529,empathy_intonation_perc,2024.2.4,MacIntel,120.4819277,6743f87f4c502222ee322464,687ed1b7e638a4cbf2f02089,689b822d3749c77261060acd,,,,,,,,,,,,,34,1,,./stim/wavs/cuban_mismatch_interrogative-total-yn_Mi-tia-odia-la-lluvia.wav,,,,,,,,,,,,,,,,,,,,,,228.6538,230.8556,1,1,1.6968,,0,8,8,33,1,1,cuban,,,,,,,,,,,,,,,,,,,,,,,,,,,,,,,,,,,,,,,,,,,,,,,,,,,,,,,,
,,,,,,,,,6743f87f4c502222ee322464,Argentinian ,13 or older,"no, only English or Spanish",yes,2025-08-12_14h05.16.529,empathy_intonation_perc,2024.2.4,MacIntel,120.4819277,6743f87f4c502222ee322464,687ed1b7e638a4cbf2f02089,689b822d3749c77261060acd,,,,,,,,,,,,,33,1,,./stim/wavs/cuban_mismatch_interrogative-total-yn_Mi-novio-viene-del-lago.wav,,,,,,,,,,,,,,,,,,,,,,230.8562,232.883,1,1,1.5213,,0,9,9,32,1,1,cuban,,,,,,,,,,,,,,,,,,,,,,,,,,,,,,,,,,,,,,,,,,,,,,,,,,,,,,,,
,,,,,,,,,6743f87f4c502222ee322464,Argentinian ,13 or older,"no, only English or Spanish",yes,2025-08-12_14h05.16.529,empathy_intonation_perc,2024.2.4,MacIntel,120.4819277,6743f87f4c502222ee322464,687ed1b7e638a4cbf2f02089,689b822d3749c77261060acd,,,,,,,,,,,,,10,1,,./stim/wavs/cuban_match_interrogative-total-yn_Maria-bebe-el-vino.wav,,,,,,,,,,,,,,,,,,,,,,232.8834,235.1001,0,0,1.7083,,0,10,10,9,1,1,cuban,,,,,,,,,,,,,,,,,,,,,,,,,,,,,,,,,,,,,,,,,,,,,,,,,,,,,,,,
,,,,,,,,,6743f87f4c502222ee322464,Argentinian ,13 or older,"no, only English or Spanish",yes,2025-08-12_14h05.16.529,empathy_intonation_perc,2024.2.4,MacIntel,120.4819277,6743f87f4c502222ee322464,687ed1b7e638a4cbf2f02089,689b822d3749c77261060acd,,,,,,,,,,,,,46,0,,./stim/wavs/castilian_match_declarative-broad-focus_Emilio-ama-la-marcha.wav,,,,,,,,,,,,,,,,,,,,,,235.1004,237.445,0,1,1.8338,,0,11,11,45,1,0,castilian,,,,,,,,,,,,,,,,,,,,,,,,,,,,,,,,,,,,,,,,,,,,,,,,,,,,,,,,
,,,,,,,,,6743f87f4c502222ee322464,Argentinian ,13 or older,"no, only English or Spanish",yes,2025-08-12_14h05.16.529,empathy_intonation_perc,2024.2.4,MacIntel,120.4819277,6743f87f4c502222ee322464,687ed1b7e638a4cbf2f02089,689b822d3749c77261060acd,,,,,,,,,,,,,27,1,,./stim/wavs/castilian_mismatch_interrogative-total-yn_Mi-madre-come-la-fruta.wav,,,,,,,,,,,,,,,,,,,,,,237.4456,239.5898,1,1,1.6374,,0,12,12,26,1,0,castilian,,,,,,,,,,,,,,,,,,,,,,,,,,,,,,,,,,,,,,,,,,,,,,,,,,,,,,,,
,,,,,,,,,6743f87f4c502222ee322464,Argentinian ,13 or older,"no, only English or Spanish",yes,2025-08-12_14h05.16.529,empathy_intonation_perc,2024.2.4,MacIntel,120.4819277,6743f87f4c502222ee322464,687ed1b7e638a4cbf2f02089,689b822d3749c77261060acd,,,,,,,,,,,,,15,1,,./stim/wavs/mexican_match_interrogative-total-yn_David-leia-el-libro.wav,,,,,,,,,,,,,,,,,,,,,,239.5902,241.6411,1,1,1.5413,,0,13,13,14,1,0,mexican,,,,,,,,,,,,,,,,,,,,,,,,,,,,,,,,,,,,,,,,,,,,,,,,,,,,,,,,
,,,,,,,,,6743f87f4c502222ee322464,Argentinian ,13 or older,"no, only English or Spanish",yes,2025-08-12_14h05.16.529,empathy_intonation_perc,2024.2.4,MacIntel,120.4819277,6743f87f4c502222ee322464,687ed1b7e638a4cbf2f02089,689b822d3749c77261060acd,,,,,,,,,,,,,77,0,,./stim/wavs/cuban_mismatch_declarative-broad-focus_Mi-novio-viene-del-lago.wav,,,,,,,,,,,,,,,,,,,,,,241.6416,244.3504,0,1,2.2002,,0,14,14,76,1,0,cuban,,,,,,,,,,,,,,,,,,,,,,,,,,,,,,,,,,,,,,,,,,,,,,,,,,,,,,,,
,,,,,,,,,6743f87f4c502222ee322464,Argentinian ,13 or older,"no, only English or Spanish",yes,2025-08-12_14h05.16.529,empathy_intonation_perc,2024.2.4,MacIntel,120.4819277,6743f87f4c502222ee322464,687ed1b7e638a4cbf2f02089,689b822d3749c77261060acd,,,,,,,,,,,,,3,1,,./stim/wavs/castilian_match_interrogative-total-yn_Manuela-vende-el-carro.wav,,,,,,,,,,,,,,,,,,,,,,244.3508,246.5123,1,1,1.6512,,0,15,15,2,1,0,castilian,,,,,,,,,,,,,,,,,,,,,,,,,,,,,,,,,,,,,,,,,,,,,,,,,,,,,,,,
,,,,,,,,,6743f87f4c502222ee322464,Argentinian ,13 or older,"no, only English or Spanish",yes,2025-08-12_14h05.16.529,empathy_intonation_perc,2024.2.4,MacIntel,120.4819277,6743f87f4c502222ee322464,687ed1b7e638a4cbf2f02089,689b822d3749c77261060acd,,,,,,,,,,,,,17,1,,./stim/wavs/mexican_match_interrogative-total-yn_Mariano-habla-del-tiempo.wav,,,,,,,,,,,,,,,,,,,,,,246.5128,248.5358,1,1,1.5148,,0,16,16,16,1,0,mexican,,,,,,,,,,,,,,,,,,,,,,,,,,,,,,,,,,,,,,,,,,,,,,,,,,,,,,,,
,,,,,,,,,6743f87f4c502222ee322464,Argentinian ,13 or older,"no, only English or Spanish",yes,2025-08-12_14h05.16.529,empathy_intonation_perc,2024.2.4,MacIntel,120.4819277,6743f87f4c502222ee322464,687ed1b7e638a4cbf2f02089,689b822d3749c77261060acd,,,,,,,,,,,,,70,0,,./stim/wavs/castilian_mismatch_declarative-broad-focus_La-maestra-vive-en-Paris.wav,,,,,,,,,,,,,,,,,,,,,,248.5362,250.8956,0,1,1.8519,,0,17,17,69,1,0,castilian,,,,,,,,,,,,,,,,,,,,,,,,,,,,,,,,,,,,,,,,,,,,,,,,,,,,,,,,
,,,,,,,,,6743f87f4c502222ee322464,Argentinian ,13 or older,"no, only English or Spanish",yes,2025-08-12_14h05.16.529,empathy_intonation_perc,2024.2.4,MacIntel,120.4819277,6743f87f4c502222ee322464,687ed1b7e638a4cbf2f02089,689b822d3749c77261060acd,,,,,,,,,,,,,29,1,,./stim/wavs/castilian_mismatch_interrogative-total-yn_Mi-tia-odia-la-lluvia.wav,,,,,,,,,,,,,,,,,,,,,,250.8961,252.969,1,1,1.5576,,0,18,18,28,1,0,castilian,,,,,,,,,,,,,,,,,,,,,,,,,,,,,,,,,,,,,,,,,,,,,,,,,,,,,,,,
,,,,,,,,,6743f87f4c502222ee322464,Argentinian ,13 or older,"no, only English or Spanish",yes,2025-08-12_14h05.16.529,empathy_intonation_perc,2024.2.4,MacIntel,120.4819277,6743f87f4c502222ee322464,687ed1b7e638a4cbf2f02089,689b822d3749c77261060acd,,,,,,,,,,,,,75,0,,./stim/wavs/cuban_mismatch_declarative-broad-focus_El-hombre-mira-la-luna.wav,,,,,,,,,,,,,,,,,,,,,,252.9696,254.9319,0,1,1.4469,,0,19,19,74,1,0,cuban,,,,,,,,,,,,,,,,,,,,,,,,,,,,,,,,,,,,,,,,,,,,,,,,,,,,,,,,
,,,,,,,,,6743f87f4c502222ee322464,Argentinian ,13 or older,"no, only English or Spanish",yes,2025-08-12_14h05.16.529,empathy_intonation_perc,2024.2.4,MacIntel,120.4819277,6743f87f4c502222ee322464,687ed1b7e638a4cbf2f02089,689b822d3749c77261060acd,,,,,,,,,,,,,76,0,,./stim/wavs/cuban_mismatch_declarative-broad-focus_La-nina-lava-el-plato.wav,,,,,,,,,,,,,,,,,,,,,,254.9327,256.8967,0,1,1.4547,,0,20,20,75,1,0,cuban,,,,,,,,,,,,,,,,,,,,,,,,,,,,,,,,,,,,,,,,,,,,,,,,,,,,,,,,
,,,,,,,,,6743f87f4c502222ee322464,Argentinian ,13 or older,"no, only English or Spanish",yes,2025-08-12_14h05.16.529,empathy_intonation_perc,2024.2.4,MacIntel,120.4819277,6743f87f4c502222ee322464,687ed1b7e638a4cbf2f02089,689b822d3749c77261060acd,,,,,,,,,,,,,23,1,,./stim/wavs/puertorican_match_interrogative-total-yn_Manuela-vende-el-carro.wav,,,,,,,,,,,,,,,,,,,,,,256.8977,258.9908,0,0,1.5786,,0,21,21,22,1,1,puertorican,,,,,,,,,,,,,,,,,,,,,,,,,,,,,,,,,,,,,,,,,,,,,,,,,,,,,,,,
,,,,,,,,,6743f87f4c502222ee322464,Argentinian ,13 or older,"no, only English or Spanish",yes,2025-08-12_14h05.16.529,empathy_intonation_perc,2024.2.4,MacIntel,120.4819277,6743f87f4c502222ee322464,687ed1b7e638a4cbf2f02089,689b822d3749c77261060acd,,,,,,,,,,,,,81,0,,./stim/wavs/mexican_mismatch_declarative-broad-focus_La-maestra-vive-en-Paris.wav,,,,,,,,,,,,,,,,,,,,,,258.9914,261.2699,0,1,1.771,,0,22,22,80,1,0,mexican,,,,,,,,,,,,,,,,,,,,,,,,,,,,,,,,,,,,,,,,,,,,,,,,,,,,,,,,
,,,,,,,,,6743f87f4c502222ee322464,Argentinian ,13 or older,"no, only English or Spanish",yes,2025-08-12_14h05.16.529,empathy_intonation_perc,2024.2.4,MacIntel,120.4819277,6743f87f4c502222ee322464,687ed1b7e638a4cbf2f02089,689b822d3749c77261060acd,,,,,,,,,,,,,82,0,,./stim/wavs/mexican_mismatch_declarative-broad-focus_Mi-novio-viene-del-lago.wav,,,,,,,,,,,,,,,,,,,,,,261.2703,263.2112,0,1,1.4309,,0,23,23,81,1,0,mexican,,,,,,,,,,,,,,,,,,,,,,,,,,,,,,,,,,,,,,,,,,,,,,,,,,,,,,,,
,,,,,,,,,6743f87f4c502222ee322464,Argentinian ,13 or older,"no, only English or Spanish",yes,2025-08-12_14h05.16.529,empathy_intonation_perc,2024.2.4,MacIntel,120.4819277,6743f87f4c502222ee322464,687ed1b7e638a4cbf2f02089,689b822d3749c77261060acd,,,,,,,,,,,,,41,1,,./stim/wavs/puertorican_mismatch_interrogative-total-yn_El-nino-oye-el-rio.wav,,,,,,,,,,,,,,,,,,,,,,263.2116,265.3842,0,0,1.6642,,0,24,24,40,1,1,puertorican,,,,,,,,,,,,,,,,,,,,,,,,,,,,,,,,,,,,,,,,,,,,,,,,,,,,,,,,
,,,,,,,,,6743f87f4c502222ee322464,Argentinian ,13 or older,"no, only English or Spanish",yes,2025-08-12_14h05.16.529,empathy_intonation_perc,2024.2.4,MacIntel,120.4819277,6743f87f4c502222ee322464,687ed1b7e638a4cbf2f02089,689b822d3749c77261060acd,,,,,,,,,,,,,87,0,,./stim/wavs/puertorican_mismatch_declarative-broad-focus_La-maestra-vive-en-Paris.wav,,,,,,,,,,,,,,,,,,,,,,265.3849,267.4655,0,1,1.5713,,0,25,25,86,1,0,puertorican,,,,,,,,,,,,,,,,,,,,,,,,,,,,,,,,,,,,,,,,,,,,,,,,,,,,,,,,
,,,,,,,,,6743f87f4c502222ee322464,Argentinian ,13 or older,"no, only English or Spanish",yes,2025-08-12_14h05.16.529,empathy_intonation_perc,2024.2.4,MacIntel,120.4819277,6743f87f4c502222ee322464,687ed1b7e638a4cbf2f02089,689b822d3749c77261060acd,,,,,,,,,,,,,66,0,,./stim/wavs/puertorican_match_declarative-broad-focus_Emilio-ama-la-marcha.wav,,,,,,,,,,,,,,,,,,,,,,267.4659,269.4845,0,1,1.5098,,0,26,26,65,1,0,puertorican,,,,,,,,,,,,,,,,,,,,,,,,,,,,,,,,,,,,,,,,,,,,,,,,,,,,,,,,
,,,,,,,,,6743f87f4c502222ee322464,Argentinian ,13 or older,"no, only English or Spanish",yes,2025-08-12_14h05.16.529,empathy_intonation_perc,2024.2.4,MacIntel,120.4819277,6743f87f4c502222ee322464,687ed1b7e638a4cbf2f02089,689b822d3749c77261060acd,,,,,,,,,,,,,40,1,,./stim/wavs/puertorican_mismatch_interrogative-total-yn_El-hombre-mira-la-luna.wav,,,,,,,,,,,,,,,,,,,,,,269.485,271.3829,1,1,1.3886,,0,27,27,39,1,1,puertorican,,,,,,,,,,,,,,,,,,,,,,,,,,,,,,,,,,,,,,,,,,,,,,,,,,,,,,,,
,,,,,,,,,6743f87f4c502222ee322464,Argentinian ,13 or older,"no, only English or Spanish",yes,2025-08-12_14h05.16.529,empathy_intonation_perc,2024.2.4,MacIntel,120.4819277,6743f87f4c502222ee322464,687ed1b7e638a4cbf2f02089,689b822d3749c77261060acd,,,,,,,,,,,,,88,0,,./stim/wavs/puertorican_mismatch_declarative-broad-focus_La-nina-lava-el-plato.wav,,,,,,,,,,,,,,,,,,,,,,271.3833,273.2219,0,1,1.329,,0,28,28,87,1,0,puertorican,,,,,,,,,,,,,,,,,,,,,,,,,,,,,,,,,,,,,,,,,,,,,,,,,,,,,,,,
,,,,,,,,,6743f87f4c502222ee322464,Argentinian ,13 or older,"no, only English or Spanish",yes,2025-08-12_14h05.16.529,empathy_intonation_perc,2024.2.4,MacIntel,120.4819277,6743f87f4c502222ee322464,687ed1b7e638a4cbf2f02089,689b822d3749c77261060acd,,,,,,,,,,,,,4,1,,./stim/wavs/castilian_match_interrogative-total-yn_Maria-bebe-el-vino.wav,,,,,,,,,,,,,,,,,,,,,,273.2223,275.0665,1,1,1.3342,,0,29,29,3,1,0,castilian,,,,,,,,,,,,,,,,,,,,,,,,,,,,,,,,,,,,,,,,,,,,,,,,,,,,,,,,
,,,,,,,,,6743f87f4c502222ee322464,Argentinian ,13 or older,"no, only English or Spanish",yes,2025-08-12_14h05.16.529,empathy_intonation_perc,2024.2.4,MacIntel,120.4819277,6743f87f4c502222ee322464,687ed1b7e638a4cbf2f02089,689b822d3749c77261060acd,,,,,,,,,,,,,12,1,,./stim/wavs/cuban_match_interrogative-total-yn_Marta-abre-el-regalo.wav,,,,,,,,,,,,,,,,,,,,,,275.0673,276.9329,0,0,1.3548,,0,30,30,11,1,1,cuban,,,,,,,,,,,,,,,,,,,,,,,,,,,,,,,,,,,,,,,,,,,,,,,,,,,,,,,,
,,,,,,,,,6743f87f4c502222ee322464,Argentinian ,13 or older,"no, only English or Spanish",yes,2025-08-12_14h05.16.529,empathy_intonation_perc,2024.2.4,MacIntel,120.4819277,6743f87f4c502222ee322464,687ed1b7e638a4cbf2f02089,689b822d3749c77261060acd,,,,,,,,,,,,,68,0,,./stim/wavs/puertorican_match_declarative-broad-focus_Maria-bebe-el-vino.wav,,,,,,,,,,,,,,,,,,,,,,276.9333,278.8914,0,1,1.447,,0,31,31,67,1,0,puertorican,,,,,,,,,,,,,,,,,,,,,,,,,,,,,,,,,,,,,,,,,,,,,,,,,,,,,,,,
,,,,,,,,,6743f87f4c502222ee322464,Argentinian ,13 or older,"no, only English or Spanish",yes,2025-08-12_14h05.16.529,empathy_intonation_perc,2024.2.4,MacIntel,120.4819277,6743f87f4c502222ee322464,687ed1b7e638a4cbf2f02089,689b822d3749c77261060acd,,,,,,,,,,,,,9,1,,./stim/wavs/cuban_match_interrogative-total-yn_Manuela-vende-el-carro.wav,,,,,,,,,,,,,,,,,,,,,,278.8918,280.9445,0,0,1.5413,,0,32,32,8,1,1,cuban,,,,,,,,,,,,,,,,,,,,,,,,,,,,,,,,,,,,,,,,,,,,,,,,,,,,,,,,
,,,,,,,,,6743f87f4c502222ee322464,Argentinian ,13 or older,"no, only English or Spanish",yes,2025-08-12_14h05.16.529,empathy_intonation_perc,2024.2.4,MacIntel,120.4819277,6743f87f4c502222ee322464,687ed1b7e638a4cbf2f02089,689b822d3749c77261060acd,,,,,,,,,,,,,37,1,,./stim/wavs/mexican_mismatch_interrogative-total-yn_La-maestra-vive-en-Paris.wav,,,,,,,,,,,,,,,,,,,,,,280.945,283.0066,1,1,1.5463,,0,33,33,36,1,0,mexican,,,,,,,,,,,,,,,,,,,,,,,,,,,,,,,,,,,,,,,,,,,,,,,,,,,,,,,,
,,,,,,,,,6743f87f4c502222ee322464,Argentinian ,13 or older,"no, only English or Spanish",yes,2025-08-12_14h05.16.529,empathy_intonation_perc,2024.2.4,MacIntel,120.4819277,6743f87f4c502222ee322464,687ed1b7e638a4cbf2f02089,689b822d3749c77261060acd,,,,,,,,,,,,,25,1,,./stim/wavs/castilian_mismatch_interrogative-total-yn_La-maestra-vive-en-Paris.wav,,,,,,,,,,,,,,,,,,,,,,283.007,285.3454,1,1,1.8261,,0,34,34,24,1,0,castilian,,,,,,,,,,,,,,,,,,,,,,,,,,,,,,,,,,,,,,,,,,,,,,,,,,,,,,,,
,,,,,,,,,6743f87f4c502222ee322464,Argentinian ,13 or older,"no, only English or Spanish",yes,2025-08-12_14h05.16.529,empathy_intonation_perc,2024.2.4,MacIntel,120.4819277,6743f87f4c502222ee322464,687ed1b7e638a4cbf2f02089,689b822d3749c77261060acd,,,,,,,,,,,,,57,0,,./stim/wavs/mexican_match_declarative-broad-focus_Ana-lleva-el-abrigo.wav,,,,,,,,,,,,,,,,,,,,,,285.3457,287.6036,0,1,1.7452,,0,35,35,56,1,0,mexican,,,,,,,,,,,,,,,,,,,,,,,,,,,,,,,,,,,,,,,,,,,,,,,,,,,,,,,,
,,,,,,,,,6743f87f4c502222ee322464,Argentinian ,13 or older,"no, only English or Spanish",yes,2025-08-12_14h05.16.529,empathy_intonation_perc,2024.2.4,MacIntel,120.4819277,6743f87f4c502222ee322464,687ed1b7e638a4cbf2f02089,689b822d3749c77261060acd,,,,,,,,,,,,,5,1,,./stim/wavs/castilian_match_interrogative-total-yn_Mariano-habla-del-tiempo.wav,,,,,,,,,,,,,,,,,,,,,,287.604,290.1323,1,1,2.018,,0,36,36,4,1,0,castilian,,,,,,,,,,,,,,,,,,,,,,,,,,,,,,,,,,,,,,,,,,,,,,,,,,,,,,,,
,,,,,,,,,6743f87f4c502222ee322464,Argentinian ,13 or older,"no, only English or Spanish",yes,2025-08-12_14h05.16.529,empathy_intonation_perc,2024.2.4,MacIntel,120.4819277,6743f87f4c502222ee322464,687ed1b7e638a4cbf2f02089,689b822d3749c77261060acd,,,,,,,,,,,,,20,1,,./stim/wavs/puertorican_match_interrogative-total-yn_Daniel-iba-a-Bolivia.wav,,,,,,,,,,,,,,,,,,,,,,290.1326,292.4795,0,0,1.8364,,0,37,37,19,1,1,puertorican,,,,,,,,,,,,,,,,,,,,,,,,,,,,,,,,,,,,,,,,,,,,,,,,,,,,,,,,
,,,,,,,,,6743f87f4c502222ee322464,Argentinian ,13 or older,"no, only English or Spanish",yes,2025-08-12_14h05.16.529,empathy_intonation_perc,2024.2.4,MacIntel,120.4819277,6743f87f4c502222ee322464,687ed1b7e638a4cbf2f02089,689b822d3749c77261060acd,,,,,,,,,,,,,45,0,,./stim/wavs/castilian_match_declarative-broad-focus_David-leia-el-libro.wav,,,,,,,,,,,,,,,,,,,,,,292.4803,294.9163,0,1,1.9243,,0,38,38,44,1,0,castilian,,,,,,,,,,,,,,,,,,,,,,,,,,,,,,,,,,,,,,,,,,,,,,,,,,,,,,,,
,,,,,,,,,6743f87f4c502222ee322464,Argentinian ,13 or older,"no, only English or Spanish",yes,2025-08-12_14h05.16.529,empathy_intonation_perc,2024.2.4,MacIntel,120.4819277,6743f87f4c502222ee322464,687ed1b7e638a4cbf2f02089,689b822d3749c77261060acd,,,,,,,,,,,,,50,0,,./stim/wavs/castilian_match_declarative-broad-focus_Marta-abre-el-regalo.wav,,,,,,,,,,,,,,,,,,,,,,294.9167,297.1277,0,1,1.7033,,0,39,39,49,1,0,castilian,,,,,,,,,,,,,,,,,,,,,,,,,,,,,,,,,,,,,,,,,,,,,,,,,,,,,,,,
,,,,,,,,,6743f87f4c502222ee322464,Argentinian ,13 or older,"no, only English or Spanish",yes,2025-08-12_14h05.16.529,empathy_intonation_perc,2024.2.4,MacIntel,120.4819277,6743f87f4c502222ee322464,687ed1b7e638a4cbf2f02089,689b822d3749c77261060acd,,,,,,,,,,,,,59,0,,./stim/wavs/mexican_match_declarative-broad-focus_David-leia-el-libro.wav,,,,,,,,,,,,,,,,,,,,,,297.1286,299.303,0,1,1.6685,,0,40,40,58,1,0,mexican,,,,,,,,,,,,,,,,,,,,,,,,,,,,,,,,,,,,,,,,,,,,,,,,,,,,,,,,
,,,,,,,,,6743f87f4c502222ee322464,Argentinian ,13 or older,"no, only English or Spanish",yes,2025-08-12_14h05.16.529,empathy_intonation_perc,2024.2.4,MacIntel,120.4819277,6743f87f4c502222ee322464,687ed1b7e638a4cbf2f02089,689b822d3749c77261060acd,,,,,,,,,,,,,31,1,,./stim/wavs/cuban_mismatch_interrogative-total-yn_El-nino-oye-el-rio.wav,,,,,,,,,,,,,,,,,,,,,,299.3034,301.2862,0,0,1.476,,0,41,41,30,1,1,cuban,,,,,,,,,,,,,,,,,,,,,,,,,,,,,,,,,,,,,,,,,,,,,,,,,,,,,,,,
,,,,,,,,,6743f87f4c502222ee322464,Argentinian ,13 or older,"no, only English or Spanish",yes,2025-08-12_14h05.16.529,empathy_intonation_perc,2024.2.4,MacIntel,120.4819277,6743f87f4c502222ee322464,687ed1b7e638a4cbf2f02089,689b822d3749c77261060acd,,,,,,,,,,,,,71,0,,./stim/wavs/castilian_mismatch_declarative-broad-focus_La-nina-lava-el-plato.wav,,,,,,,,,,,,,,,,,,,,,,301.2864,303.2538,1,0,1.4592,,0,42,42,70,1,0,castilian,,,,,,,,,,,,,,,,,,,,,,,,,,,,,,,,,,,,,,,,,,,,,,,,,,,,,,,,
,,,,,,,,,6743f87f4c502222ee322464,Argentinian ,13 or older,"no, only English or Spanish",yes,2025-08-12_14h05.16.529,empathy_intonation_perc,2024.2.4,MacIntel,120.4819277,6743f87f4c502222ee322464,687ed1b7e638a4cbf2f02089,689b822d3749c77261060acd,,,,,,,,,,,,,43,1,,./stim/wavs/puertorican_mismatch_interrogative-total-yn_La-nina-lava-el-plato.wav,,,,,,,,,,,,,,,,,,,,,,303.2541,305.2997,0,0,1.5329,,0,43,43,42,1,1,puertorican,,,,,,,,,,,,,,,,,,,,,,,,,,,,,,,,,,,,,,,,,,,,,,,,,,,,,,,,
,,,,,,,,,6743f87f4c502222ee322464,Argentinian ,13 or older,"no, only English or Spanish",yes,2025-08-12_14h05.16.529,empathy_intonation_perc,2024.2.4,MacIntel,120.4819277,6743f87f4c502222ee322464,687ed1b7e638a4cbf2f02089,689b822d3749c77261060acd,,,,,,,,,,,,,85,0,,./stim/wavs/puertorican_mismatch_declarative-broad-focus_El-hombre-mira-la-luna.wav,,,,,,,,,,,,,,,,,,,,,,305.3003,307.5774,0,1,1.7627,,0,44,44,84,1,0,puertorican,,,,,,,,,,,,,,,,,,,,,,,,,,,,,,,,,,,,,,,,,,,,,,,,,,,,,,,,
,,,,,,,,,6743f87f4c502222ee322464,Argentinian ,13 or older,"no, only English or Spanish",yes,2025-08-12_14h05.16.529,empathy_intonation_perc,2024.2.4,MacIntel,120.4819277,6743f87f4c502222ee322464,687ed1b7e638a4cbf2f02089,689b822d3749c77261060acd,,,,,,,,,,,,,39,1,,./stim/wavs/mexican_mismatch_interrogative-total-yn_Mi-tia-odia-la-lluvia.wav,,,,,,,,,,,,,,,,,,,,,,307.5778,309.5162,1,1,1.4306,,0,45,45,38,1,0,mexican,,,,,,,,,,,,,,,,,,,,,,,,,,,,,,,,,,,,,,,,,,,,,,,,,,,,,,,,
,,,,,,,,,6743f87f4c502222ee322464,Argentinian ,13 or older,"no, only English or Spanish",yes,2025-08-12_14h05.16.529,empathy_intonation_perc,2024.2.4,MacIntel,120.4819277,6743f87f4c502222ee322464,687ed1b7e638a4cbf2f02089,689b822d3749c77261060acd,,,,,,,,,,,,,61,0,,./stim/wavs/mexican_match_declarative-broad-focus_Mariano-habla-del-tiempo.wav,,,,,,,,,,,,,,,,,,,,,,309.5167,311.6368,0,1,1.612,,0,46,46,60,1,0,mexican,,,,,,,,,,,,,,,,,,,,,,,,,,,,,,,,,,,,,,,,,,,,,,,,,,,,,,,,
,,,,,,,,,6743f87f4c502222ee322464,Argentinian ,13 or older,"no, only English or Spanish",yes,2025-08-12_14h05.16.529,empathy_intonation_perc,2024.2.4,MacIntel,120.4819277,6743f87f4c502222ee322464,687ed1b7e638a4cbf2f02089,689b822d3749c77261060acd,,,,,,,,,,,,,30,1,,./stim/wavs/cuban_mismatch_interrogative-total-yn_El-hombre-mira-la-luna.wav,,,,,,,,,,,,,,,,,,,,,,311.6373,313.739,0,0,1.5916,,0,47,47,29,1,1,cuban,,,,,,,,,,,,,,,,,,,,,,,,,,,,,,,,,,,,,,,,,,,,,,,,,,,,,,,,
,,,,,,,,,6743f87f4c502222ee322464,Argentinian ,13 or older,"no, only English or Spanish",yes,2025-08-12_14h05.16.529,empathy_intonation_perc,2024.2.4,MacIntel,120.4819277,6743f87f4c502222ee322464,687ed1b7e638a4cbf2f02089,689b822d3749c77261060acd,,,,,,,,,,,,,49,0,,./stim/wavs/castilian_match_declarative-broad-focus_Mariano-habla-del-tiempo.wav,,,,,,,,,,,,,,,,,,,,,,313.7395,316.1656,0,1,1.9153,,0,48,48,48,1,0,castilian,,,,,,,,,,,,,,,,,,,,,,,,,,,,,,,,,,,,,,,,,,,,,,,,,,,,,,,,
,,,,,,,,,6743f87f4c502222ee322464,Argentinian ,13 or older,"no, only English or Spanish",yes,2025-08-12_14h05.16.529,empathy_intonation_perc,2024.2.4,MacIntel,120.4819277,6743f87f4c502222ee322464,687ed1b7e638a4cbf2f02089,689b822d3749c77261060acd,,,,,,,,,,,,,28,1,,./stim/wavs/castilian_mismatch_interrogative-total-yn_Mi-novio-viene-del-lago.wav,,,,,,,,,,,,,,,,,,,,,,316.1663,318.4662,1,1,1.7933,,0,49,49,27,1,0,castilian,,,,,,,,,,,,,,,,,,,,,,,,,,,,,,,,,,,,,,,,,,,,,,,,,,,,,,,,
,,,,,,,,,6743f87f4c502222ee322464,Argentinian ,13 or older,"no, only English or Spanish",yes,2025-08-12_14h05.16.529,empathy_intonation_perc,2024.2.4,MacIntel,120.4819277,6743f87f4c502222ee322464,687ed1b7e638a4cbf2f02089,689b822d3749c77261060acd,,,,,,,,,,,,,54,0,,./stim/wavs/cuban_match_declarative-broad-focus_Maria-bebe-el-vino.wav,,,,,,,,,,,,,,,,,,,,,,318.4666,320.478,0,1,1.5008,,0,50,50,53,1,0,cuban,,,,,,,,,,,,,,,,,,,,,,,,,,,,,,,,,,,,,,,,,,,,,,,,,,,,,,,,
,,,,,,,,,6743f87f4c502222ee322464,Argentinian ,13 or older,"no, only English or Spanish",yes,2025-08-12_14h05.16.529,empathy_intonation_perc,2024.2.4,MacIntel,120.4819277,6743f87f4c502222ee322464,687ed1b7e638a4cbf2f02089,689b822d3749c77261060acd,,,,,,,,,,,,,83,0,,./stim/wavs/mexican_mismatch_declarative-broad-focus_Mi-tia-odia-la-lluvia.wav,,,,,,,,,,,,,,,,,,,,,,320.4783,322.3821,0,1,1.3882,,0,51,51,82,1,0,mexican,,,,,,,,,,,,,,,,,,,,,,,,,,,,,,,,,,,,,,,,,,,,,,,,,,,,,,,,
,,,,,,,,,6743f87f4c502222ee322464,Argentinian ,13 or older,"no, only English or Spanish",yes,2025-08-12_14h05.16.529,empathy_intonation_perc,2024.2.4,MacIntel,120.4819277,6743f87f4c502222ee322464,687ed1b7e638a4cbf2f02089,689b822d3749c77261060acd,,,,,,,,,,,,,7,1,,./stim/wavs/cuban_match_interrogative-total-yn_Ana-lleva-el-abrigo.wav,,,,,,,,,,,,,,,,,,,,,,322.3824,324.1416,0,0,1.2467,,0,52,52,6,1,1,cuban,,,,,,,,,,,,,,,,,,,,,,,,,,,,,,,,,,,,,,,,,,,,,,,,,,,,,,,,
,,,,,,,,,6743f87f4c502222ee322464,Argentinian ,13 or older,"no, only English or Spanish",yes,2025-08-12_14h05.16.529,empathy_intonation_perc,2024.2.4,MacIntel,120.4819277,6743f87f4c502222ee322464,687ed1b7e638a4cbf2f02089,689b822d3749c77261060acd,,,,,,,,,,,,,21,1,,./stim/wavs/puertorican_match_interrogative-total-yn_David-leia-el-libro.wav,,,,,,,,,,,,,,,,,,,,,,324.1422,325.9826,0,0,1.3265,,0,53,53,20,1,1,puertorican,,,,,,,,,,,,,,,,,,,,,,,,,,,,,,,,,,,,,,,,,,,,,,,,,,,,,,,,
,,,,,,,,,6743f87f4c502222ee322464,Argentinian ,13 or older,"no, only English or Spanish",yes,2025-08-12_14h05.16.529,empathy_intonation_perc,2024.2.4,MacIntel,120.4819277,6743f87f4c502222ee322464,687ed1b7e638a4cbf2f02089,689b822d3749c77261060acd,,,,,,,,,,,,,65,0,,./stim/wavs/puertorican_match_declarative-broad-focus_David-leia-el-libro.wav,,,,,,,,,,,,,,,,,,,,,,325.9831,327.9531,0,1,1.458,,0,54,54,64,1,0,puertorican,,,,,,,,,,,,,,,,,,,,,,,,,,,,,,,,,,,,,,,,,,,,,,,,,,,,,,,,
,,,,,,,,,6743f87f4c502222ee322464,Argentinian ,13 or older,"no, only English or Spanish",yes,2025-08-12_14h05.16.529,empathy_intonation_perc,2024.2.4,MacIntel,120.4819277,6743f87f4c502222ee322464,687ed1b7e638a4cbf2f02089,689b822d3749c77261060acd,,,,,,,,,,,,,72,0,,./stim/wavs/castilian_mismatch_declarative-broad-focus_Mi-novio-viene-del-lago.wav,,,,,,,,,,,,,,,,,,,,,,327.9535,330.1914,0,1,1.7285,,0,55,55,71,1,0,castilian,,,,,,,,,,,,,,,,,,,,,,,,,,,,,,,,,,,,,,,,,,,,,,,,,,,,,,,,
,,,,,,,,,6743f87f4c502222ee322464,Argentinian ,13 or older,"no, only English or Spanish",yes,2025-08-12_14h05.16.529,empathy_intonation_perc,2024.2.4,MacIntel,120.4819277,6743f87f4c502222ee322464,687ed1b7e638a4cbf2f02089,689b822d3749c77261060acd,,,,,,,,,,,,,38,1,,./stim/wavs/mexican_mismatch_interrogative-total-yn_Mi-novio-viene-del-lago.wav,,,,,,,,,,,,,,,,,,,,,,330.1917,332.2235,0,0,1.5172,,0,56,56,37,1,0,mexican,,,,,,,,,,,,,,,,,,,,,,,,,,,,,,,,,,,,,,,,,,,,,,,,,,,,,,,,
,,,,,,,,,6743f87f4c502222ee322464,Argentinian ,13 or older,"no, only English or Spanish",yes,2025-08-12_14h05.16.529,empathy_intonation_perc,2024.2.4,MacIntel,120.4819277,6743f87f4c502222ee322464,687ed1b7e638a4cbf2f02089,689b822d3749c77261060acd,,,,,,,,,,,,,2,1,,./stim/wavs/castilian_match_interrogative-total-yn_Emilio-ama-la-marcha.wav,,,,,,,,,,,,,,,,,,,,,,332.2238,334.2623,1,1,1.5198,,0,57,57,1,1,0,castilian,,,,,,,,,,,,,,,,,,,,,,,,,,,,,,,,,,,,,,,,,,,,,,,,,,,,,,,,
,,,,,,,,,6743f87f4c502222ee322464,Argentinian ,13 or older,"no, only English or Spanish",yes,2025-08-12_14h05.16.529,empathy_intonation_perc,2024.2.4,MacIntel,120.4819277,6743f87f4c502222ee322464,687ed1b7e638a4cbf2f02089,689b822d3749c77261060acd,,,,,,,,,,,,,18,1,,./stim/wavs/mexican_match_interrogative-total-yn_Marta-abre-el-regalo.wav,,,,,,,,,,,,,,,,,,,,,,334.2626,336.1405,1,1,1.3633,,0,58,58,17,1,0,mexican,,,,,,,,,,,,,,,,,,,,,,,,,,,,,,,,,,,,,,,,,,,,,,,,,,,,,,,,
,,,,,,,,,6743f87f4c502222ee322464,Argentinian ,13 or older,"no, only English or Spanish",yes,2025-08-12_14h05.16.529,empathy_intonation_perc,2024.2.4,MacIntel,120.4819277,6743f87f4c502222ee322464,687ed1b7e638a4cbf2f02089,689b822d3749c77261060acd,,,,,,,,,,,,,55,0,,./stim/wavs/cuban_match_declarative-broad-focus_Mariano-habla-del-tiempo.wav,,,,,,,,,,,,,,,,,,,,,,336.1409,338.4651,0,1,1.8173,,0,59,59,54,1,0,cuban,,,,,,,,,,,,,,,,,,,,,,,,,,,,,,,,,,,,,,,,,,,,,,,,,,,,,,,,
,,,,,,,,,6743f87f4c502222ee322464,Argentinian ,13 or older,"no, only English or Spanish",yes,2025-08-12_14h05.16.529,empathy_intonation_perc,2024.2.4,MacIntel,120.4819277,6743f87f4c502222ee322464,687ed1b7e638a4cbf2f02089,689b822d3749c77261060acd,,,,,,,,,,,,,62,0,,./stim/wavs/mexican_match_declarative-broad-focus_Marta-abre-el-regalo.wav,,,,,,,,,,,,,,,,,,,,,,338.4655,340.8748,0,1,1.8961,,0,60,60,61,1,0,mexican,,,,,,,,,,,,,,,,,,,,,,,,,,,,,,,,,,,,,,,,,,,,,,,,,,,,,,,,
,,,,,,,,,6743f87f4c502222ee322464,Argentinian ,13 or older,"no, only English or Spanish",yes,2025-08-12_14h05.16.529,empathy_intonation_perc,2024.2.4,MacIntel,120.4819277,6743f87f4c502222ee322464,687ed1b7e638a4cbf2f02089,689b822d3749c77261060acd,,,,,,,,,,,,,78,0,,./stim/wavs/cuban_mismatch_declarative-broad-focus_Mi-tia-odia-la-lluvia.wav,,,,,,,,,,,,,,,,,,,,,,340.8754,343.1654,0,1,1.7807,,0,61,61,77,1,0,cuban,,,,,,,,,,,,,,,,,,,,,,,,,,,,,,,,,,,,,,,,,,,,,,,,,,,,,,,,
,,,,,,,,,6743f87f4c502222ee322464,Argentinian ,13 or older,"no, only English or Spanish",yes,2025-08-12_14h05.16.529,empathy_intonation_perc,2024.2.4,MacIntel,120.4819277,6743f87f4c502222ee322464,687ed1b7e638a4cbf2f02089,689b822d3749c77261060acd,,,,,,,,,,,,,73,0,,./stim/wavs/castilian_mismatch_declarative-broad-focus_Mi-tia-odia-la-lluvia.wav,,,,,,,,,,,,,,,,,,,,,,343.1661,345.3456,0,1,1.6679,,0,62,62,72,1,0,castilian,,,,,,,,,,,,,,,,,,,,,,,,,,,,,,,,,,,,,,,,,,,,,,,,,,,,,,,,
,,,,,,,,,6743f87f4c502222ee322464,Argentinian ,13 or older,"no, only English or Spanish",yes,2025-08-12_14h05.16.529,empathy_intonation_perc,2024.2.4,MacIntel,120.4819277,6743f87f4c502222ee322464,687ed1b7e638a4cbf2f02089,689b822d3749c77261060acd,,,,,,,,,,,,,32,1,,./stim/wavs/cuban_mismatch_interrogative-total-yn_Mi-madre-come-la-fruta.wav,,,,,,,,,,,,,,,,,,,,,,345.3461,347.3409,0,0,1.484,,0,63,63,31,1,1,cuban,,,,,,,,,,,,,,,,,,,,,,,,,,,,,,,,,,,,,,,,,,,,,,,,,,,,,,,,
,,,,,,,,,6743f87f4c502222ee322464,Argentinian ,13 or older,"no, only English or Spanish",yes,2025-08-12_14h05.16.529,empathy_intonation_perc,2024.2.4,MacIntel,120.4819277,6743f87f4c502222ee322464,687ed1b7e638a4cbf2f02089,689b822d3749c77261060acd,,,,,,,,,,,,,86,0,,./stim/wavs/puertorican_mismatch_declarative-broad-focus_El-nino-oye-el-rio.wav,,,,,,,,,,,,,,,,,,,,,,347.3414,349.2583,0,1,1.4085,,0,64,64,85,1,0,puertorican,,,,,,,,,,,,,,,,,,,,,,,,,,,,,,,,,,,,,,,,,,,,,,,,,,,,,,,,
,,,,,,,,,6743f87f4c502222ee322464,Argentinian ,13 or older,"no, only English or Spanish",yes,2025-08-12_14h05.16.529,empathy_intonation_perc,2024.2.4,MacIntel,120.4819277,6743f87f4c502222ee322464,687ed1b7e638a4cbf2f02089,689b822d3749c77261060acd,,,,,,,,,,,,,16,1,,./stim/wavs/mexican_match_interrogative-total-yn_Emilio-ama-la-marcha.wav,,,,,,,,,,,,,,,,,,,,,,349.2587,351.3291,1,1,1.5558,,0,65,65,15,1,0,mexican,,,,,,,,,,,,,,,,,,,,,,,,,,,,,,,,,,,,,,,,,,,,,,,,,,,,,,,,
,,,,,,,,,6743f87f4c502222ee322464,Argentinian ,13 or older,"no, only English or Spanish",yes,2025-08-12_14h05.16.529,empathy_intonation_perc,2024.2.4,MacIntel,120.4819277,6743f87f4c502222ee322464,687ed1b7e638a4cbf2f02089,689b822d3749c77261060acd,,,,,,,,,,,,,60,0,,./stim/wavs/mexican_match_declarative-broad-focus_Emilio-ama-la-marcha.wav,,,,,,,,,,,,,,,,,,,,,,351.3295,353.6119,1,0,1.769,,0,66,66,59,1,0,mexican,,,,,,,,,,,,,,,,,,,,,,,,,,,,,,,,,,,,,,,,,,,,,,,,,,,,,,,,
,,,,,,,,,6743f87f4c502222ee322464,Argentinian ,13 or older,"no, only English or Spanish",yes,2025-08-12_14h05.16.529,empathy_intonation_perc,2024.2.4,MacIntel,120.4819277,6743f87f4c502222ee322464,687ed1b7e638a4cbf2f02089,689b822d3749c77261060acd,,,,,,,,,,,,,80,0,,./stim/wavs/mexican_mismatch_declarative-broad-focus_El-hombre-mira-la-luna.wav,,,,,,,,,,,,,,,,,,,,,,353.6123,355.5789,0,1,1.4545,,0,67,67,79,1,0,mexican,,,,,,,,,,,,,,,,,,,,,,,,,,,,,,,,,,,,,,,,,,,,,,,,,,,,,,,,
,,,,,,,,,6743f87f4c502222ee322464,Argentinian ,13 or older,"no, only English or Spanish",yes,2025-08-12_14h05.16.529,empathy_intonation_perc,2024.2.4,MacIntel,120.4819277,6743f87f4c502222ee322464,687ed1b7e638a4cbf2f02089,689b822d3749c77261060acd,,,,,,,,,,,,,36,1,,./stim/wavs/mexican_mismatch_interrogative-total-yn_El-nino-oye-el-rio.wav,,,,,,,,,,,,,,,,,,,,,,355.5794,357.5829,1,1,1.493,,0,68,68,35,1,0,mexican,,,,,,,,,,,,,,,,,,,,,,,,,,,,,,,,,,,,,,,,,,,,,,,,,,,,,,,,
,,,,,,,,,6743f87f4c502222ee322464,Argentinian ,13 or older,"no, only English or Spanish",yes,2025-08-12_14h05.16.529,empathy_intonation_perc,2024.2.4,MacIntel,120.4819277,6743f87f4c502222ee322464,687ed1b7e638a4cbf2f02089,689b822d3749c77261060acd,,,,,,,,,,,,,24,1,,./stim/wavs/puertorican_match_interrogative-total-yn_Maria-bebe-el-vino.wav,,,,,,,,,,,,,,,,,,,,,,357.5833,359.4838,1,1,1.3929,,0,69,69,23,1,1,puertorican,,,,,,,,,,,,,,,,,,,,,,,,,,,,,,,,,,,,,,,,,,,,,,,,,,,,,,,,
,,,,,,,,,6743f87f4c502222ee322464,Argentinian ,13 or older,"no, only English or Spanish",yes,2025-08-12_14h05.16.529,empathy_intonation_perc,2024.2.4,MacIntel,120.4819277,6743f87f4c502222ee322464,687ed1b7e638a4cbf2f02089,689b822d3749c77261060acd,,,,,,,,,,,,,1,1,,./stim/wavs/castilian_match_interrogative-total-yn_David-leia-el-libro.wav,,,,,,,,,,,,,,,,,,,,,,359.4844,361.9028,1,1,1.9036,,0,70,70,0,1,0,castilian,,,,,,,,,,,,,,,,,,,,,,,,,,,,,,,,,,,,,,,,,,,,,,,,,,,,,,,,
,,,,,,,,,6743f87f4c502222ee322464,Argentinian ,13 or older,"no, only English or Spanish",yes,2025-08-12_14h05.16.529,empathy_intonation_perc,2024.2.4,MacIntel,120.4819277,6743f87f4c502222ee322464,687ed1b7e638a4cbf2f02089,689b822d3749c77261060acd,,,,,,,,,,,,,64,0,,./stim/wavs/puertorican_match_declarative-broad-focus_Daniel-iba-a-Bolivia.wav,,,,,,,,,,,,,,,,,,,,,,361.9036,364.03,0,1,1.6181,,0,71,71,63,1,0,puertorican,,,,,,,,,,,,,,,,,,,,,,,,,,,,,,,,,,,,,,,,,,,,,,,,,,,,,,,,
,,,,,,,,,6743f87f4c502222ee322464,Argentinian ,13 or older,"no, only English or Spanish",yes,2025-08-12_14h05.16.529,empathy_intonation_perc,2024.2.4,MacIntel,120.4819277,6743f87f4c502222ee322464,687ed1b7e638a4cbf2f02089,689b822d3749c77261060acd,,,,,,,,,,,,,11,1,,./stim/wavs/cuban_match_interrogative-total-yn_Mariano-habla-del-tiempo.wav,,,,,,,,,,,,,,,,,,,,,,364.0308,366.249,0,0,1.7055,,0,72,72,10,1,1,cuban,,,,,,,,,,,,,,,,,,,,,,,,,,,,,,,,,,,,,,,,,,,,,,,,,,,,,,,,
,,,,,,,,,6743f87f4c502222ee322464,Argentinian ,13 or older,"no, only English or Spanish",yes,2025-08-12_14h05.16.529,empathy_intonation_perc,2024.2.4,MacIntel,120.4819277,6743f87f4c502222ee322464,687ed1b7e638a4cbf2f02089,689b822d3749c77261060acd,,,,,,,,,,,,,84,0,,./stim/wavs/puertorican_mismatch_declarative-broad-focus_El-bebe-comia-muy-bien.wav,,,,,,,,,,,,,,,,,,,,,,366.2497,368.5704,1,0,1.8075,,0,73,73,83,1,0,puertorican,,,,,,,,,,,,,,,,,,,,,,,,,,,,,,,,,,,,,,,,,,,,,,,,,,,,,,,,
,,,,,,,,,6743f87f4c502222ee322464,Argentinian ,13 or older,"no, only English or Spanish",yes,2025-08-12_14h05.16.529,empathy_intonation_perc,2024.2.4,MacIntel,120.4819277,6743f87f4c502222ee322464,687ed1b7e638a4cbf2f02089,689b822d3749c77261060acd,,,,,,,,,,,,,6,1,,./stim/wavs/castilian_match_interrogative-total-yn_Marta-abre-el-regalo.wav,,,,,,,,,,,,,,,,,,,,,,368.5708,370.7113,0,0,1.6327,,0,74,74,5,1,0,castilian,,,,,,,,,,,,,,,,,,,,,,,,,,,,,,,,,,,,,,,,,,,,,,,,,,,,,,,,
,,,,,,,,,6743f87f4c502222ee322464,Argentinian ,13 or older,"no, only English or Spanish",yes,2025-08-12_14h05.16.529,empathy_intonation_perc,2024.2.4,MacIntel,120.4819277,6743f87f4c502222ee322464,687ed1b7e638a4cbf2f02089,689b822d3749c77261060acd,,,,,,,,,,,,,79,0,,./stim/wavs/mexican_mismatch_declarative-broad-focus_El-bebe-comia-muy-bien.wav,,,,,,,,,,,,,,,,,,,,,,370.7116,373.0538,0,1,1.8304,,0,75,75,78,1,0,mexican,,,,,,,,,,,,,,,,,,,,,,,,,,,,,,,,,,,,,,,,,,,,,,,,,,,,,,,,
,,,,,,,,,6743f87f4c502222ee322464,Argentinian ,13 or older,"no, only English or Spanish",yes,2025-08-12_14h05.16.529,empathy_intonation_perc,2024.2.4,MacIntel,120.4819277,6743f87f4c502222ee322464,687ed1b7e638a4cbf2f02089,689b822d3749c77261060acd,,,,,,,,,,,,,8,1,,./stim/wavs/cuban_match_interrogative-total-yn_Daniel-iba-a-Bolivia.wav,,,,,,,,,,,,,,,,,,,,,,373.0545,375.2706,1,1,1.6994,,0,76,76,7,1,1,cuban,,,,,,,,,,,,,,,,,,,,,,,,,,,,,,,,,,,,,,,,,,,,,,,,,,,,,,,,
,,,,,,,,,6743f87f4c502222ee322464,Argentinian ,13 or older,"no, only English or Spanish",yes,2025-08-12_14h05.16.529,empathy_intonation_perc,2024.2.4,MacIntel,120.4819277,6743f87f4c502222ee322464,687ed1b7e638a4cbf2f02089,689b822d3749c77261060acd,,,,,,,,,,,,,35,1,,./stim/wavs/mexican_mismatch_interrogative-total-yn_El-hombre-mira-la-luna.wav,,,,,,,,,,,,,,,,,,,,,,375.2711,377.6033,1,1,1.8218,,0,77,77,34,1,0,mexican,,,,,,,,,,,,,,,,,,,,,,,,,,,,,,,,,,,,,,,,,,,,,,,,,,,,,,,,
,,,,,,,,,6743f87f4c502222ee322464,Argentinian ,13 or older,"no, only English or Spanish",yes,2025-08-12_14h05.16.529,empathy_intonation_perc,2024.2.4,MacIntel,120.4819277,6743f87f4c502222ee322464,687ed1b7e638a4cbf2f02089,689b822d3749c77261060acd,,,,,,,,,,,,,42,1,,./stim/wavs/puertorican_mismatch_interrogative-total-yn_La-maestra-vive-en-Paris.wav,,,,,,,,,,,,,,,,,,,,,,377.6036,379.9446,1,1,1.8258,,0,78,78,41,1,1,puertorican,,,,,,,,,,,,,,,,,,,,,,,,,,,,,,,,,,,,,,,,,,,,,,,,,,,,,,,,
,,,,,,,,,6743f87f4c502222ee322464,Argentinian ,13 or older,"no, only English or Spanish",yes,2025-08-12_14h05.16.529,empathy_intonation_perc,2024.2.4,MacIntel,120.4819277,6743f87f4c502222ee322464,687ed1b7e638a4cbf2f02089,689b822d3749c77261060acd,,,,,,,,,,,,,14,1,,./stim/wavs/mexican_match_interrogative-total-yn_Daniel-iba-a-Bolivia.wav,,,,,,,,,,,,,,,,,,,,,,379.9449,382.1666,1,1,1.7055,,0,79,79,13,1,0,mexican,,,,,,,,,,,,,,,,,,,,,,,,,,,,,,,,,,,,,,,,,,,,,,,,,,,,,,,,
,,,,,,,,,6743f87f4c502222ee322464,Argentinian ,13 or older,"no, only English or Spanish",yes,2025-08-12_14h05.16.529,empathy_intonation_perc,2024.2.4,MacIntel,120.4819277,6743f87f4c502222ee322464,687ed1b7e638a4cbf2f02089,689b822d3749c77261060acd,,,,,,,,,,,,,22,1,,./stim/wavs/puertorican_match_interrogative-total-yn_Emilio-ama-la-marcha.wav,,,,,,,,,,,,,,,,,,,,,,382.1671,384.0912,0,0,1.4087,,0,80,80,21,1,1,puertorican,,,,,,,,,,,,,,,,,,,,,,,,,,,,,,,,,,,,,,,,,,,,,,,,,,,,,,,,
,,,,,,,,,6743f87f4c502222ee322464,Argentinian ,13 or older,"no, only English or Spanish",yes,2025-08-12_14h05.16.529,empathy_intonation_perc,2024.2.4,MacIntel,120.4819277,6743f87f4c502222ee322464,687ed1b7e638a4cbf2f02089,689b822d3749c77261060acd,,,,,,,,,,,,,69,0,,./stim/wavs/castilian_mismatch_declarative-broad-focus_El-nino-oye-el-rio.wav,,,,,,,,,,,,,,,,,,,,,,384.0918,386.4385,0,1,1.8355,,0,81,81,68,1,0,castilian,,,,,,,,,,,,,,,,,,,,,,,,,,,,,,,,,,,,,,,,,,,,,,,,,,,,,,,,
,,,,,,,,,6743f87f4c502222ee322464,Argentinian ,13 or older,"no, only English or Spanish",yes,2025-08-12_14h05.16.529,empathy_intonation_perc,2024.2.4,MacIntel,120.4819277,6743f87f4c502222ee322464,687ed1b7e638a4cbf2f02089,689b822d3749c77261060acd,,,,,,,,,,,,,47,0,,./stim/wavs/castilian_match_declarative-broad-focus_Manuela-vende-el-carro.wav,,,,,,,,,,,,,,,,,,,,,,386.4389,388.541,0,1,1.5902,,0,82,82,46,1,0,castilian,,,,,,,,,,,,,,,,,,,,,,,,,,,,,,,,,,,,,,,,,,,,,,,,,,,,,,,,
,,,,,,,,,6743f87f4c502222ee322464,Argentinian ,13 or older,"no, only English or Spanish",yes,2025-08-12_14h05.16.529,empathy_intonation_perc,2024.2.4,MacIntel,120.4819277,6743f87f4c502222ee322464,687ed1b7e638a4cbf2f02089,689b822d3749c77261060acd,,,,,,,,,,,,,67,0,,./stim/wavs/puertorican_match_declarative-broad-focus_Manuela-vende-el-carro.wav,,,,,,,,,,,,,,,,,,,,,,388.5414,390.2822,0,1,1.2336,,0,83,83,66,1,0,puertorican,,,,,,,,,,,,,,,,,,,,,,,,,,,,,,,,,,,,,,,,,,,,,,,,,,,,,,,,
,,,,,,,,,6743f87f4c502222ee322464,Argentinian ,13 or older,"no, only English or Spanish",yes,2025-08-12_14h05.16.529,empathy_intonation_perc,2024.2.4,MacIntel,120.4819277,6743f87f4c502222ee322464,687ed1b7e638a4cbf2f02089,689b822d3749c77261060acd,,,,,,,,,,,,,13,1,,./stim/wavs/mexican_match_interrogative-total-yn_Ana-lleva-el-abrigo.wav,,,,,,,,,,,,,,,,,,,,,,390.2826,392.4458,0,0,1.6521,,0,84,84,12,1,0,mexican,,,,,,,,,,,,,,,,,,,,,,,,,,,,,,,,,,,,,,,,,,,,,,,,,,,,,,,,
,,,,,,,,,6743f87f4c502222ee322464,Argentinian ,13 or older,"no, only English or Spanish",yes,2025-08-12_14h05.16.529,empathy_intonation_perc,2024.2.4,MacIntel,120.4819277,6743f87f4c502222ee322464,687ed1b7e638a4cbf2f02089,689b822d3749c77261060acd,,,,,,,,,,,,,56,0,,./stim/wavs/cuban_match_declarative-broad-focus_Marta-abre-el-regalo.wav,,,,,,,,,,,,,,,,,,,,,,392.4466,394.6289,0,1,1.6707,,0,85,85,55,1,0,cuban,,,,,,,,,,,,,,,,,,,,,,,,,,,,,,,,,,,,,,,,,,,,,,,,,,,,,,,,
,,,,,,,,,6743f87f4c502222ee322464,Argentinian ,13 or older,"no, only English or Spanish",yes,2025-08-12_14h05.16.529,empathy_intonation_perc,2024.2.4,MacIntel,120.4819277,6743f87f4c502222ee322464,687ed1b7e638a4cbf2f02089,689b822d3749c77261060acd,,,,,,,,,,,,,52,0,,./stim/wavs/cuban_match_declarative-broad-focus_Daniel-iba-a-Bolivia.wav,,,,,,,,,,,,,,,,,,,,,,394.6292,397.2078,0,1,2.0625,,0,86,86,51,1,0,cuban,,,,,,,,,,,,,,,,,,,,,,,,,,,,,,,,,,,,,,,,,,,,,,,,,,,,,,,,
,,,,,,,,,6743f87f4c502222ee322464,Argentinian ,13 or older,"no, only English or Spanish",yes,2025-08-12_14h05.16.529,empathy_intonation_perc,2024.2.4,MacIntel,120.4819277,6743f87f4c502222ee322464,687ed1b7e638a4cbf2f02089,689b822d3749c77261060acd,,,,,,,,,,,,,74,0,,./stim/wavs/cuban_mismatch_declarative-broad-focus_El-bebe-comia-muy-bien.wav,,,,,,,,,,,,,,,,,,,,,,397.2084,399.5582,0,1,1.8328,,0,87,87,73,1,0,cuban,,,,,,,,,,,,,,,,,,,,,,,,,,,,,,,,,,,,,,,,,,,,,,,,,,,,,,,,
,,,,,,,"Great! Now we will move on. The next task consists of about 60 trials, in each of which you will see a string of letters. 
  
  Your task is to decide whether this is a real Spanish word or not.", (press the spacebar to continue),6743f87f4c502222ee322464,Argentinian ,13 or older,"no, only English or Spanish",yes,2025-08-12_14h05.16.529,empathy_intonation_perc,2024.2.4,MacIntel,120.4819277,6743f87f4c502222ee322464,687ed1b7e638a4cbf2f02089,689b822d3749c77261060acd,,,,,,,,,,,,,,,,,,,,,,,,,,,,,,,,,,,,,,,,,,,,,,,,,,,399.5655,407.8922,0,0,0,0,1,,,,,,,,,,,,,,,,,,,,,,,,,,,,,,,,,,,,,,,,,,,,,,,,,
,,,,,,,"If you think it is an existing Spanish word, you type '1' (for 'REAL'), and if you think it is not an existing Spanish word, you type '0' (for 'FAKE').", (press the spacebar to continue),6743f87f4c502222ee322464,Argentinian ,13 or older,"no, only English or Spanish",yes,2025-08-12_14h05.16.529,empathy_intonation_perc,2024.2.4,MacIntel,120.4819277,6743f87f4c502222ee322464,687ed1b7e638a4cbf2f02089,689b822d3749c77261060acd,,,,,,,,,,,,,,,,,,,,,,,,,,,,,,,,,,,,,,,,,,,,,,,,,,,407.8934,411.0955,0,1,1,1,1,,,,,,,,,,,,,,,,,,,,,,,,,,,,,,,,,,,,,,,,,,,,,,,,,
,,,,,,,"If you are sure that the word exists, even though you don’t know its exact meaning, you may still respond '1' (REAL). 
  
  But if you are not sure if it is an existing word, you should respond '0' (FAKE).
  
  Let's do a practice round...", (press the spacebar to continue),6743f87f4c502222ee322464,Argentinian ,13 or older,"no, only English or Spanish",yes,2025-08-12_14h05.16.529,empathy_intonation_perc,2024.2.4,MacIntel,120.4819277,6743f87f4c502222ee322464,687ed1b7e638a4cbf2f02089,689b822d3749c77261060acd,,,,,,,,,,,,,,,,,,,,,,,,,,,,,,,,,,,,,,,,,,,,,,,,,,,411.0969,413.058,0,2,2,2,1,,,,,,,,,,,,,,,,,,,,,,,,,,,,,,,,,,,,,,,,,,,,,,,,,
,,,,,,,,,6743f87f4c502222ee322464,Argentinian ,13 or older,"no, only English or Spanish",yes,2025-08-12_14h05.16.529,empathy_intonation_perc,2024.2.4,MacIntel,120.4819277,6743f87f4c502222ee322464,687ed1b7e638a4cbf2f02089,689b822d3749c77261060acd,,,,,,,,,,,,,,0,,,,,,,,,,,,,,,,,,,,,,,,,,,,,,,,,,,,,,,,,,,,413.0619,415.8118,0,1,2.2291,,415.8119,416.8125,0,0,0,0,1,0,depiste,REAL,FAKE,,,,,,,,,,,,,,,,,,,,,,,,,,,,,,,,
,,,,,,,,,6743f87f4c502222ee322464,Argentinian ,13 or older,"no, only English or Spanish",yes,2025-08-12_14h05.16.529,empathy_intonation_perc,2024.2.4,MacIntel,120.4819277,6743f87f4c502222ee322464,687ed1b7e638a4cbf2f02089,689b822d3749c77261060acd,,,,,,,,,,,,,,1,,,,,,,,,,,,,,,,,,,,,,,,,,,,,,,,,,,,,,,,,,,,416.8139,418.2538,1,1,0.9156,,418.2538,419.2535,0,1,1,1,1,0,sí,REAL,FAKE,,,,,,,,,,,,,,,,,,,,,,,,,,,,,,,,
,,,,,,,,,6743f87f4c502222ee322464,Argentinian ,13 or older,"no, only English or Spanish",yes,2025-08-12_14h05.16.529,empathy_intonation_perc,2024.2.4,MacIntel,120.4819277,6743f87f4c502222ee322464,687ed1b7e638a4cbf2f02089,689b822d3749c77261060acd,,,,,,,,,,,,,,0,,,,,,,,,,,,,,,,,,,,,,,,,,,,,,,,,,,,,,,,,,,,419.2552,420.5831,1,0,0.7993,,420.5837,421.5854,0,2,2,2,1,0,coné,REAL,FAKE,,,,,,,,,,,,,,,,,,,,,,,,,,,,,,,,
,,,,,,,,,6743f87f4c502222ee322464,Argentinian ,13 or older,"no, only English or Spanish",yes,2025-08-12_14h05.16.529,empathy_intonation_perc,2024.2.4,MacIntel,120.4819277,6743f87f4c502222ee322464,687ed1b7e638a4cbf2f02089,689b822d3749c77261060acd,,,,,,,,,,,,,,0,,,,,,,,,,,,,,,,,,,,,,,,,,,,,,,,,,,,,,,,,,,,421.5869,422.8351,1,0,0.7178,,422.8352,423.8362,0,3,3,3,1,0,calpar,REAL,FAKE,,,,,,,,,,,,,,,,,,,,,,,,,,,,,,,,
,,,,,,,,,6743f87f4c502222ee322464,Argentinian ,13 or older,"no, only English or Spanish",yes,2025-08-12_14h05.16.529,empathy_intonation_perc,2024.2.4,MacIntel,120.4819277,6743f87f4c502222ee322464,687ed1b7e638a4cbf2f02089,689b822d3749c77261060acd,,,,,,,,,,,,,,0,,,,,,,,,,,,,,,,,,,,,,,,,,,,,,,,,,,,,,,,,,,,423.8376,425.3274,1,0,0.9672,,425.3275,426.323,0,4,4,4,1,0,joten,REAL,FAKE,,,,,,,,,,,,,,,,,,,,,,,,,,,,,,,,
,,,,,,,,,6743f87f4c502222ee322464,Argentinian ,13 or older,"no, only English or Spanish",yes,2025-08-12_14h05.16.529,empathy_intonation_perc,2024.2.4,MacIntel,120.4819277,6743f87f4c502222ee322464,687ed1b7e638a4cbf2f02089,689b822d3749c77261060acd,,,,,,,,,,,,,,1,,,,,,,,,,,,,,,,,,,,,,,,,,,,,,,,,,,,,,,,,,,,426.3243,428.3457,1,1,1.5023,,428.3465,429.3416,0,5,5,5,1,0,sacapuntas,REAL,FAKE,,,,,,,,,,,,,,,,,,,,,,,,,,,,,,,,
,,,,,,,,,6743f87f4c502222ee322464,Argentinian ,13 or older,"no, only English or Spanish",yes,2025-08-12_14h05.16.529,empathy_intonation_perc,2024.2.4,MacIntel,120.4819277,6743f87f4c502222ee322464,687ed1b7e638a4cbf2f02089,689b822d3749c77261060acd,,,,,,,,,,,,,,0,,,,,,,,,,,,,,,,,,,,,,,,,,,,,,,,,,,,,,,,,,,,429.3425,431.0623,0,1,1.1956,,431.0625,432.063,0,6,6,6,1,0,priba,REAL,FAKE,,,,,,,,,,,,,,,,,,,,,,,,,,,,,,,,
,,,,,,,,,6743f87f4c502222ee322464,Argentinian ,13 or older,"no, only English or Spanish",yes,2025-08-12_14h05.16.529,empathy_intonation_perc,2024.2.4,MacIntel,120.4819277,6743f87f4c502222ee322464,687ed1b7e638a4cbf2f02089,689b822d3749c77261060acd,,,,,,,,,,,,,,0,,,,,,,,,,,,,,,,,,,,,,,,,,,,,,,,,,,,,,,,,,,,432.064,433.7069,1,0,1.1248,,433.7076,434.7083,0,7,7,7,1,0,pelasula,REAL,FAKE,,,,,,,,,,,,,,,,,,,,,,,,,,,,,,,,
,,,,,,,,,6743f87f4c502222ee322464,Argentinian ,13 or older,"no, only English or Spanish",yes,2025-08-12_14h05.16.529,empathy_intonation_perc,2024.2.4,MacIntel,120.4819277,6743f87f4c502222ee322464,687ed1b7e638a4cbf2f02089,689b822d3749c77261060acd,,,,,,,,,,,,,,1,,,,,,,,,,,,,,,,,,,,,,,,,,,,,,,,,,,,,,,,,,,,434.7096,435.9477,1,1,0.7173,,435.9482,436.9488,0,8,8,8,1,0,bien,REAL,FAKE,,,,,,,,,,,,,,,,,,,,,,,,,,,,,,,,
,,,,,,,,,6743f87f4c502222ee322464,Argentinian ,13 or older,"no, only English or Spanish",yes,2025-08-12_14h05.16.529,empathy_intonation_perc,2024.2.4,MacIntel,120.4819277,6743f87f4c502222ee322464,687ed1b7e638a4cbf2f02089,689b822d3749c77261060acd,,,,,,,,,,,,,,1,,,,,,,,,,,,,,,,,,,,,,,,,,,,,,,,,,,,,,,,,,,,436.9502,438.0541,1,1,0.582,,438.0542,439.0489,0,9,9,9,1,0,casa,REAL,FAKE,,,,,,,,,,,,,,,,,,,,,,,,,,,,,,,,
,,,,,,,,,6743f87f4c502222ee322464,Argentinian ,13 or older,"no, only English or Spanish",yes,2025-08-12_14h05.16.529,empathy_intonation_perc,2024.2.4,MacIntel,120.4819277,6743f87f4c502222ee322464,687ed1b7e638a4cbf2f02089,689b822d3749c77261060acd,,,,,,,,,,,,,,0,,,,,,,,,,,,,,,,,,,,,,,,,,,,,,,,,,,,,,,,,,,,439.0501,440.4575,1,0,0.8894,,440.458,441.4573,0,10,10,10,1,0,lejo,REAL,FAKE,,,,,,,,,,,,,,,,,,,,,,,,,,,,,,,,
,,,,,,,,,6743f87f4c502222ee322464,Argentinian ,13 or older,"no, only English or Spanish",yes,2025-08-12_14h05.16.529,empathy_intonation_perc,2024.2.4,MacIntel,120.4819277,6743f87f4c502222ee322464,687ed1b7e638a4cbf2f02089,689b822d3749c77261060acd,,,,,,,,,,,,,,0,,,,,,,,,,,,,,,,,,,,,,,,,,,,,,,,,,,,,,,,,,,,441.4587,442.6578,1,0,0.6788,,442.6579,443.6584,0,11,11,11,1,0,pretantas,REAL,FAKE,,,,,,,,,,,,,,,,,,,,,,,,,,,,,,,,
,,,,,,,,,6743f87f4c502222ee322464,Argentinian ,13 or older,"no, only English or Spanish",yes,2025-08-12_14h05.16.529,empathy_intonation_perc,2024.2.4,MacIntel,120.4819277,6743f87f4c502222ee322464,687ed1b7e638a4cbf2f02089,689b822d3749c77261060acd,,,,,,,,,,,,,,,,,,,,,,,,,,,,,,,,,,,,,,,,,,,,,,,,,,,,,,,,,,,,,,,,,,,,,,,,,,,443.659,445.1219,,,,,,,,,,,,,,,,,,,,,,,,,,,,,,
,,,,,,,,,6743f87f4c502222ee322464,Argentinian ,13 or older,"no, only English or Spanish",yes,2025-08-12_14h05.16.529,empathy_intonation_perc,2024.2.4,MacIntel,120.4819277,6743f87f4c502222ee322464,687ed1b7e638a4cbf2f02089,689b822d3749c77261060acd,,,,,,,,,,,,,,1,,,,,,,,,,,,,,,,,,,,,,,,,,,,,,,,,,,,,,,,,,,,,,,,,,,,,,,,,11,cenefa,,,,,445.1366,446.5979,1,1,0.9475,,0,0,0,10,1,REAL,FAKE,,,,,,,,,,,,,,,,,
,,,,,,,,,6743f87f4c502222ee322464,Argentinian ,13 or older,"no, only English or Spanish",yes,2025-08-12_14h05.16.529,empathy_intonation_perc,2024.2.4,MacIntel,120.4819277,6743f87f4c502222ee322464,687ed1b7e638a4cbf2f02089,689b822d3749c77261060acd,,,,,,,,,,,,,,1,,,,,,,,,,,,,,,,,,,,,,,,,,,,,,,,,,,,,,,,,,,,,,,,,,,,,,,,,64,orgulloso,,,,,446.5986,449.0984,1,1,1.9851,,0,1,1,63,1,REAL,FAKE,,,,,,,,,,,,,,,,,
,,,,,,,,,6743f87f4c502222ee322464,Argentinian ,13 or older,"no, only English or Spanish",yes,2025-08-12_14h05.16.529,empathy_intonation_perc,2024.2.4,MacIntel,120.4819277,6743f87f4c502222ee322464,687ed1b7e638a4cbf2f02089,689b822d3749c77261060acd,,,,,,,,,,,,,,0,,,,,,,,,,,,,,,,,,,,,,,,,,,,,,,,,,,,,,,,,,,,,,,,,,,,,,,,,53,vegada,,,,,449.0996,450.7749,1,0,1.1473,,0,2,2,52,1,REAL,FAKE,,,,,,,,,,,,,,,,,
,,,,,,,,,6743f87f4c502222ee322464,Argentinian ,13 or older,"no, only English or Spanish",yes,2025-08-12_14h05.16.529,empathy_intonation_perc,2024.2.4,MacIntel,120.4819277,6743f87f4c502222ee322464,687ed1b7e638a4cbf2f02089,689b822d3749c77261060acd,,,,,,,,,,,,,,0,,,,,,,,,,,,,,,,,,,,,,,,,,,,,,,,,,,,,,,,,,,,,,,,,,,,,,,,,35,rompido,,,,,450.7757,452.4334,0,1,1.1326,,0,3,3,34,1,REAL,FAKE,,,,,,,,,,,,,,,,,
,,,,,,,,,6743f87f4c502222ee322464,Argentinian ,13 or older,"no, only English or Spanish",yes,2025-08-12_14h05.16.529,empathy_intonation_perc,2024.2.4,MacIntel,120.4819277,6743f87f4c502222ee322464,687ed1b7e638a4cbf2f02089,689b822d3749c77261060acd,,,,,,,,,,,,,,1,,,,,,,,,,,,,,,,,,,,,,,,,,,,,,,,,,,,,,,,,,,,,,,,,,,,,,,,,80,hormiga,,,,,452.4346,453.8917,1,1,0.9321,,0,4,4,79,1,REAL,FAKE,,,,,,,,,,,,,,,,,
,,,,,,,,,6743f87f4c502222ee322464,Argentinian ,13 or older,"no, only English or Spanish",yes,2025-08-12_14h05.16.529,empathy_intonation_perc,2024.2.4,MacIntel,120.4819277,6743f87f4c502222ee322464,687ed1b7e638a4cbf2f02089,689b822d3749c77261060acd,,,,,,,,,,,,,,1,,,,,,,,,,,,,,,,,,,,,,,,,,,,,,,,,,,,,,,,,,,,,,,,,,,,,,,,,41,rebuscar,,,,,453.8926,455.4748,1,1,1.0591,,0,5,5,40,1,REAL,FAKE,,,,,,,,,,,,,,,,,
,,,,,,,,,6743f87f4c502222ee322464,Argentinian ,13 or older,"no, only English or Spanish",yes,2025-08-12_14h05.16.529,empathy_intonation_perc,2024.2.4,MacIntel,120.4819277,6743f87f4c502222ee322464,687ed1b7e638a4cbf2f02089,689b822d3749c77261060acd,,,,,,,,,,,,,,0,,,,,,,,,,,,,,,,,,,,,,,,,,,,,,,,,,,,,,,,,,,,,,,,,,,,,,,,,50,flamida,,,,,455.4757,457.1081,0,1,1.1034,,0,6,6,49,1,REAL,FAKE,,,,,,,,,,,,,,,,,
,,,,,,,,,6743f87f4c502222ee322464,Argentinian ,13 or older,"no, only English or Spanish",yes,2025-08-12_14h05.16.529,empathy_intonation_perc,2024.2.4,MacIntel,120.4819277,6743f87f4c502222ee322464,687ed1b7e638a4cbf2f02089,689b822d3749c77261060acd,,,,,,,,,,,,,,1,,,,,,,,,,,,,,,,,,,,,,,,,,,,,,,,,,,,,,,,,,,,,,,,,,,,,,,,,26,secuestro,,,,,457.1086,459.6812,1,1,2.0489,,0,7,7,25,1,REAL,FAKE,,,,,,,,,,,,,,,,,
,,,,,,,,,6743f87f4c502222ee322464,Argentinian ,13 or older,"no, only English or Spanish",yes,2025-08-12_14h05.16.529,empathy_intonation_perc,2024.2.4,MacIntel,120.4819277,6743f87f4c502222ee322464,687ed1b7e638a4cbf2f02089,689b822d3749c77261060acd,,,,,,,,,,,,,,1,,,,,,,,,,,,,,,,,,,,,,,,,,,,,,,,,,,,,,,,,,,,,,,,,,,,,,,,,67,cabello,,,,,459.682,461.0455,1,1,0.846,,0,8,8,66,1,REAL,FAKE,,,,,,,,,,,,,,,,,
,,,,,,,,,6743f87f4c502222ee322464,Argentinian ,13 or older,"no, only English or Spanish",yes,2025-08-12_14h05.16.529,empathy_intonation_perc,2024.2.4,MacIntel,120.4819277,6743f87f4c502222ee322464,687ed1b7e638a4cbf2f02089,689b822d3749c77261060acd,,,,,,,,,,,,,,1,,,,,,,,,,,,,,,,,,,,,,,,,,,,,,,,,,,,,,,,,,,,,,,,,,,,,,,,,61,seda,,,,,461.0463,463.0905,0,0,1.5264,,0,9,9,60,1,REAL,FAKE,,,,,,,,,,,,,,,,,
,,,,,,,,,6743f87f4c502222ee322464,Argentinian ,13 or older,"no, only English or Spanish",yes,2025-08-12_14h05.16.529,empathy_intonation_perc,2024.2.4,MacIntel,120.4819277,6743f87f4c502222ee322464,687ed1b7e638a4cbf2f02089,689b822d3749c77261060acd,,,,,,,,,,,,,,1,,,,,,,,,,,,,,,,,,,,,,,,,,,,,,,,,,,,,,,,,,,,,,,,,,,,,,,,,68,alegre,,,,,463.091,464.5031,1,1,0.8946,,0,10,10,67,1,REAL,FAKE,,,,,,,,,,,,,,,,,
,,,,,,,,,6743f87f4c502222ee322464,Argentinian ,13 or older,"no, only English or Spanish",yes,2025-08-12_14h05.16.529,empathy_intonation_perc,2024.2.4,MacIntel,120.4819277,6743f87f4c502222ee322464,687ed1b7e638a4cbf2f02089,689b822d3749c77261060acd,,,,,,,,,,,,,,1,,,,,,,,,,,,,,,,,,,,,,,,,,,,,,,,,,,,,,,,,,,,,,,,,,,,,,,,,78,frondoso,,,,,464.5044,466.3784,1,1,1.3473,,0,11,11,77,1,REAL,FAKE,,,,,,,,,,,,,,,,,
,,,,,,,,,6743f87f4c502222ee322464,Argentinian ,13 or older,"no, only English or Spanish",yes,2025-08-12_14h05.16.529,empathy_intonation_perc,2024.2.4,MacIntel,120.4819277,6743f87f4c502222ee322464,687ed1b7e638a4cbf2f02089,689b822d3749c77261060acd,,,,,,,,,,,,,,1,,,,,,,,,,,,,,,,,,,,,,,,,,,,,,,,,,,,,,,,,,,,,,,,,,,,,,,,,36,loro,,,,,466.3791,467.8083,0,0,0.9056,,0,12,12,35,1,REAL,FAKE,,,,,,,,,,,,,,,,,
,,,,,,,,,6743f87f4c502222ee322464,Argentinian ,13 or older,"no, only English or Spanish",yes,2025-08-12_14h05.16.529,empathy_intonation_perc,2024.2.4,MacIntel,120.4819277,6743f87f4c502222ee322464,687ed1b7e638a4cbf2f02089,689b822d3749c77261060acd,,,,,,,,,,,,,,1,,,,,,,,,,,,,,,,,,,,,,,,,,,,,,,,,,,,,,,,,,,,,,,,,,,,,,,,,85,laúd,,,,,467.8096,469.5778,0,0,1.2465,,0,13,13,84,1,REAL,FAKE,,,,,,,,,,,,,,,,,
,,,,,,,,,6743f87f4c502222ee322464,Argentinian ,13 or older,"no, only English or Spanish",yes,2025-08-12_14h05.16.529,empathy_intonation_perc,2024.2.4,MacIntel,120.4819277,6743f87f4c502222ee322464,687ed1b7e638a4cbf2f02089,689b822d3749c77261060acd,,,,,,,,,,,,,,1,,,,,,,,,,,,,,,,,,,,,,,,,,,,,,,,,,,,,,,,,,,,,,,,,,,,,,,,,25,bisagra,,,,,469.5791,471.0329,1,1,0.9306,,0,14,14,24,1,REAL,FAKE,,,,,,,,,,,,,,,,,
,,,,,,,,,6743f87f4c502222ee322464,Argentinian ,13 or older,"no, only English or Spanish",yes,2025-08-12_14h05.16.529,empathy_intonation_perc,2024.2.4,MacIntel,120.4819277,6743f87f4c502222ee322464,687ed1b7e638a4cbf2f02089,689b822d3749c77261060acd,,,,,,,,,,,,,,0,,,,,,,,,,,,,,,,,,,,,,,,,,,,,,,,,,,,,,,,,,,,,,,,,,,,,,,,,1,terzo,,,,,471.0338,472.4497,0,1,0.8887,,0,15,15,0,1,REAL,FAKE,,,,,,,,,,,,,,,,,
,,,,,,,,,6743f87f4c502222ee322464,Argentinian ,13 or older,"no, only English or Spanish",yes,2025-08-12_14h05.16.529,empathy_intonation_perc,2024.2.4,MacIntel,120.4819277,6743f87f4c502222ee322464,687ed1b7e638a4cbf2f02089,689b822d3749c77261060acd,,,,,,,,,,,,,,0,,,,,,,,,,,,,,,,,,,,,,,,,,,,,,,,,,,,,,,,,,,,,,,,,,,,,,,,,92,click the 0 key.,,,,,472.4511,474.5997,0,1,1.6209,,0,16,16,91,1,REAL,FAKE,,,,,,,,,,,,,,,,,
,,,,,,,,,6743f87f4c502222ee322464,Argentinian ,13 or older,"no, only English or Spanish",yes,2025-08-12_14h05.16.529,empathy_intonation_perc,2024.2.4,MacIntel,120.4819277,6743f87f4c502222ee322464,687ed1b7e638a4cbf2f02089,689b822d3749c77261060acd,,,,,,,,,,,,,,0,,,,,,,,,,,,,,,,,,,,,,,,,,,,,,,,,,,,,,,,,,,,,,,,,,,,,,,,,70,temblo,,,,,474.6003,476.3289,1,0,1.2055,,0,17,17,69,1,REAL,FAKE,,,,,,,,,,,,,,,,,
,,,,,,,,,6743f87f4c502222ee322464,Argentinian ,13 or older,"no, only English or Spanish",yes,2025-08-12_14h05.16.529,empathy_intonation_perc,2024.2.4,MacIntel,120.4819277,6743f87f4c502222ee322464,687ed1b7e638a4cbf2f02089,689b822d3749c77261060acd,,,,,,,,,,,,,,1,,,,,,,,,,,,,,,,,,,,,,,,,,,,,,,,,,,,,,,,,,,,,,,,,,,,,,,,,15,regar,,,,,476.3298,477.9456,1,1,1.091,,0,18,18,14,1,REAL,FAKE,,,,,,,,,,,,,,,,,
,,,,,,,,,6743f87f4c502222ee322464,Argentinian ,13 or older,"no, only English or Spanish",yes,2025-08-12_14h05.16.529,empathy_intonation_perc,2024.2.4,MacIntel,120.4819277,6743f87f4c502222ee322464,687ed1b7e638a4cbf2f02089,689b822d3749c77261060acd,,,,,,,,,,,,,,0,,,,,,,,,,,,,,,,,,,,,,,,,,,,,,,,,,,,,,,,,,,,,,,,,,,,,,,,,16,abracer,,,,,477.9463,479.3114,1,0,0.8386,,0,19,19,15,1,REAL,FAKE,,,,,,,,,,,,,,,,,
,,,,,,,,,6743f87f4c502222ee322464,Argentinian ,13 or older,"no, only English or Spanish",yes,2025-08-12_14h05.16.529,empathy_intonation_perc,2024.2.4,MacIntel,120.4819277,6743f87f4c502222ee322464,687ed1b7e638a4cbf2f02089,689b822d3749c77261060acd,,,,,,,,,,,,,,1,,,,,,,,,,,,,,,,,,,,,,,,,,,,,,,,,,,,,,,,,,,,,,,,,,,,,,,,,31,pandilla,,,,,479.312,481.0291,1,1,1.1996,,0,20,20,30,1,REAL,FAKE,,,,,,,,,,,,,,,,,
,,,,,,,,,6743f87f4c502222ee322464,Argentinian ,13 or older,"no, only English or Spanish",yes,2025-08-12_14h05.16.529,empathy_intonation_perc,2024.2.4,MacIntel,120.4819277,6743f87f4c502222ee322464,687ed1b7e638a4cbf2f02089,689b822d3749c77261060acd,,,,,,,,,,,,,,1,,,,,,,,,,,,,,,,,,,,,,,,,,,,,,,,,,,,,,,,,,,,,,,,,,,,,,,,,76,atar,,,,,481.03,482.2622,0,0,0.7053,,0,21,21,75,1,REAL,FAKE,,,,,,,,,,,,,,,,,
,,,,,,,,,6743f87f4c502222ee322464,Argentinian ,13 or older,"no, only English or Spanish",yes,2025-08-12_14h05.16.529,empathy_intonation_perc,2024.2.4,MacIntel,120.4819277,6743f87f4c502222ee322464,687ed1b7e638a4cbf2f02089,689b822d3749c77261060acd,,,,,,,,,,,,,,1,,,,,,,,,,,,,,,,,,,,,,,,,,,,,,,,,,,,,,,,,,,,,,,,,,,,,,,,,14,yunque,,,,,482.2629,484.8792,0,0,2.0927,,0,22,22,13,1,REAL,FAKE,,,,,,,,,,,,,,,,,
,,,,,,,,,6743f87f4c502222ee322464,Argentinian ,13 or older,"no, only English or Spanish",yes,2025-08-12_14h05.16.529,empathy_intonation_perc,2024.2.4,MacIntel,120.4819277,6743f87f4c502222ee322464,687ed1b7e638a4cbf2f02089,689b822d3749c77261060acd,,,,,,,,,,,,,,1,,,,,,,,,,,,,,,,,,,,,,,,,,,,,,,,,,,,,,,,,,,,,,,,,,,,,,,,,59,besar,,,,,484.8801,486.379,1,1,0.9753,,0,23,23,58,1,REAL,FAKE,,,,,,,,,,,,,,,,,
,,,,,,,,,6743f87f4c502222ee322464,Argentinian ,13 or older,"no, only English or Spanish",yes,2025-08-12_14h05.16.529,empathy_intonation_perc,2024.2.4,MacIntel,120.4819277,6743f87f4c502222ee322464,687ed1b7e638a4cbf2f02089,689b822d3749c77261060acd,,,,,,,,,,,,,,0,,,,,,,,,,,,,,,,,,,,,,,,,,,,,,,,,,,,,,,,,,,,,,,,,,,,,,,,,74,cintro,,,,,486.3798,488.4031,1,0,1.5,,0,24,24,73,1,REAL,FAKE,,,,,,,,,,,,,,,,,
,,,,,,,,,6743f87f4c502222ee322464,Argentinian ,13 or older,"no, only English or Spanish",yes,2025-08-12_14h05.16.529,empathy_intonation_perc,2024.2.4,MacIntel,120.4819277,6743f87f4c502222ee322464,687ed1b7e638a4cbf2f02089,689b822d3749c77261060acd,,,,,,,,,,,,,,1,,,,,,,,,,,,,,,,,,,,,,,,,,,,,,,,,,,,,,,,,,,,,,,,,,,,,,,,,37,granuja,,,,,488.4038,490.637,1,1,1.7168,,0,25,25,36,1,REAL,FAKE,,,,,,,,,,,,,,,,,
,,,,,,,,,6743f87f4c502222ee322464,Argentinian ,13 or older,"no, only English or Spanish",yes,2025-08-12_14h05.16.529,empathy_intonation_perc,2024.2.4,MacIntel,120.4819277,6743f87f4c502222ee322464,687ed1b7e638a4cbf2f02089,689b822d3749c77261060acd,,,,,,,,,,,,,,1,,,,,,,,,,,,,,,,,,,,,,,,,,,,,,,,,,,,,,,,,,,,,,,,,,,,,,,,,77,tiburón,,,,,490.6377,492.2556,0,0,1.0879,,0,26,26,76,1,REAL,FAKE,,,,,,,,,,,,,,,,,
,,,,,,,,,6743f87f4c502222ee322464,Argentinian ,13 or older,"no, only English or Spanish",yes,2025-08-12_14h05.16.529,empathy_intonation_perc,2024.2.4,MacIntel,120.4819277,6743f87f4c502222ee322464,687ed1b7e638a4cbf2f02089,689b822d3749c77261060acd,,,,,,,,,,,,,,1,,,,,,,,,,,,,,,,,,,,,,,,,,,,,,,,,,,,,,,,,,,,,,,,,,,,,,,,,22,lacayo,,,,,492.2566,494.2773,0,0,1.5038,,0,27,27,21,1,REAL,FAKE,,,,,,,,,,,,,,,,,
,,,,,,,,,6743f87f4c502222ee322464,Argentinian ,13 or older,"no, only English or Spanish",yes,2025-08-12_14h05.16.529,empathy_intonation_perc,2024.2.4,MacIntel,120.4819277,6743f87f4c502222ee322464,687ed1b7e638a4cbf2f02089,689b822d3749c77261060acd,,,,,,,,,,,,,,1,,,,,,,,,,,,,,,,,,,,,,,,,,,,,,,,,,,,,,,,,,,,,,,,,,,,,,,,,12,asesinato,,,,,494.2784,496.2826,0,0,1.4835,,0,28,28,11,1,REAL,FAKE,,,,,,,,,,,,,,,,,
,,,,,,,,,6743f87f4c502222ee322464,Argentinian ,13 or older,"no, only English or Spanish",yes,2025-08-12_14h05.16.529,empathy_intonation_perc,2024.2.4,MacIntel,120.4819277,6743f87f4c502222ee322464,687ed1b7e638a4cbf2f02089,689b822d3749c77261060acd,,,,,,,,,,,,,,0,,,,,,,,,,,,,,,,,,,,,,,,,,,,,,,,,,,,,,,,,,,,,,,,,,,,,,,,,27,acutación,,,,,496.2837,497.7293,1,0,0.9206,,0,29,29,26,1,REAL,FAKE,,,,,,,,,,,,,,,,,
,,,,,,,,,6743f87f4c502222ee322464,Argentinian ,13 or older,"no, only English or Spanish",yes,2025-08-12_14h05.16.529,empathy_intonation_perc,2024.2.4,MacIntel,120.4819277,6743f87f4c502222ee322464,687ed1b7e638a4cbf2f02089,689b822d3749c77261060acd,,,,,,,,,,,,,,1,,,,,,,,,,,,,,,,,,,,,,,,,,,,,,,,,,,,,,,,,,,,,,,,,,,,,,,,,40,alfombra,,,,,497.7305,499.3873,0,0,1.1443,,0,30,30,39,1,REAL,FAKE,,,,,,,,,,,,,,,,,
,,,,,,,,,6743f87f4c502222ee322464,Argentinian ,13 or older,"no, only English or Spanish",yes,2025-08-12_14h05.16.529,empathy_intonation_perc,2024.2.4,MacIntel,120.4819277,6743f87f4c502222ee322464,687ed1b7e638a4cbf2f02089,689b822d3749c77261060acd,,,,,,,,,,,,,,1,,,,,,,,,,,,,,,,,,,,,,,,,,,,,,,,,,,,,,,,,,,,,,,,,,,,,,,,,54,fomentar,,,,,499.3881,500.841,1,1,0.9308,,0,31,31,53,1,REAL,FAKE,,,,,,,,,,,,,,,,,
,,,,,,,,,6743f87f4c502222ee322464,Argentinian ,13 or older,"no, only English or Spanish",yes,2025-08-12_14h05.16.529,empathy_intonation_perc,2024.2.4,MacIntel,120.4819277,6743f87f4c502222ee322464,687ed1b7e638a4cbf2f02089,689b822d3749c77261060acd,,,,,,,,,,,,,,0,,,,,,,,,,,,,,,,,,,,,,,,,,,,,,,,,,,,,,,,,,,,,,,,,,,,,,,,,21,capillo,,,,,500.8418,502.2414,1,0,0.8745,,0,32,32,20,1,REAL,FAKE,,,,,,,,,,,,,,,,,
,,,,,,,,,6743f87f4c502222ee322464,Argentinian ,13 or older,"no, only English or Spanish",yes,2025-08-12_14h05.16.529,empathy_intonation_perc,2024.2.4,MacIntel,120.4819277,6743f87f4c502222ee322464,687ed1b7e638a4cbf2f02089,689b822d3749c77261060acd,,,,,,,,,,,,,,0,,,,,,,,,,,,,,,,,,,,,,,,,,,,,,,,,,,,,,,,,,,,,,,,,,,,,,,,,8,cadeña,,,,,502.2421,503.5082,1,0,0.7449,,0,33,33,7,1,REAL,FAKE,,,,,,,,,,,,,,,,,
,,,,,,,,,6743f87f4c502222ee322464,Argentinian ,13 or older,"no, only English or Spanish",yes,2025-08-12_14h05.16.529,empathy_intonation_perc,2024.2.4,MacIntel,120.4819277,6743f87f4c502222ee322464,687ed1b7e638a4cbf2f02089,689b822d3749c77261060acd,,,,,,,,,,,,,,1,,,,,,,,,,,,,,,,,,,,,,,,,,,,,,,,,,,,,,,,,,,,,,,,,,,,,,,,,83,guante,,,,,503.509,505.2493,0,0,1.2158,,0,34,34,82,1,REAL,FAKE,,,,,,,,,,,,,,,,,
,,,,,,,,,6743f87f4c502222ee322464,Argentinian ,13 or older,"no, only English or Spanish",yes,2025-08-12_14h05.16.529,empathy_intonation_perc,2024.2.4,MacIntel,120.4819277,6743f87f4c502222ee322464,687ed1b7e638a4cbf2f02089,689b822d3749c77261060acd,,,,,,,,,,,,,,0,,,,,,,,,,,,,,,,,,,,,,,,,,,,,,,,,,,,,,,,,,,,,,,,,,,,,,,,,82,empirador,,,,,505.2505,506.7583,1,0,0.9877,,0,35,35,81,1,REAL,FAKE,,,,,,,,,,,,,,,,,
,,,,,,,,,6743f87f4c502222ee322464,Argentinian ,13 or older,"no, only English or Spanish",yes,2025-08-12_14h05.16.529,empathy_intonation_perc,2024.2.4,MacIntel,120.4819277,6743f87f4c502222ee322464,687ed1b7e638a4cbf2f02089,689b822d3749c77261060acd,,,,,,,,,,,,,,1,,,,,,,,,,,,,,,,,,,,,,,,,,,,,,,,,,,,,,,,,,,,,,,,,,,,,,,,,45,jilguero,,,,,506.7595,509.1491,0,0,1.8677,,0,36,36,44,1,REAL,FAKE,,,,,,,,,,,,,,,,,
,,,,,,,,,6743f87f4c502222ee322464,Argentinian ,13 or older,"no, only English or Spanish",yes,2025-08-12_14h05.16.529,empathy_intonation_perc,2024.2.4,MacIntel,120.4819277,6743f87f4c502222ee322464,687ed1b7e638a4cbf2f02089,689b822d3749c77261060acd,,,,,,,,,,,,,,1,,,,,,,,,,,,,,,,,,,,,,,,,,,,,,,,,,,,,,,,,,,,,,,,,,,,,,,,,81,pozo,,,,,509.1499,511.191,0,0,1.522,,0,37,37,80,1,REAL,FAKE,,,,,,,,,,,,,,,,,
,,,,,,,,,6743f87f4c502222ee322464,Argentinian ,13 or older,"no, only English or Spanish",yes,2025-08-12_14h05.16.529,empathy_intonation_perc,2024.2.4,MacIntel,120.4819277,6743f87f4c502222ee322464,687ed1b7e638a4cbf2f02089,689b822d3749c77261060acd,,,,,,,,,,,,,,0,,,,,,,,,,,,,,,,,,,,,,,,,,,,,,,,,,,,,,,,,,,,,,,,,,,,,,,,,29,decar,,,,,511.1916,512.5249,1,0,0.8087,,0,38,38,28,1,REAL,FAKE,,,,,,,,,,,,,,,,,
,,,,,,,,,6743f87f4c502222ee322464,Argentinian ,13 or older,"no, only English or Spanish",yes,2025-08-12_14h05.16.529,empathy_intonation_perc,2024.2.4,MacIntel,120.4819277,6743f87f4c502222ee322464,687ed1b7e638a4cbf2f02089,689b822d3749c77261060acd,,,,,,,,,,,,,,1,,,,,,,,,,,,,,,,,,,,,,,,,,,,,,,,,,,,,,,,,,,,,,,,,,,,,,,,,20,ávido,,,,,512.5259,513.7525,1,1,0.6988,,0,39,39,19,1,REAL,FAKE,,,,,,,,,,,,,,,,,
,,,,,,,,,6743f87f4c502222ee322464,Argentinian ,13 or older,"no, only English or Spanish",yes,2025-08-12_14h05.16.529,empathy_intonation_perc,2024.2.4,MacIntel,120.4819277,6743f87f4c502222ee322464,687ed1b7e638a4cbf2f02089,689b822d3749c77261060acd,,,,,,,,,,,,,,1,,,,,,,,,,,,,,,,,,,,,,,,,,,,,,,,,,,,,,,,,,,,,,,,,,,,,,,,,28,merodear,,,,,513.7532,515.1293,0,0,0.8607,,0,40,40,27,1,REAL,FAKE,,,,,,,,,,,,,,,,,
,,,,,,,,,6743f87f4c502222ee322464,Argentinian ,13 or older,"no, only English or Spanish",yes,2025-08-12_14h05.16.529,empathy_intonation_perc,2024.2.4,MacIntel,120.4819277,6743f87f4c502222ee322464,687ed1b7e638a4cbf2f02089,689b822d3749c77261060acd,,,,,,,,,,,,,,1,,,,,,,,,,,,,,,,,,,,,,,,,,,,,,,,,,,,,,,,,,,,,,,,,,,,,,,,,7,pésimo,,,,,515.1305,517.2362,1,1,1.5867,,0,41,41,6,1,REAL,FAKE,,,,,,,,,,,,,,,,,
,,,,,,,,,6743f87f4c502222ee322464,Argentinian ,13 or older,"no, only English or Spanish",yes,2025-08-12_14h05.16.529,empathy_intonation_perc,2024.2.4,MacIntel,120.4819277,6743f87f4c502222ee322464,687ed1b7e638a4cbf2f02089,689b822d3749c77261060acd,,,,,,,,,,,,,,0,,,,,,,,,,,,,,,,,,,,,,,,,,,,,,,,,,,,,,,,,,,,,,,,,,,,,,,,,58,plaudir,,,,,517.2368,518.5326,0,1,0.7786,,0,42,42,57,1,REAL,FAKE,,,,,,,,,,,,,,,,,
,,,,,,,,,6743f87f4c502222ee322464,Argentinian ,13 or older,"no, only English or Spanish",yes,2025-08-12_14h05.16.529,empathy_intonation_perc,2024.2.4,MacIntel,120.4819277,6743f87f4c502222ee322464,687ed1b7e638a4cbf2f02089,689b822d3749c77261060acd,,,,,,,,,,,,,,0,,,,,,,,,,,,,,,,,,,,,,,,,,,,,,,,,,,,,,,,,,,,,,,,,,,,,,,,,72,pemición,,,,,518.5331,520.0738,1,0,1.0234,,0,43,43,71,1,REAL,FAKE,,,,,,,,,,,,,,,,,
,,,,,,,,,6743f87f4c502222ee322464,Argentinian ,13 or older,"no, only English or Spanish",yes,2025-08-12_14h05.16.529,empathy_intonation_perc,2024.2.4,MacIntel,120.4819277,6743f87f4c502222ee322464,687ed1b7e638a4cbf2f02089,689b822d3749c77261060acd,,,,,,,,,,,,,,0,,,,,,,,,,,,,,,,,,,,,,,,,,,,,,,,,,,,,,,,,,,,,,,,,,,,,,,,,18,arsa,,,,,520.0744,521.3857,0,1,0.7846,,0,44,44,17,1,REAL,FAKE,,,,,,,,,,,,,,,,,
,,,,,,,,,6743f87f4c502222ee322464,Argentinian ,13 or older,"no, only English or Spanish",yes,2025-08-12_14h05.16.529,empathy_intonation_perc,2024.2.4,MacIntel,120.4819277,6743f87f4c502222ee322464,687ed1b7e638a4cbf2f02089,689b822d3749c77261060acd,,,,,,,,,,,,,,1,,,,,,,,,,,,,,,,,,,,,,,,,,,,,,,,,,,,,,,,,,,,,,,,,,,,,,,,,62,flaco,,,,,521.3864,522.9408,0,0,1.0306,,0,45,45,61,1,REAL,FAKE,,,,,,,,,,,,,,,,,
,,,,,,,,,6743f87f4c502222ee322464,Argentinian ,13 or older,"no, only English or Spanish",yes,2025-08-12_14h05.16.529,empathy_intonation_perc,2024.2.4,MacIntel,120.4819277,6743f87f4c502222ee322464,687ed1b7e638a4cbf2f02089,689b822d3749c77261060acd,,,,,,,,,,,,,,0,,,,,,,,,,,,,,,,,,,,,,,,,,,,,,,,,,,,,,,,,,,,,,,,,,,,,,,,,79,tropaje,,,,,522.9413,526.283,1,0,2.8152,,0,46,46,78,1,REAL,FAKE,,,,,,,,,,,,,,,,,
,,,,,,,,,6743f87f4c502222ee322464,Argentinian ,13 or older,"no, only English or Spanish",yes,2025-08-12_14h05.16.529,empathy_intonation_perc,2024.2.4,MacIntel,120.4819277,6743f87f4c502222ee322464,687ed1b7e638a4cbf2f02089,689b822d3749c77261060acd,,,,,,,,,,,,,,1,,,,,,,,,,,,,,,,,,,,,,,,,,,,,,,,,,,,,,,,,,,,,,,,,,,,,,,,,48,ladrón,,,,,526.2838,528.1247,1,1,1.3129,,0,47,47,47,1,REAL,FAKE,,,,,,,,,,,,,,,,,
,,,,,,,,,6743f87f4c502222ee322464,Argentinian ,13 or older,"no, only English or Spanish",yes,2025-08-12_14h05.16.529,empathy_intonation_perc,2024.2.4,MacIntel,120.4819277,6743f87f4c502222ee322464,687ed1b7e638a4cbf2f02089,689b822d3749c77261060acd,,,,,,,,,,,,,,0,,,,,,,,,,,,,,,,,,,,,,,,,,,,,,,,,,,,,,,,,,,,,,,,,,,,,,,,,33,pauca,,,,,528.1254,530.2906,0,1,1.6399,,0,48,48,32,1,REAL,FAKE,,,,,,,,,,,,,,,,,
,,,,,,,,,6743f87f4c502222ee322464,Argentinian ,13 or older,"no, only English or Spanish",yes,2025-08-12_14h05.16.529,empathy_intonation_perc,2024.2.4,MacIntel,120.4819277,6743f87f4c502222ee322464,687ed1b7e638a4cbf2f02089,689b822d3749c77261060acd,,,,,,,,,,,,,,0,,,,,,,,,,,,,,,,,,,,,,,,,,,,,,,,,,,,,,,,,,,,,,,,,,,,,,,,,23,lampera,,,,,530.2911,531.6747,0,1,0.8719,,0,49,49,22,1,REAL,FAKE,,,,,,,,,,,,,,,,,
,,,,,,,,,6743f87f4c502222ee322464,Argentinian ,13 or older,"no, only English or Spanish",yes,2025-08-12_14h05.16.529,empathy_intonation_perc,2024.2.4,MacIntel,120.4819277,6743f87f4c502222ee322464,687ed1b7e638a4cbf2f02089,689b822d3749c77261060acd,,,,,,,,,,,,,,1,,,,,,,,,,,,,,,,,,,,,,,,,,,,,,,,,,,,,,,,,,,,,,,,,,,,,,,,,73,hervidor,,,,,531.6755,534.1414,0,0,1.9406,,0,50,50,72,1,REAL,FAKE,,,,,,,,,,,,,,,,,
,,,,,,,,,6743f87f4c502222ee322464,Argentinian ,13 or older,"no, only English or Spanish",yes,2025-08-12_14h05.16.529,empathy_intonation_perc,2024.2.4,MacIntel,120.4819277,6743f87f4c502222ee322464,687ed1b7e638a4cbf2f02089,689b822d3749c77261060acd,,,,,,,,,,,,,,0,,,,,,,,,,,,,,,,,,,,,,,,,,,,,,,,,,,,,,,,,,,,,,,,,,,,,,,,,63,esposante,,,,,534.1422,535.601,1,0,0.9343,,0,51,51,62,1,REAL,FAKE,,,,,,,,,,,,,,,,,
,,,,,,,,,6743f87f4c502222ee322464,Argentinian ,13 or older,"no, only English or Spanish",yes,2025-08-12_14h05.16.529,empathy_intonation_perc,2024.2.4,MacIntel,120.4819277,6743f87f4c502222ee322464,687ed1b7e638a4cbf2f02089,689b822d3749c77261060acd,,,,,,,,,,,,,,1,,,,,,,,,,,,,,,,,,,,,,,,,,,,,,,,,,,,,,,,,,,,,,,,,,,,,,,,,57,tacaño,,,,,535.6021,537.1281,1,1,1.002,,0,52,52,56,1,REAL,FAKE,,,,,,,,,,,,,,,,,
,,,,,,,,,6743f87f4c502222ee322464,Argentinian ,13 or older,"no, only English or Spanish",yes,2025-08-12_14h05.16.529,empathy_intonation_perc,2024.2.4,MacIntel,120.4819277,6743f87f4c502222ee322464,687ed1b7e638a4cbf2f02089,689b822d3749c77261060acd,,,,,,,,,,,,,,1,,,,,,,,,,,,,,,,,,,,,,,,,,,,,,,,,,,,,,,,,,,,,,,,,,,,,,,,,69,engatusar,,,,,537.1293,538.5537,0,0,0.8979,,0,53,53,68,1,REAL,FAKE,,,,,,,,,,,,,,,,,
,,,,,,,,,6743f87f4c502222ee322464,Argentinian ,13 or older,"no, only English or Spanish",yes,2025-08-12_14h05.16.529,empathy_intonation_perc,2024.2.4,MacIntel,120.4819277,6743f87f4c502222ee322464,687ed1b7e638a4cbf2f02089,689b822d3749c77261060acd,,,,,,,,,,,,,,1,,,,,,,,,,,,,,,,,,,,,,,,,,,,,,,,,,,,,,,,,,,,,,,,,,,,,,,,,13,helar,,,,,538.5546,539.8161,0,0,0.7403,,0,54,54,12,1,REAL,FAKE,,,,,,,,,,,,,,,,,
,,,,,,,,,6743f87f4c502222ee322464,Argentinian ,13 or older,"no, only English or Spanish",yes,2025-08-12_14h05.16.529,empathy_intonation_perc,2024.2.4,MacIntel,120.4819277,6743f87f4c502222ee322464,687ed1b7e638a4cbf2f02089,689b822d3749c77261060acd,,,,,,,,,,,,,,1,,,,,,,,,,,,,,,,,,,,,,,,,,,,,,,,,,,,,,,,,,,,,,,,,,,,,,,,,75,yacer,,,,,539.8169,541.1996,0,0,0.8592,,0,55,55,74,1,REAL,FAKE,,,,,,,,,,,,,,,,,
,,,,,,,,,6743f87f4c502222ee322464,Argentinian ,13 or older,"no, only English or Spanish",yes,2025-08-12_14h05.16.529,empathy_intonation_perc,2024.2.4,MacIntel,120.4819277,6743f87f4c502222ee322464,687ed1b7e638a4cbf2f02089,689b822d3749c77261060acd,,,,,,,,,,,,,,1,,,,,,,,,,,,,,,,,,,,,,,,,,,,,,,,,,,,,,,,,,,,,,,,,,,,,,,,,46,martillo,,,,,541.2003,542.5585,1,1,0.836,,0,56,56,45,1,REAL,FAKE,,,,,,,,,,,,,,,,,
,,,,,,,,,6743f87f4c502222ee322464,Argentinian ,13 or older,"no, only English or Spanish",yes,2025-08-12_14h05.16.529,empathy_intonation_perc,2024.2.4,MacIntel,120.4819277,6743f87f4c502222ee322464,687ed1b7e638a4cbf2f02089,689b822d3749c77261060acd,,,,,,,,,,,,,,1,,,,,,,,,,,,,,,,,,,,,,,,,,,,,,,,,,,,,,,,,,,,,,,,,,,,,,,,,86,barato,,,,,542.5593,543.9708,0,0,0.884,,0,57,57,85,1,REAL,FAKE,,,,,,,,,,,,,,,,,
,,,,,,,,,6743f87f4c502222ee322464,Argentinian ,13 or older,"no, only English or Spanish",yes,2025-08-12_14h05.16.529,empathy_intonation_perc,2024.2.4,MacIntel,120.4819277,6743f87f4c502222ee322464,687ed1b7e638a4cbf2f02089,689b822d3749c77261060acd,,,,,,,,,,,,,,0,,,,,,,,,,,,,,,,,,,,,,,,,,,,,,,,,,,,,,,,,,,,,,,,,,,,,,,,,66,hacido,,,,,543.972,545.5374,1,0,1.0412,,0,58,58,65,1,REAL,FAKE,,,,,,,,,,,,,,,,,
,,,,,,,,,6743f87f4c502222ee322464,Argentinian ,13 or older,"no, only English or Spanish",yes,2025-08-12_14h05.16.529,empathy_intonation_perc,2024.2.4,MacIntel,120.4819277,6743f87f4c502222ee322464,687ed1b7e638a4cbf2f02089,689b822d3749c77261060acd,,,,,,,,,,,,,,1,,,,,,,,,,,,,,,,,,,,,,,,,,,,,,,,,,,,,,,,,,,,,,,,,,,,,,,,,51,candado,,,,,545.5382,546.8954,0,0,0.836,,0,59,59,50,1,REAL,FAKE,,,,,,,,,,,,,,,,,
,,,,,,,,,6743f87f4c502222ee322464,Argentinian ,13 or older,"no, only English or Spanish",yes,2025-08-12_14h05.16.529,empathy_intonation_perc,2024.2.4,MacIntel,120.4819277,6743f87f4c502222ee322464,687ed1b7e638a4cbf2f02089,689b822d3749c77261060acd,,,,,,,,,,,,,,0,,,,,,,,,,,,,,,,,,,,,,,,,,,,,,,,,,,,,,,,,,,,,,,,,,,,,,,,,10,antar,,,,,546.8964,548.0364,0,1,0.6171,,0,60,60,9,1,REAL,FAKE,,,,,,,,,,,,,,,,,
,,,,,,,,,6743f87f4c502222ee322464,Argentinian ,13 or older,"no, only English or Spanish",yes,2025-08-12_14h05.16.529,empathy_intonation_perc,2024.2.4,MacIntel,120.4819277,6743f87f4c502222ee322464,687ed1b7e638a4cbf2f02089,689b822d3749c77261060acd,,,,,,,,,,,,,,1,,,,,,,,,,,,,,,,,,,,,,,,,,,,,,,,,,,,,,,,,,,,,,,,,,,,,,,,,88,acantilado,,,,,548.037,550.2369,1,1,1.6814,,0,61,61,87,1,REAL,FAKE,,,,,,,,,,,,,,,,,
,,,,,,,,,6743f87f4c502222ee322464,Argentinian ,13 or older,"no, only English or Spanish",yes,2025-08-12_14h05.16.529,empathy_intonation_perc,2024.2.4,MacIntel,120.4819277,6743f87f4c502222ee322464,687ed1b7e638a4cbf2f02089,689b822d3749c77261060acd,,,,,,,,,,,,,,1,,,,,,,,,,,,,,,,,,,,,,,,,,,,,,,,,,,,,,,,,,,,,,,,,,,,,,,,,24,látigo,,,,,550.2376,551.4659,1,1,0.7036,,0,62,62,23,1,REAL,FAKE,,,,,,,,,,,,,,,,,
,,,,,,,,,6743f87f4c502222ee322464,Argentinian ,13 or older,"no, only English or Spanish",yes,2025-08-12_14h05.16.529,empathy_intonation_perc,2024.2.4,MacIntel,120.4819277,6743f87f4c502222ee322464,687ed1b7e638a4cbf2f02089,689b822d3749c77261060acd,,,,,,,,,,,,,,0,,,,,,,,,,,,,,,,,,,,,,,,,,,,,,,,,,,,,,,,,,,,,,,,,,,,,,,,,42,cadallo,,,,,551.4666,552.6573,1,0,0.6704,,0,63,63,41,1,REAL,FAKE,,,,,,,,,,,,,,,,,
,,,,,,,,,6743f87f4c502222ee322464,Argentinian ,13 or older,"no, only English or Spanish",yes,2025-08-12_14h05.16.529,empathy_intonation_perc,2024.2.4,MacIntel,120.4819277,6743f87f4c502222ee322464,687ed1b7e638a4cbf2f02089,689b822d3749c77261060acd,,,,,,,,,,,,,,0,,,,,,,,,,,,,,,,,,,,,,,,,,,,,,,,,,,,,,,,,,,,,,,,,,,,,,,,,19,brecedad,,,,,552.6581,554.5729,0,1,1.3883,,0,64,64,18,1,REAL,FAKE,,,,,,,,,,,,,,,,,
,,,,,,,,,6743f87f4c502222ee322464,Argentinian ,13 or older,"no, only English or Spanish",yes,2025-08-12_14h05.16.529,empathy_intonation_perc,2024.2.4,MacIntel,120.4819277,6743f87f4c502222ee322464,687ed1b7e638a4cbf2f02089,689b822d3749c77261060acd,,,,,,,,,,,,,,0,,,,,,,,,,,,,,,,,,,,,,,,,,,,,,,,,,,,,,,,,,,,,,,,,,,,,,,,,84,escuto,,,,,554.5736,555.8565,1,0,0.7685,,0,65,65,83,1,REAL,FAKE,,,,,,,,,,,,,,,,,
,,,,,,,,,6743f87f4c502222ee322464,Argentinian ,13 or older,"no, only English or Spanish",yes,2025-08-12_14h05.16.529,empathy_intonation_perc,2024.2.4,MacIntel,120.4819277,6743f87f4c502222ee322464,687ed1b7e638a4cbf2f02089,689b822d3749c77261060acd,,,,,,,,,,,,,,1,,,,,,,,,,,,,,,,,,,,,,,,,,,,,,,,,,,,,,,,,,,,,,,,,,,,,,,,,55,nevar,,,,,555.8572,560.0499,1,1,3.6744,,0,66,66,54,1,REAL,FAKE,,,,,,,,,,,,,,,,,
,,,,,,,,,6743f87f4c502222ee322464,Argentinian ,13 or older,"no, only English or Spanish",yes,2025-08-12_14h05.16.529,empathy_intonation_perc,2024.2.4,MacIntel,120.4819277,6743f87f4c502222ee322464,687ed1b7e638a4cbf2f02089,689b822d3749c77261060acd,,,,,,,,,,,,,,1,,,,,,,,,,,,,,,,,,,,,,,,,,,,,,,,,,,,,,,,,,,,,,,,,,,,,,,,,65,bizcocho,,,,,560.0507,561.3323,0,0,0.7548,,0,67,67,64,1,REAL,FAKE,,,,,,,,,,,,,,,,,
,,,,,,,,,6743f87f4c502222ee322464,Argentinian ,13 or older,"no, only English or Spanish",yes,2025-08-12_14h05.16.529,empathy_intonation_perc,2024.2.4,MacIntel,120.4819277,6743f87f4c502222ee322464,687ed1b7e638a4cbf2f02089,689b822d3749c77261060acd,,,,,,,,,,,,,,1,,,,,,,,,,,,,,,,,,,,,,,,,,,,,,,,,,,,,,,,,,,,,,,,,,,,,,,,,2,pellizcar,,,,,561.3327,562.8833,1,1,1.0328,,0,68,68,1,1,REAL,FAKE,,,,,,,,,,,,,,,,,
,,,,,,,,,6743f87f4c502222ee322464,Argentinian ,13 or older,"no, only English or Spanish",yes,2025-08-12_14h05.16.529,empathy_intonation_perc,2024.2.4,MacIntel,120.4819277,6743f87f4c502222ee322464,687ed1b7e638a4cbf2f02089,689b822d3749c77261060acd,,,,,,,,,,,,,,0,,,,,,,,,,,,,,,,,,,,,,,,,,,,,,,,,,,,,,,,,,,,,,,,,,,,,,,,,30,alardio,,,,,562.8841,564.0161,0,1,0.6068,,0,69,69,29,1,REAL,FAKE,,,,,,,,,,,,,,,,,
,,,,,,,,,6743f87f4c502222ee322464,Argentinian ,13 or older,"no, only English or Spanish",yes,2025-08-12_14h05.16.529,empathy_intonation_perc,2024.2.4,MacIntel,120.4819277,6743f87f4c502222ee322464,687ed1b7e638a4cbf2f02089,689b822d3749c77261060acd,,,,,,,,,,,,,,1,,,,,,,,,,,,,,,,,,,,,,,,,,,,,,,,,,,,,,,,,,,,,,,,,,,,,,,,,89,prisa,,,,,564.017,565.3001,0,0,0.7615,,0,70,70,88,1,REAL,FAKE,,,,,,,,,,,,,,,,,
,,,,,,,,,6743f87f4c502222ee322464,Argentinian ,13 or older,"no, only English or Spanish",yes,2025-08-12_14h05.16.529,empathy_intonation_perc,2024.2.4,MacIntel,120.4819277,6743f87f4c502222ee322464,687ed1b7e638a4cbf2f02089,689b822d3749c77261060acd,,,,,,,,,,,,,,1,,,,,,,,,,,,,,,,,,,,,,,,,,,,,,,,,,,,,,,,,,,,,,,,,,,,,,,,,52,camisa,,,,,565.3011,566.4834,0,0,0.6585,,0,71,71,51,1,REAL,FAKE,,,,,,,,,,,,,,,,,
,,,,,,,,,6743f87f4c502222ee322464,Argentinian ,13 or older,"no, only English or Spanish",yes,2025-08-12_14h05.16.529,empathy_intonation_perc,2024.2.4,MacIntel,120.4819277,6743f87f4c502222ee322464,687ed1b7e638a4cbf2f02089,689b822d3749c77261060acd,,,,,,,,,,,,,,0,,,,,,,,,,,,,,,,,,,,,,,,,,,,,,,,,,,,,,,,,,,,,,,,,,,,,,,,,17,floroso,,,,,566.484,567.7912,0,1,0.7813,,0,72,72,16,1,REAL,FAKE,,,,,,,,,,,,,,,,,
,,,,,,,,,6743f87f4c502222ee322464,Argentinian ,13 or older,"no, only English or Spanish",yes,2025-08-12_14h05.16.529,empathy_intonation_perc,2024.2.4,MacIntel,120.4819277,6743f87f4c502222ee322464,687ed1b7e638a4cbf2f02089,689b822d3749c77261060acd,,,,,,,,,,,,,,1,,,,,,,,,,,,,,,,,,,,,,,,,,,,,,,,,,,,,,,,,,,,,,,,,,,,,,,,,34,aviso,,,,,567.792,569.1598,1,1,0.8487,,0,73,73,33,1,REAL,FAKE,,,,,,,,,,,,,,,,,
,,,,,,,,,6743f87f4c502222ee322464,Argentinian ,13 or older,"no, only English or Spanish",yes,2025-08-12_14h05.16.529,empathy_intonation_perc,2024.2.4,MacIntel,120.4819277,6743f87f4c502222ee322464,687ed1b7e638a4cbf2f02089,689b822d3749c77261060acd,,,,,,,,,,,,,,1,,,,,,,,,,,,,,,,,,,,,,,,,,,,,,,,,,,,,,,,,,,,,,,,,,,,,,,,,90,clavel,,,,,569.161,570.4494,0,0,0.7657,,0,74,74,89,1,REAL,FAKE,,,,,,,,,,,,,,,,,
,,,,,,,,,6743f87f4c502222ee322464,Argentinian ,13 or older,"no, only English or Spanish",yes,2025-08-12_14h05.16.529,empathy_intonation_perc,2024.2.4,MacIntel,120.4819277,6743f87f4c502222ee322464,687ed1b7e638a4cbf2f02089,689b822d3749c77261060acd,,,,,,,,,,,,,,1,,,,,,,,,,,,,,,,,,,,,,,,,,,,,,,,,,,,,,,,,,,,,,,,,,,,,,,,,3,pulmones,,,,,570.4502,572.4164,1,1,1.4386,,0,75,75,2,1,REAL,FAKE,,,,,,,,,,,,,,,,,
,,,,,,,,,6743f87f4c502222ee322464,Argentinian ,13 or older,"no, only English or Spanish",yes,2025-08-12_14h05.16.529,empathy_intonation_perc,2024.2.4,MacIntel,120.4819277,6743f87f4c502222ee322464,687ed1b7e638a4cbf2f02089,689b822d3749c77261060acd,,,,,,,,,,,,,,1,,,,,,,,,,,,,,,,,,,,,,,,,,,,,,,,,,,,,,,,,,,,,,,,,,,,,,,,,71,polvoriento,,,,,572.4171,573.8914,0,0,0.9506,,0,76,76,70,1,REAL,FAKE,,,,,,,,,,,,,,,,,
,,,,,,,,,6743f87f4c502222ee322464,Argentinian ,13 or older,"no, only English or Spanish",yes,2025-08-12_14h05.16.529,empathy_intonation_perc,2024.2.4,MacIntel,120.4819277,6743f87f4c502222ee322464,687ed1b7e638a4cbf2f02089,689b822d3749c77261060acd,,,,,,,,,,,,,,1,,,,,,,,,,,,,,,,,,,,,,,,,,,,,,,,,,,,,,,,,,,,,,,,,,,,,,,,,60,matar,,,,,573.8922,575.7332,0,0,1.3141,,0,77,77,59,1,REAL,FAKE,,,,,,,,,,,,,,,,,
,,,,,,,,,6743f87f4c502222ee322464,Argentinian ,13 or older,"no, only English or Spanish",yes,2025-08-12_14h05.16.529,empathy_intonation_perc,2024.2.4,MacIntel,120.4819277,6743f87f4c502222ee322464,687ed1b7e638a4cbf2f02089,689b822d3749c77261060acd,,,,,,,,,,,,,,0,,,,,,,,,,,,,,,,,,,,,,,,,,,,,,,,,,,,,,,,,,,,,,,,,,,,,,,,,32,fatacidad,,,,,575.7339,578.5834,1,0,2.3227,,0,78,78,31,1,REAL,FAKE,,,,,,,,,,,,,,,,,
,,,,,,,,,6743f87f4c502222ee322464,Argentinian ,13 or older,"no, only English or Spanish",yes,2025-08-12_14h05.16.529,empathy_intonation_perc,2024.2.4,MacIntel,120.4819277,6743f87f4c502222ee322464,687ed1b7e638a4cbf2f02089,689b822d3749c77261060acd,,,,,,,,,,,,,,0,,,,,,,,,,,,,,,,,,,,,,,,,,,,,,,,,,,,,,,,,,,,,,,,,,,,,,,,,47,cartinar,,,,,578.5845,580.9075,1,0,1.797,,0,79,79,46,1,REAL,FAKE,,,,,,,,,,,,,,,,,
,,,,,,,,,6743f87f4c502222ee322464,Argentinian ,13 or older,"no, only English or Spanish",yes,2025-08-12_14h05.16.529,empathy_intonation_perc,2024.2.4,MacIntel,120.4819277,6743f87f4c502222ee322464,687ed1b7e638a4cbf2f02089,689b822d3749c77261060acd,,,,,,,,,,,,,,1,,,,,,,,,,,,,,,,,,,,,,,,,,,,,,,,,,,,,,,,,,,,,,,,,,,,,,,,,56,musgo,,,,,580.9084,582.3657,0,0,0.9399,,0,80,80,55,1,REAL,FAKE,,,,,,,,,,,,,,,,,
,,,,,,,,,6743f87f4c502222ee322464,Argentinian ,13 or older,"no, only English or Spanish",yes,2025-08-12_14h05.16.529,empathy_intonation_perc,2024.2.4,MacIntel,120.4819277,6743f87f4c502222ee322464,687ed1b7e638a4cbf2f02089,689b822d3749c77261060acd,,,,,,,,,,,,,,1,,,,,,,,,,,,,,,,,,,,,,,,,,,,,,,,,,,,,,,,,,,,,,,,,,,,,,,,,6,tergiversar,,,,,582.3669,584.6248,0,0,1.7395,,0,81,81,5,1,REAL,FAKE,,,,,,,,,,,,,,,,,
,,,,,,,,,6743f87f4c502222ee322464,Argentinian ,13 or older,"no, only English or Spanish",yes,2025-08-12_14h05.16.529,empathy_intonation_perc,2024.2.4,MacIntel,120.4819277,6743f87f4c502222ee322464,687ed1b7e638a4cbf2f02089,689b822d3749c77261060acd,,,,,,,,,,,,,,1,,,,,,,,,,,,,,,,,,,,,,,,,,,,,,,,,,,,,,,,,,,,,,,,,,,,,,,,,5,zapato,,,,,584.6255,586.2749,1,1,1.1248,,0,82,82,4,1,REAL,FAKE,,,,,,,,,,,,,,,,,
,,,,,,,,,6743f87f4c502222ee322464,Argentinian ,13 or older,"no, only English or Spanish",yes,2025-08-12_14h05.16.529,empathy_intonation_perc,2024.2.4,MacIntel,120.4819277,6743f87f4c502222ee322464,687ed1b7e638a4cbf2f02089,689b822d3749c77261060acd,,,,,,,,,,,,,,0,,,,,,,,,,,,,,,,,,,,,,,,,,,,,,,,,,,,,,,,,,,,,,,,,,,,,,,,,87,grodo,,,,,586.2761,588.4834,1,0,1.6843,,0,83,83,86,1,REAL,FAKE,,,,,,,,,,,,,,,,,
,,,,,,,,,6743f87f4c502222ee322464,Argentinian ,13 or older,"no, only English or Spanish",yes,2025-08-12_14h05.16.529,empathy_intonation_perc,2024.2.4,MacIntel,120.4819277,6743f87f4c502222ee322464,687ed1b7e638a4cbf2f02089,689b822d3749c77261060acd,,,,,,,,,,,,,,1,,,,,,,,,,,,,,,,,,,,,,,,,,,,,,,,,,,,,,,,,,,,,,,,,,,,,,,,,49,ganar,,,,,588.4846,589.7171,0,0,0.7098,,0,84,84,48,1,REAL,FAKE,,,,,,,,,,,,,,,,,
,,,,,,,,,6743f87f4c502222ee322464,Argentinian ,13 or older,"no, only English or Spanish",yes,2025-08-12_14h05.16.529,empathy_intonation_perc,2024.2.4,MacIntel,120.4819277,6743f87f4c502222ee322464,687ed1b7e638a4cbf2f02089,689b822d3749c77261060acd,,,,,,,,,,,,,,1,,,,,,,,,,,,,,,,,,,,,,,,,,,,,,,,,,,,,,,,,,,,,,,,,,,,,,,,,91,click the 1 key.,,,,,589.7179,591.5166,1,1,1.2725,,0,85,85,90,1,REAL,FAKE,,,,,,,,,,,,,,,,,
,,,,,,,,,6743f87f4c502222ee322464,Argentinian ,13 or older,"no, only English or Spanish",yes,2025-08-12_14h05.16.529,empathy_intonation_perc,2024.2.4,MacIntel,120.4819277,6743f87f4c502222ee322464,687ed1b7e638a4cbf2f02089,689b822d3749c77261060acd,,,,,,,,,,,,,,1,,,,,,,,,,,,,,,,,,,,,,,,,,,,,,,,,,,,,,,,,,,,,,,,,,,,,,,,,39,torpe,,,,,591.5174,593.6915,0,0,1.6482,,0,86,86,38,1,REAL,FAKE,,,,,,,,,,,,,,,,,
,,,,,,,,,6743f87f4c502222ee322464,Argentinian ,13 or older,"no, only English or Spanish",yes,2025-08-12_14h05.16.529,empathy_intonation_perc,2024.2.4,MacIntel,120.4819277,6743f87f4c502222ee322464,687ed1b7e638a4cbf2f02089,689b822d3749c77261060acd,,,,,,,,,,,,,,1,,,,,,,,,,,,,,,,,,,,,,,,,,,,,,,,,,,,,,,,,,,,,,,,,,,,,,,,,43,canela,,,,,593.6922,595.5995,0,0,1.3837,,0,87,87,42,1,REAL,FAKE,,,,,,,,,,,,,,,,,
,,,,,,,,,6743f87f4c502222ee322464,Argentinian ,13 or older,"no, only English or Spanish",yes,2025-08-12_14h05.16.529,empathy_intonation_perc,2024.2.4,MacIntel,120.4819277,6743f87f4c502222ee322464,687ed1b7e638a4cbf2f02089,689b822d3749c77261060acd,,,,,,,,,,,,,,1,,,,,,,,,,,,,,,,,,,,,,,,,,,,,,,,,,,,,,,,,,,,,,,,,,,,,,,,,9,hacha,,,,,595.6002,596.8682,0,0,0.7522,,0,88,88,8,1,REAL,FAKE,,,,,,,,,,,,,,,,,
,,,,,,,,,6743f87f4c502222ee322464,Argentinian ,13 or older,"no, only English or Spanish",yes,2025-08-12_14h05.16.529,empathy_intonation_perc,2024.2.4,MacIntel,120.4819277,6743f87f4c502222ee322464,687ed1b7e638a4cbf2f02089,689b822d3749c77261060acd,,,,,,,,,,,,,,1,,,,,,,,,,,,,,,,,,,,,,,,,,,,,,,,,,,,,,,,,,,,,,,,,,,,,,,,,44,cuchara,,,,,596.8691,598.0418,0,0,0.6461,,0,89,89,43,1,REAL,FAKE,,,,,,,,,,,,,,,,,
,,,,,,,,,6743f87f4c502222ee322464,Argentinian ,13 or older,"no, only English or Spanish",yes,2025-08-12_14h05.16.529,empathy_intonation_perc,2024.2.4,MacIntel,120.4819277,6743f87f4c502222ee322464,687ed1b7e638a4cbf2f02089,689b822d3749c77261060acd,,,,,,,,,,,,,,1,,,,,,,,,,,,,,,,,,,,,,,,,,,,,,,,,,,,,,,,,,,,,,,,,,,,,,,,,38,estornudar,,,,,598.043,599.1871,1,1,0.6306,,0,90,90,37,1,REAL,FAKE,,,,,,,,,,,,,,,,,
,,,,,,,,,6743f87f4c502222ee322464,Argentinian ,13 or older,"no, only English or Spanish",yes,2025-08-12_14h05.16.529,empathy_intonation_perc,2024.2.4,MacIntel,120.4819277,6743f87f4c502222ee322464,687ed1b7e638a4cbf2f02089,689b822d3749c77261060acd,,,,,,,,,,,,,,0,,,,,,,,,,,,,,,,,,,,,,,,,,,,,,,,,,,,,,,,,,,,,,,,,,,,,,,,,4,batillón,,,,,599.188,600.3938,0,1,0.6901,,0,91,91,3,1,REAL,FAKE,,,,,,,,,,,,,,,,,
,,,,,,,,,6743f87f4c502222ee322464,Argentinian ,13 or older,"no, only English or Spanish",yes,2025-08-12_14h05.16.529,empathy_intonation_perc,2024.2.4,MacIntel,120.4819277,6743f87f4c502222ee322464,687ed1b7e638a4cbf2f02089,689b822d3749c77261060acd,,,,,,,,,,,,,,,,,,,,,,,,,,,,,,,,,,,,,,,,,,,,,,,,,,,,,,,,,,,,,,,,,,,,,,,,,,,,,,,,,,,,,,,,,,600.3943,605.5239,,,,,,,,,,,,,,,
,,,,,,,,,6743f87f4c502222ee322464,Argentinian ,13 or older,"no, only English or Spanish",yes,2025-08-12_14h05.16.529,empathy_intonation_perc,2024.2.4,MacIntel,120.4819277,6743f87f4c502222ee322464,687ed1b7e638a4cbf2f02089,689b822d3749c77261060acd,,,,,,,,,,,,,1,,,,,,,,,,,,,,,,,,,,,,,,,,,,,,,,,,,,,,,,,,,,,,,,,,,,,,,,,,,,,,,,,,,,,,,,,,,,,,,605.5388,608.7769,strongly agree,0,0,0,0,1,I can easily tell if someone else wants to enter a conversation.,1,0,1,0,,
,,,,,,,,,6743f87f4c502222ee322464,Argentinian ,13 or older,"no, only English or Spanish",yes,2025-08-12_14h05.16.529,empathy_intonation_perc,2024.2.4,MacIntel,120.4819277,6743f87f4c502222ee322464,687ed1b7e638a4cbf2f02089,689b822d3749c77261060acd,,,,,,,,,,,,,2,,,,,,,,,,,,,,,,,,,,,,,,,,,,,,,,,,,,,,,,,,,,,,,,,,,,,,,,,,,,,,,,,,,,,,,,,,,,,,,608.7784,612.1455,slightly agree,0,1,1,1,1,I prefer animals to humans.,0,1,0,0,,
,,,,,,,,,6743f87f4c502222ee322464,Argentinian ,13 or older,"no, only English or Spanish",yes,2025-08-12_14h05.16.529,empathy_intonation_perc,2024.2.4,MacIntel,120.4819277,6743f87f4c502222ee322464,687ed1b7e638a4cbf2f02089,689b822d3749c77261060acd,,,,,,,,,,,,,3,,,,,,,,,,,,,,,,,,,,,,,,,,,,,,,,,,,,,,,,,,,,,,,,,,,,,,,,,,,,,,,,,,,,,,,,,,,,,,,612.1469,615.1068,strongly disagree,0,2,2,2,1,I try to keep up with the current trends and fashions.,0,1,0,0,,
,,,,,,,,,6743f87f4c502222ee322464,Argentinian ,13 or older,"no, only English or Spanish",yes,2025-08-12_14h05.16.529,empathy_intonation_perc,2024.2.4,MacIntel,120.4819277,6743f87f4c502222ee322464,687ed1b7e638a4cbf2f02089,689b822d3749c77261060acd,,,,,,,,,,,,,4,,,,,,,,,,,,,,,,,,,,,,,,,,,,,,,,,,,,,,,,,,,,,,,,,,,,,,,,,,,,,,,,,,,,,,,,,,,,,,,615.1078,620.5622,strongly agree,0,3,3,3,1,"I find it difficult to explain to others things that I understand easily,   when they don't understand it first time.",1,0,0,1,,
,,,,,,,,,6743f87f4c502222ee322464,Argentinian ,13 or older,"no, only English or Spanish",yes,2025-08-12_14h05.16.529,empathy_intonation_perc,2024.2.4,MacIntel,120.4819277,6743f87f4c502222ee322464,687ed1b7e638a4cbf2f02089,689b822d3749c77261060acd,,,,,,,,,,,,,5,,,,,,,,,,,,,,,,,,,,,,,,,,,,,,,,,,,,,,,,,,,,,,,,,,,,,,,,,,,,,,,,,,,,,,,,,,,,,,,620.5631,622.03,strongly agree,0,4,4,4,1,I dream most nights.,0,1,0,0,,
