instructions_exposure.started,instructions_exposure.stopped,instructions_exposure_loop.thisRepN,instructions_exposure_loop.thisTrialN,instructions_exposure_loop.thisN,instructions_exposure_loop.thisIndex,instructions_exposure_loop.ran,instructions_text,continue_text,participant_id,"What variety of Spanish are you most familiar with? (e.g., Peruvian, Spanish, Mexican)",At what age did you begin learning Spanish?,Are you proficient in any languages other than English/Spanish?,"Are you familiar with Caribbean (e.g., Caribbean, Puerto Rican) or Galician Spanish?",date,expName,psychopyVersion,OS,frameRate,id,study_id,session,trial_exposure.started,trial_exposure.stopped,key_resp_exposure.keys,key_resp_exposure.corr,key_resp_exposure.rt,key_resp_exposure.duration,key_resp.keys,exposure_loop.thisRepN,exposure_loop.thisTrialN,exposure_loop.thisN,exposure_loop.thisIndex,exposure_loop.ran,item_num,correct_response,question,path,duration,instructions_2afc.started,instructions_2afc.stopped,instructions_2afc_loop.thisRepN,instructions_2afc_loop.thisTrialN,instructions_2afc_loop.thisN,instructions_2afc_loop.thisIndex,instructions_2afc_loop.ran,practice_2afc.started,practice_2afc.stopped,key_resp_2afc_practice.keys,key_resp_2afc_practice.corr,key_resp_2afc_practice.rt,key_resp_2afc_practice.duration,trials_2afc_practice_loop.thisRepN,trials_2afc_practice_loop.thisTrialN,trials_2afc_practice_loop.thisN,trials_2afc_practice_loop.thisIndex,trials_2afc_practice_loop.ran,check_2afc.started,check_2afc.stopped,trial_2afc.started,trial_2afc.stopped,key_resp_2afc_trial.keys,key_resp_2afc_trial.corr,key_resp_2afc_trial.rt,key_resp_2afc_trial.duration,trials_2afc_loop.thisRepN,trials_2afc_loop.thisTrialN,trials_2afc_loop.thisN,trials_2afc_loop.thisIndex,trials_2afc_loop.ran,target,variety,instructions_lextale.started,instructions_lextale.stopped,instructions_lextale_loop.thisRepN,instructions_lextale_loop.thisTrialN,instructions_lextale_loop.thisN,instructions_lextale_loop.thisIndex,instructions_lextale_loop.ran,practice_lextale.started,practice_lextale.stopped,key_resp_lextale_practice.keys,key_resp_lextale_practice.corr,key_resp_lextale_practice.rt,key_resp_lextale_practice.duration,practice_feedback_lextale.started,practice_feedback_lextale.stopped,trials_lextale_practice_loop.thisRepN,trials_lextale_practice_loop.thisTrialN,trials_lextale_practice_loop.thisN,trials_lextale_practice_loop.thisIndex,trials_lextale_practice_loop.ran,stim,word,prac_button_real,prac_button_false,check_lextale.started,check_lextale.stopped,trial_lextale.started,trial_lextale.stopped,key_resp_lextale_trial.keys,key_resp_lextale_trial.corr,key_resp_lextale_trial.rt,key_resp_lextale_trial.duration,trials_lextale_loop.thisRepN,trials_lextale_loop.thisTrialN,trials_lextale_loop.thisN,trials_lextale_loop.thisIndex,trials_lextale_loop.ran,button_real,button_false,instructions_eq.started,instructions_eq.stopped,trial_eq.started,trial_eq.stopped,slider_eq_trial.response,trials_eq_loop.thisRepN,trials_eq_loop.thisTrialN,trials_eq_loop.thisN,trials_eq_loop.thisIndex,trials_eq_loop.ran,item,is_test_item,is_distractor,is_agree_score,is_disagree_score,end_exp.started,end_exp.stopped
0.0219,8.257,0,0,0,0,1,"In the following task, you are going to hear a series of conversations.", (press the space bar to continue),674fa4a78b9d8a734154456f,spanish,13 or older,"no, only English or Spanish",no,2025-08-13_19h22.04.400,empathy_intonation_perc,2024.2.4,Win32,59.88023952,674fa4a78b9d8a734154456f,687ed1b7e638a4cbf2f02089,689d1dfd25d19d0646082ffd,,,,,,,,,,,,,,,,,,,,,,,,,,,,,,,,,,,,,,,,,,,,,,,,,,,,,,,,,,,,,,,,,,,,,,,,,,,,,,,,,,,,,,,,,,,,,,,,,,,,,,,,,,
8.2579,12.3564,0,1,1,1,1,It is okay if you don't not 100% understand them!, (press the space bar to continue),674fa4a78b9d8a734154456f,spanish,13 or older,"no, only English or Spanish",no,2025-08-13_19h22.04.400,empathy_intonation_perc,2024.2.4,Win32,59.88023952,674fa4a78b9d8a734154456f,687ed1b7e638a4cbf2f02089,689d1dfd25d19d0646082ffd,,,,,,,,,,,,,,,,,,,,,,,,,,,,,,,,,,,,,,,,,,,,,,,,,,,,,,,,,,,,,,,,,,,,,,,,,,,,,,,,,,,,,,,,,,,,,,,,,,,,,,,,,,
12.3589,14.6723,0,2,2,2,1,"After, you will read a sentence about the conversation and decide if it's true or false.", (press the space bar to continue),674fa4a78b9d8a734154456f,spanish,13 or older,"no, only English or Spanish",no,2025-08-13_19h22.04.400,empathy_intonation_perc,2024.2.4,Win32,59.88023952,674fa4a78b9d8a734154456f,687ed1b7e638a4cbf2f02089,689d1dfd25d19d0646082ffd,,,,,,,,,,,,,,,,,,,,,,,,,,,,,,,,,,,,,,,,,,,,,,,,,,,,,,,,,,,,,,,,,,,,,,,,,,,,,,,,,,,,,,,,,,,,,,,,,,,,,,,,,,
14.6746,16.573,0,3,3,3,1,"If it's true, press '1' (True) and if it's false press '0' (False).", (press the space bar to continue),674fa4a78b9d8a734154456f,spanish,13 or older,"no, only English or Spanish",no,2025-08-13_19h22.04.400,empathy_intonation_perc,2024.2.4,Win32,59.88023952,674fa4a78b9d8a734154456f,687ed1b7e638a4cbf2f02089,689d1dfd25d19d0646082ffd,,,,,,,,,,,,,,,,,,,,,,,,,,,,,,,,,,,,,,,,,,,,,,,,,,,,,,,,,,,,,,,,,,,,,,,,,,,,,,,,,,,,,,,,,,,,,,,,,,,,,,,,,,
,,,,,,,,,674fa4a78b9d8a734154456f,spanish,13 or older,"no, only English or Spanish",no,2025-08-13_19h22.04.400,empathy_intonation_perc,2024.2.4,Win32,59.88023952,674fa4a78b9d8a734154456f,687ed1b7e638a4cbf2f02089,689d1dfd25d19d0646082ffd,16.5809,56.4222,1,0,3.7883,,,0,0,0,2,1,3,0,The mom already has rice.,./stim/exposure_wavs/pr_stimuli_convo.wav,36,,,,,,,,,,,,,,,,,,,,,,,,,,,,,,,,,,,,,,,,,,,,,,,,,,,,,,,,,,,,,,,,,,,,,,,,,,,,,,,,,,,,,,,,,
,,,,,,,,,674fa4a78b9d8a734154456f,spanish,13 or older,"no, only English or Spanish",no,2025-08-13_19h22.04.400,empathy_intonation_perc,2024.2.4,Win32,59.88023952,674fa4a78b9d8a734154456f,687ed1b7e638a4cbf2f02089,689d1dfd25d19d0646082ffd,56.4261,123.0375,1,1,6.576,,,0,1,1,1,1,2,1,The mom asked the daughter if she already went to the supermarket.,./stim/exposure_wavs/dr_stimuli_convo.wav,60,,,,,,,,,,,,,,,,,,,,,,,,,,,,,,,,,,,,,,,,,,,,,,,,,,,,,,,,,,,,,,,,,,,,,,,,,,,,,,,,,,,,,,,,,
,,,,,,,,,674fa4a78b9d8a734154456f,spanish,13 or older,"no, only English or Spanish",no,2025-08-13_19h22.04.400,empathy_intonation_perc,2024.2.4,Win32,59.88023952,674fa4a78b9d8a734154456f,687ed1b7e638a4cbf2f02089,689d1dfd25d19d0646082ffd,123.0399,174.7866,0,0,4.7196,,,0,2,2,0,1,1,1,The son asked the mom if Aunt Marina is okay.,./stim/exposure_wavs/ga_stimuli_convo.wav,47,,,,,,,,,,,,,,,,,,,,,,,,,,,,,,,,,,,,,,,,,,,,,,,,,,,,,,,,,,,,,,,,,,,,,,,,,,,,,,,,,,,,,,,,,
,,,,,,,"In the following task you are going to hear a series of utterances. 

  You will decide if the utterances sound like questions or not using your keyboard.", (press the spacebar to continue),674fa4a78b9d8a734154456f,spanish,13 or older,"no, only English or Spanish",no,2025-08-13_19h22.04.400,empathy_intonation_perc,2024.2.4,Win32,59.88023952,674fa4a78b9d8a734154456f,687ed1b7e638a4cbf2f02089,689d1dfd25d19d0646082ffd,,,,,,,,,,,,,,,,,,174.7915,180.5198,0,0,0,0,1,,,,,,,,,,,,,,,,,,,,,,,,,,,,,,,,,,,,,,,,,,,,,,,,,,,,,,,,,,,,,,,,,,,,,,,,,,,,,,,,,,
,,,,,,,"If you believe the utterance is a question, type '1' (for 'yes') and if you do not 
  believe it is a question type '0' (for 'no').

  Let's practice a bit...", (press the spacebar to continue),674fa4a78b9d8a734154456f,spanish,13 or older,"no, only English or Spanish",no,2025-08-13_19h22.04.400,empathy_intonation_perc,2024.2.4,Win32,59.88023952,674fa4a78b9d8a734154456f,687ed1b7e638a4cbf2f02089,689d1dfd25d19d0646082ffd,,,,,,,,,,,,,,,,,,180.5224,182.6699,0,1,1,1,1,,,,,,,,,,,,,,,,,,,,,,,,,,,,,,,,,,,,,,,,,,,,,,,,,,,,,,,,,,,,,,,,,,,,,,,,,,,,,,,,,,
,,,,,,,,,674fa4a78b9d8a734154456f,spanish,13 or older,"no, only English or Spanish",no,2025-08-13_19h22.04.400,empathy_intonation_perc,2024.2.4,Win32,59.88023952,674fa4a78b9d8a734154456f,687ed1b7e638a4cbf2f02089,689d1dfd25d19d0646082ffd,,,,,,,,,,,,,,0,,./stim/wavs/peruvian_statement_filler_El-nino-habla-con-su-madre.wav,,,,,,,,,182.6769,186.0863,0,1,2.8936,,0,0,0,6,1,,,,,,,,,,,,,,,,,,,,,,,,,,,,,,,,,,,,,,,,,,,,,,,,,,,,,,,,,,,,,,,,,,,,,,,
,,,,,,,,,674fa4a78b9d8a734154456f,spanish,13 or older,"no, only English or Spanish",no,2025-08-13_19h22.04.400,empathy_intonation_perc,2024.2.4,Win32,59.88023952,674fa4a78b9d8a734154456f,687ed1b7e638a4cbf2f02089,689d1dfd25d19d0646082ffd,,,,,,,,,,,,,,1,,./stim/wavs/mexican_question_filler_Felipe-no-tiene-contrasena.wav,,,,,,,,,186.087,188.4366,1,1,1.8171,,0,1,1,3,1,,,,,,,,,,,,,,,,,,,,,,,,,,,,,,,,,,,,,,,,,,,,,,,,,,,,,,,,,,,,,,,,,,,,,,,
,,,,,,,,,674fa4a78b9d8a734154456f,spanish,13 or older,"no, only English or Spanish",no,2025-08-13_19h22.04.400,empathy_intonation_perc,2024.2.4,Win32,59.88023952,674fa4a78b9d8a734154456f,687ed1b7e638a4cbf2f02089,689d1dfd25d19d0646082ffd,,,,,,,,,,,,,,1,,./stim/wavs/chilean_question_filler_Mi-padre-cantaba-bien.wav,,,,,,,,,188.4376,190.8196,0,0,1.856,,0,2,2,2,1,,,,,,,,,,,,,,,,,,,,,,,,,,,,,,,,,,,,,,,,,,,,,,,,,,,,,,,,,,,,,,,,,,,,,,,
,,,,,,,,,674fa4a78b9d8a734154456f,spanish,13 or older,"no, only English or Spanish",no,2025-08-13_19h22.04.400,empathy_intonation_perc,2024.2.4,Win32,59.88023952,674fa4a78b9d8a734154456f,687ed1b7e638a4cbf2f02089,689d1dfd25d19d0646082ffd,,,,,,,,,,,,,,0,,./stim/wavs/cuban_statement_filler_Cocinabas-por-la-noche.wav,,,,,,,,,190.8206,193.0195,0,1,1.6715,,0,3,3,4,1,,,,,,,,,,,,,,,,,,,,,,,,,,,,,,,,,,,,,,,,,,,,,,,,,,,,,,,,,,,,,,,,,,,,,,,
,,,,,,,,,674fa4a78b9d8a734154456f,spanish,13 or older,"no, only English or Spanish",no,2025-08-13_19h22.04.400,empathy_intonation_perc,2024.2.4,Win32,59.88023952,674fa4a78b9d8a734154456f,687ed1b7e638a4cbf2f02089,689d1dfd25d19d0646082ffd,,,,,,,,,,,,,,1,,./stim/wavs/castilian_question_filler_Mi-esposo-conoce-al-chico.wav,,,,,,,,,193.0203,196.1195,0,0,2.5731,,0,4,4,0,1,,,,,,,,,,,,,,,,,,,,,,,,,,,,,,,,,,,,,,,,,,,,,,,,,,,,,,,,,,,,,,,,,,,,,,,
,,,,,,,,,674fa4a78b9d8a734154456f,spanish,13 or older,"no, only English or Spanish",no,2025-08-13_19h22.04.400,empathy_intonation_perc,2024.2.4,Win32,59.88023952,674fa4a78b9d8a734154456f,687ed1b7e638a4cbf2f02089,689d1dfd25d19d0646082ffd,,,,,,,,,,,,,,0,,./stim/wavs/andalusian_statement_filler_Alberto-nunca-se-afeita.wav,,,,,,,,,196.1203,198.3857,0,1,1.7372,,0,5,5,5,1,,,,,,,,,,,,,,,,,,,,,,,,,,,,,,,,,,,,,,,,,,,,,,,,,,,,,,,,,,,,,,,,,,,,,,,
,,,,,,,,,674fa4a78b9d8a734154456f,spanish,13 or older,"no, only English or Spanish",no,2025-08-13_19h22.04.400,empathy_intonation_perc,2024.2.4,Win32,59.88023952,674fa4a78b9d8a734154456f,687ed1b7e638a4cbf2f02089,689d1dfd25d19d0646082ffd,,,,,,,,,,,,,,0,,./stim/wavs/puertorican_statement_filler_La-nina-pinta-con-su-amiga.wav,,,,,,,,,198.3865,200.6689,1,0,1.7614,,0,6,6,7,1,,,,,,,,,,,,,,,,,,,,,,,,,,,,,,,,,,,,,,,,,,,,,,,,,,,,,,,,,,,,,,,,,,,,,,,
,,,,,,,,,674fa4a78b9d8a734154456f,spanish,13 or older,"no, only English or Spanish",no,2025-08-13_19h22.04.400,empathy_intonation_perc,2024.2.4,Win32,59.88023952,674fa4a78b9d8a734154456f,687ed1b7e638a4cbf2f02089,689d1dfd25d19d0646082ffd,,,,,,,,,,,,,,1,,./stim/wavs/argentine_question_filler_Mi-vecino-habla-mucho.wav,,,,,,,,,200.6696,203.1527,1,1,1.9594,,0,7,7,1,1,,,,,,,,,,,,,,,,,,,,,,,,,,,,,,,,,,,,,,,,,,,,,,,,,,,,,,,,,,,,,,,,,,,,,,,
,,,,,,,,,674fa4a78b9d8a734154456f,spanish,13 or older,"no, only English or Spanish",no,2025-08-13_19h22.04.400,empathy_intonation_perc,2024.2.4,Win32,59.88023952,674fa4a78b9d8a734154456f,687ed1b7e638a4cbf2f02089,689d1dfd25d19d0646082ffd,,,,,,,,,,,,,,,,,,,,,,,,,,,,,,,,,,,,203.1532,207.7362,,,,,,,,,,,,,,,,,,,,,,,,,,,,,,,,,,,,,,,,,,,,,,,,,,,,,,,,,,,,,,,,,,,,,
,,,,,,,,,674fa4a78b9d8a734154456f,spanish,13 or older,"no, only English or Spanish",no,2025-08-13_19h22.04.400,empathy_intonation_perc,2024.2.4,Win32,59.88023952,674fa4a78b9d8a734154456f,687ed1b7e638a4cbf2f02089,689d1dfd25d19d0646082ffd,,,,,,,,,,,,,77,0,,./stim/wavs/cuban_mismatch_declarative-broad-focus_Mi-novio-viene-del-lago.wav,,,,,,,,,,,,,,,,,,,,,,207.7438,210.7025,0,1,2.4337,,0,0,0,76,1,0,cuban,,,,,,,,,,,,,,,,,,,,,,,,,,,,,,,,,,,,,,,,,,,,,,,,,,,,,,,,
,,,,,,,,,674fa4a78b9d8a734154456f,spanish,13 or older,"no, only English or Spanish",no,2025-08-13_19h22.04.400,empathy_intonation_perc,2024.2.4,Win32,59.88023952,674fa4a78b9d8a734154456f,687ed1b7e638a4cbf2f02089,689d1dfd25d19d0646082ffd,,,,,,,,,,,,,83,0,,./stim/wavs/mexican_mismatch_declarative-broad-focus_Mi-tia-odia-la-lluvia.wav,,,,,,,,,,,,,,,,,,,,,,210.7035,212.8193,0,1,1.5873,,0,1,1,82,1,0,mexican,,,,,,,,,,,,,,,,,,,,,,,,,,,,,,,,,,,,,,,,,,,,,,,,,,,,,,,,
,,,,,,,,,674fa4a78b9d8a734154456f,spanish,13 or older,"no, only English or Spanish",no,2025-08-13_19h22.04.400,empathy_intonation_perc,2024.2.4,Win32,59.88023952,674fa4a78b9d8a734154456f,687ed1b7e638a4cbf2f02089,689d1dfd25d19d0646082ffd,,,,,,,,,,,,,36,1,,./stim/wavs/mexican_mismatch_interrogative-total-yn_El-nino-oye-el-rio.wav,,,,,,,,,,,,,,,,,,,,,,212.82,214.852,1,1,1.5097,,0,2,2,35,1,0,mexican,,,,,,,,,,,,,,,,,,,,,,,,,,,,,,,,,,,,,,,,,,,,,,,,,,,,,,,,
,,,,,,,,,674fa4a78b9d8a734154456f,spanish,13 or older,"no, only English or Spanish",no,2025-08-13_19h22.04.400,empathy_intonation_perc,2024.2.4,Win32,59.88023952,674fa4a78b9d8a734154456f,687ed1b7e638a4cbf2f02089,689d1dfd25d19d0646082ffd,,,,,,,,,,,,,29,1,,./stim/wavs/castilian_mismatch_interrogative-total-yn_Mi-tia-odia-la-lluvia.wav,,,,,,,,,,,,,,,,,,,,,,214.8527,217.0021,1,1,1.6187,,0,3,3,28,1,0,castilian,,,,,,,,,,,,,,,,,,,,,,,,,,,,,,,,,,,,,,,,,,,,,,,,,,,,,,,,
,,,,,,,,,674fa4a78b9d8a734154456f,spanish,13 or older,"no, only English or Spanish",no,2025-08-13_19h22.04.400,empathy_intonation_perc,2024.2.4,Win32,59.88023952,674fa4a78b9d8a734154456f,687ed1b7e638a4cbf2f02089,689d1dfd25d19d0646082ffd,,,,,,,,,,,,,34,1,,./stim/wavs/cuban_mismatch_interrogative-total-yn_Mi-tia-odia-la-lluvia.wav,,,,,,,,,,,,,,,,,,,,,,217.0028,218.8856,1,1,1.3502,,0,4,4,33,1,1,cuban,,,,,,,,,,,,,,,,,,,,,,,,,,,,,,,,,,,,,,,,,,,,,,,,,,,,,,,,
,,,,,,,,,674fa4a78b9d8a734154456f,spanish,13 or older,"no, only English or Spanish",no,2025-08-13_19h22.04.400,empathy_intonation_perc,2024.2.4,Win32,59.88023952,674fa4a78b9d8a734154456f,687ed1b7e638a4cbf2f02089,689d1dfd25d19d0646082ffd,,,,,,,,,,,,,10,1,,./stim/wavs/cuban_match_interrogative-total-yn_Maria-bebe-el-vino.wav,,,,,,,,,,,,,,,,,,,,,,218.8865,221.4853,1,1,2.0785,,0,5,5,9,1,1,cuban,,,,,,,,,,,,,,,,,,,,,,,,,,,,,,,,,,,,,,,,,,,,,,,,,,,,,,,,
,,,,,,,,,674fa4a78b9d8a734154456f,spanish,13 or older,"no, only English or Spanish",no,2025-08-13_19h22.04.400,empathy_intonation_perc,2024.2.4,Win32,59.88023952,674fa4a78b9d8a734154456f,687ed1b7e638a4cbf2f02089,689d1dfd25d19d0646082ffd,,,,,,,,,,,,,61,0,,./stim/wavs/mexican_match_declarative-broad-focus_Mariano-habla-del-tiempo.wav,,,,,,,,,,,,,,,,,,,,,,221.4861,223.6854,0,1,1.6646,,0,6,6,60,1,0,mexican,,,,,,,,,,,,,,,,,,,,,,,,,,,,,,,,,,,,,,,,,,,,,,,,,,,,,,,,
,,,,,,,,,674fa4a78b9d8a734154456f,spanish,13 or older,"no, only English or Spanish",no,2025-08-13_19h22.04.400,empathy_intonation_perc,2024.2.4,Win32,59.88023952,674fa4a78b9d8a734154456f,687ed1b7e638a4cbf2f02089,689d1dfd25d19d0646082ffd,,,,,,,,,,,,,45,0,,./stim/wavs/castilian_match_declarative-broad-focus_David-leia-el-libro.wav,,,,,,,,,,,,,,,,,,,,,,223.6861,226.3354,0,1,2.1244,,0,7,7,44,1,0,castilian,,,,,,,,,,,,,,,,,,,,,,,,,,,,,,,,,,,,,,,,,,,,,,,,,,,,,,,,
,,,,,,,,,674fa4a78b9d8a734154456f,spanish,13 or older,"no, only English or Spanish",no,2025-08-13_19h22.04.400,empathy_intonation_perc,2024.2.4,Win32,59.88023952,674fa4a78b9d8a734154456f,687ed1b7e638a4cbf2f02089,689d1dfd25d19d0646082ffd,,,,,,,,,,,,,17,1,,./stim/wavs/mexican_match_interrogative-total-yn_Mariano-habla-del-tiempo.wav,,,,,,,,,,,,,,,,,,,,,,226.3361,229.0854,1,1,2.2173,,0,8,8,16,1,0,mexican,,,,,,,,,,,,,,,,,,,,,,,,,,,,,,,,,,,,,,,,,,,,,,,,,,,,,,,,
,,,,,,,,,674fa4a78b9d8a734154456f,spanish,13 or older,"no, only English or Spanish",no,2025-08-13_19h22.04.400,empathy_intonation_perc,2024.2.4,Win32,59.88023952,674fa4a78b9d8a734154456f,687ed1b7e638a4cbf2f02089,689d1dfd25d19d0646082ffd,,,,,,,,,,,,,15,1,,./stim/wavs/mexican_match_interrogative-total-yn_David-leia-el-libro.wav,,,,,,,,,,,,,,,,,,,,,,229.0863,231.3518,1,1,1.734,,0,9,9,14,1,0,mexican,,,,,,,,,,,,,,,,,,,,,,,,,,,,,,,,,,,,,,,,,,,,,,,,,,,,,,,,
,,,,,,,,,674fa4a78b9d8a734154456f,spanish,13 or older,"no, only English or Spanish",no,2025-08-13_19h22.04.400,empathy_intonation_perc,2024.2.4,Win32,59.88023952,674fa4a78b9d8a734154456f,687ed1b7e638a4cbf2f02089,689d1dfd25d19d0646082ffd,,,,,,,,,,,,,80,0,,./stim/wavs/mexican_mismatch_declarative-broad-focus_El-hombre-mira-la-luna.wav,,,,,,,,,,,,,,,,,,,,,,231.3526,233.5684,0,1,1.6887,,0,10,10,79,1,0,mexican,,,,,,,,,,,,,,,,,,,,,,,,,,,,,,,,,,,,,,,,,,,,,,,,,,,,,,,,
,,,,,,,,,674fa4a78b9d8a734154456f,spanish,13 or older,"no, only English or Spanish",no,2025-08-13_19h22.04.400,empathy_intonation_perc,2024.2.4,Win32,59.88023952,674fa4a78b9d8a734154456f,687ed1b7e638a4cbf2f02089,689d1dfd25d19d0646082ffd,,,,,,,,,,,,,54,0,,./stim/wavs/cuban_match_declarative-broad-focus_Maria-bebe-el-vino.wav,,,,,,,,,,,,,,,,,,,,,,233.5691,235.7688,0,1,1.6746,,0,11,11,53,1,0,cuban,,,,,,,,,,,,,,,,,,,,,,,,,,,,,,,,,,,,,,,,,,,,,,,,,,,,,,,,
,,,,,,,,,674fa4a78b9d8a734154456f,spanish,13 or older,"no, only English or Spanish",no,2025-08-13_19h22.04.400,empathy_intonation_perc,2024.2.4,Win32,59.88023952,674fa4a78b9d8a734154456f,687ed1b7e638a4cbf2f02089,689d1dfd25d19d0646082ffd,,,,,,,,,,,,,46,0,,./stim/wavs/castilian_match_declarative-broad-focus_Emilio-ama-la-marcha.wav,,,,,,,,,,,,,,,,,,,,,,235.7695,238.185,1,0,1.8854,,0,12,12,45,1,0,castilian,,,,,,,,,,,,,,,,,,,,,,,,,,,,,,,,,,,,,,,,,,,,,,,,,,,,,,,,
,,,,,,,,,674fa4a78b9d8a734154456f,spanish,13 or older,"no, only English or Spanish",no,2025-08-13_19h22.04.400,empathy_intonation_perc,2024.2.4,Win32,59.88023952,674fa4a78b9d8a734154456f,687ed1b7e638a4cbf2f02089,689d1dfd25d19d0646082ffd,,,,,,,,,,,,,87,0,,./stim/wavs/puertorican_mismatch_declarative-broad-focus_La-maestra-vive-en-Paris.wav,,,,,,,,,,,,,,,,,,,,,,238.1856,240.3851,0,1,1.6741,,0,13,13,86,1,0,puertorican,,,,,,,,,,,,,,,,,,,,,,,,,,,,,,,,,,,,,,,,,,,,,,,,,,,,,,,,
,,,,,,,,,674fa4a78b9d8a734154456f,spanish,13 or older,"no, only English or Spanish",no,2025-08-13_19h22.04.400,empathy_intonation_perc,2024.2.4,Win32,59.88023952,674fa4a78b9d8a734154456f,687ed1b7e638a4cbf2f02089,689d1dfd25d19d0646082ffd,,,,,,,,,,,,,1,1,,./stim/wavs/castilian_match_interrogative-total-yn_David-leia-el-libro.wav,,,,,,,,,,,,,,,,,,,,,,240.386,242.7347,1,1,1.8279,,0,14,14,0,1,0,castilian,,,,,,,,,,,,,,,,,,,,,,,,,,,,,,,,,,,,,,,,,,,,,,,,,,,,,,,,
,,,,,,,,,674fa4a78b9d8a734154456f,spanish,13 or older,"no, only English or Spanish",no,2025-08-13_19h22.04.400,empathy_intonation_perc,2024.2.4,Win32,59.88023952,674fa4a78b9d8a734154456f,687ed1b7e638a4cbf2f02089,689d1dfd25d19d0646082ffd,,,,,,,,,,,,,86,0,,./stim/wavs/puertorican_mismatch_declarative-broad-focus_El-nino-oye-el-rio.wav,,,,,,,,,,,,,,,,,,,,,,242.7355,244.9184,1,0,1.6507,,0,15,15,85,1,0,puertorican,,,,,,,,,,,,,,,,,,,,,,,,,,,,,,,,,,,,,,,,,,,,,,,,,,,,,,,,
,,,,,,,,,674fa4a78b9d8a734154456f,spanish,13 or older,"no, only English or Spanish",no,2025-08-13_19h22.04.400,empathy_intonation_perc,2024.2.4,Win32,59.88023952,674fa4a78b9d8a734154456f,687ed1b7e638a4cbf2f02089,689d1dfd25d19d0646082ffd,,,,,,,,,,,,,19,1,,./stim/wavs/puertorican_match_interrogative-total-yn_Ana-lleva-el-abrigo.wav,,,,,,,,,,,,,,,,,,,,,,244.9192,246.5679,1,1,1.1274,,0,16,16,18,1,1,puertorican,,,,,,,,,,,,,,,,,,,,,,,,,,,,,,,,,,,,,,,,,,,,,,,,,,,,,,,,
,,,,,,,,,674fa4a78b9d8a734154456f,spanish,13 or older,"no, only English or Spanish",no,2025-08-13_19h22.04.400,empathy_intonation_perc,2024.2.4,Win32,59.88023952,674fa4a78b9d8a734154456f,687ed1b7e638a4cbf2f02089,689d1dfd25d19d0646082ffd,,,,,,,,,,,,,79,0,,./stim/wavs/mexican_mismatch_declarative-broad-focus_El-bebe-comia-muy-bien.wav,,,,,,,,,,,,,,,,,,,,,,246.5686,248.9012,0,1,1.8042,,0,17,17,78,1,0,mexican,,,,,,,,,,,,,,,,,,,,,,,,,,,,,,,,,,,,,,,,,,,,,,,,,,,,,,,,
,,,,,,,,,674fa4a78b9d8a734154456f,spanish,13 or older,"no, only English or Spanish",no,2025-08-13_19h22.04.400,empathy_intonation_perc,2024.2.4,Win32,59.88023952,674fa4a78b9d8a734154456f,687ed1b7e638a4cbf2f02089,689d1dfd25d19d0646082ffd,,,,,,,,,,,,,22,1,,./stim/wavs/puertorican_match_interrogative-total-yn_Emilio-ama-la-marcha.wav,,,,,,,,,,,,,,,,,,,,,,248.9018,251.3013,0,0,1.8666,,0,18,18,21,1,1,puertorican,,,,,,,,,,,,,,,,,,,,,,,,,,,,,,,,,,,,,,,,,,,,,,,,,,,,,,,,
,,,,,,,,,674fa4a78b9d8a734154456f,spanish,13 or older,"no, only English or Spanish",no,2025-08-13_19h22.04.400,empathy_intonation_perc,2024.2.4,Win32,59.88023952,674fa4a78b9d8a734154456f,687ed1b7e638a4cbf2f02089,689d1dfd25d19d0646082ffd,,,,,,,,,,,,,21,1,,./stim/wavs/puertorican_match_interrogative-total-yn_David-leia-el-libro.wav,,,,,,,,,,,,,,,,,,,,,,251.3018,253.6676,0,0,1.8382,,0,19,19,20,1,1,puertorican,,,,,,,,,,,,,,,,,,,,,,,,,,,,,,,,,,,,,,,,,,,,,,,,,,,,,,,,
,,,,,,,,,674fa4a78b9d8a734154456f,spanish,13 or older,"no, only English or Spanish",no,2025-08-13_19h22.04.400,empathy_intonation_perc,2024.2.4,Win32,59.88023952,674fa4a78b9d8a734154456f,687ed1b7e638a4cbf2f02089,689d1dfd25d19d0646082ffd,,,,,,,,,,,,,12,1,,./stim/wavs/cuban_match_interrogative-total-yn_Marta-abre-el-regalo.wav,,,,,,,,,,,,,,,,,,,,,,253.668,255.8349,0,0,1.6618,,0,20,20,11,1,1,cuban,,,,,,,,,,,,,,,,,,,,,,,,,,,,,,,,,,,,,,,,,,,,,,,,,,,,,,,,
,,,,,,,,,674fa4a78b9d8a734154456f,spanish,13 or older,"no, only English or Spanish",no,2025-08-13_19h22.04.400,empathy_intonation_perc,2024.2.4,Win32,59.88023952,674fa4a78b9d8a734154456f,687ed1b7e638a4cbf2f02089,689d1dfd25d19d0646082ffd,,,,,,,,,,,,,75,0,,./stim/wavs/cuban_mismatch_declarative-broad-focus_El-hombre-mira-la-luna.wav,,,,,,,,,,,,,,,,,,,,,,255.8357,257.9183,1,0,1.5556,,0,21,21,74,1,0,cuban,,,,,,,,,,,,,,,,,,,,,,,,,,,,,,,,,,,,,,,,,,,,,,,,,,,,,,,,
,,,,,,,,,674fa4a78b9d8a734154456f,spanish,13 or older,"no, only English or Spanish",no,2025-08-13_19h22.04.400,empathy_intonation_perc,2024.2.4,Win32,59.88023952,674fa4a78b9d8a734154456f,687ed1b7e638a4cbf2f02089,689d1dfd25d19d0646082ffd,,,,,,,,,,,,,47,0,,./stim/wavs/castilian_match_declarative-broad-focus_Manuela-vende-el-carro.wav,,,,,,,,,,,,,,,,,,,,,,257.9189,260.5849,1,0,2.1351,,0,22,22,46,1,0,castilian,,,,,,,,,,,,,,,,,,,,,,,,,,,,,,,,,,,,,,,,,,,,,,,,,,,,,,,,
,,,,,,,,,674fa4a78b9d8a734154456f,spanish,13 or older,"no, only English or Spanish",no,2025-08-13_19h22.04.400,empathy_intonation_perc,2024.2.4,Win32,59.88023952,674fa4a78b9d8a734154456f,687ed1b7e638a4cbf2f02089,689d1dfd25d19d0646082ffd,,,,,,,,,,,,,2,1,,./stim/wavs/castilian_match_interrogative-total-yn_Emilio-ama-la-marcha.wav,,,,,,,,,,,,,,,,,,,,,,260.5856,263.0846,1,1,1.976,,0,23,23,1,1,0,castilian,,,,,,,,,,,,,,,,,,,,,,,,,,,,,,,,,,,,,,,,,,,,,,,,,,,,,,,,
,,,,,,,,,674fa4a78b9d8a734154456f,spanish,13 or older,"no, only English or Spanish",no,2025-08-13_19h22.04.400,empathy_intonation_perc,2024.2.4,Win32,59.88023952,674fa4a78b9d8a734154456f,687ed1b7e638a4cbf2f02089,689d1dfd25d19d0646082ffd,,,,,,,,,,,,,26,1,,./stim/wavs/castilian_mismatch_interrogative-total-yn_La-nina-lava-el-plato.wav,,,,,,,,,,,,,,,,,,,,,,263.0852,265.2681,1,1,1.6587,,0,24,24,25,1,0,castilian,,,,,,,,,,,,,,,,,,,,,,,,,,,,,,,,,,,,,,,,,,,,,,,,,,,,,,,,
,,,,,,,,,674fa4a78b9d8a734154456f,spanish,13 or older,"no, only English or Spanish",no,2025-08-13_19h22.04.400,empathy_intonation_perc,2024.2.4,Win32,59.88023952,674fa4a78b9d8a734154456f,687ed1b7e638a4cbf2f02089,689d1dfd25d19d0646082ffd,,,,,,,,,,,,,40,1,,./stim/wavs/puertorican_mismatch_interrogative-total-yn_El-hombre-mira-la-luna.wav,,,,,,,,,,,,,,,,,,,,,,265.2687,267.4178,1,1,1.6231,,0,25,25,39,1,1,puertorican,,,,,,,,,,,,,,,,,,,,,,,,,,,,,,,,,,,,,,,,,,,,,,,,,,,,,,,,
,,,,,,,,,674fa4a78b9d8a734154456f,spanish,13 or older,"no, only English or Spanish",no,2025-08-13_19h22.04.400,empathy_intonation_perc,2024.2.4,Win32,59.88023952,674fa4a78b9d8a734154456f,687ed1b7e638a4cbf2f02089,689d1dfd25d19d0646082ffd,,,,,,,,,,,,,50,0,,./stim/wavs/castilian_match_declarative-broad-focus_Marta-abre-el-regalo.wav,,,,,,,,,,,,,,,,,,,,,,267.4185,269.5346,0,1,1.59,,0,26,26,49,1,0,castilian,,,,,,,,,,,,,,,,,,,,,,,,,,,,,,,,,,,,,,,,,,,,,,,,,,,,,,,,
,,,,,,,,,674fa4a78b9d8a734154456f,spanish,13 or older,"no, only English or Spanish",no,2025-08-13_19h22.04.400,empathy_intonation_perc,2024.2.4,Win32,59.88023952,674fa4a78b9d8a734154456f,687ed1b7e638a4cbf2f02089,689d1dfd25d19d0646082ffd,,,,,,,,,,,,,65,0,,./stim/wavs/puertorican_match_declarative-broad-focus_David-leia-el-libro.wav,,,,,,,,,,,,,,,,,,,,,,269.5352,271.4842,0,1,1.4171,,0,27,27,64,1,0,puertorican,,,,,,,,,,,,,,,,,,,,,,,,,,,,,,,,,,,,,,,,,,,,,,,,,,,,,,,,
,,,,,,,,,674fa4a78b9d8a734154456f,spanish,13 or older,"no, only English or Spanish",no,2025-08-13_19h22.04.400,empathy_intonation_perc,2024.2.4,Win32,59.88023952,674fa4a78b9d8a734154456f,687ed1b7e638a4cbf2f02089,689d1dfd25d19d0646082ffd,,,,,,,,,,,,,81,0,,./stim/wavs/mexican_mismatch_declarative-broad-focus_La-maestra-vive-en-Paris.wav,,,,,,,,,,,,,,,,,,,,,,271.4848,273.7179,0,1,1.7025,,0,28,28,80,1,0,mexican,,,,,,,,,,,,,,,,,,,,,,,,,,,,,,,,,,,,,,,,,,,,,,,,,,,,,,,,
,,,,,,,,,674fa4a78b9d8a734154456f,spanish,13 or older,"no, only English or Spanish",no,2025-08-13_19h22.04.400,empathy_intonation_perc,2024.2.4,Win32,59.88023952,674fa4a78b9d8a734154456f,687ed1b7e638a4cbf2f02089,689d1dfd25d19d0646082ffd,,,,,,,,,,,,,13,1,,./stim/wavs/mexican_match_interrogative-total-yn_Ana-lleva-el-abrigo.wav,,,,,,,,,,,,,,,,,,,,,,273.7185,275.8507,1,1,1.6112,,0,29,29,12,1,0,mexican,,,,,,,,,,,,,,,,,,,,,,,,,,,,,,,,,,,,,,,,,,,,,,,,,,,,,,,,
,,,,,,,,,674fa4a78b9d8a734154456f,spanish,13 or older,"no, only English or Spanish",no,2025-08-13_19h22.04.400,empathy_intonation_perc,2024.2.4,Win32,59.88023952,674fa4a78b9d8a734154456f,687ed1b7e638a4cbf2f02089,689d1dfd25d19d0646082ffd,,,,,,,,,,,,,39,1,,./stim/wavs/mexican_mismatch_interrogative-total-yn_Mi-tia-odia-la-lluvia.wav,,,,,,,,,,,,,,,,,,,,,,275.8514,277.8513,1,1,1.466,,0,30,30,38,1,0,mexican,,,,,,,,,,,,,,,,,,,,,,,,,,,,,,,,,,,,,,,,,,,,,,,,,,,,,,,,
,,,,,,,,,674fa4a78b9d8a734154456f,spanish,13 or older,"no, only English or Spanish",no,2025-08-13_19h22.04.400,empathy_intonation_perc,2024.2.4,Win32,59.88023952,674fa4a78b9d8a734154456f,687ed1b7e638a4cbf2f02089,689d1dfd25d19d0646082ffd,,,,,,,,,,,,,74,0,,./stim/wavs/cuban_mismatch_declarative-broad-focus_El-bebe-comia-muy-bien.wav,,,,,,,,,,,,,,,,,,,,,,277.852,280.0512,0,1,1.6673,,0,31,31,73,1,0,cuban,,,,,,,,,,,,,,,,,,,,,,,,,,,,,,,,,,,,,,,,,,,,,,,,,,,,,,,,
,,,,,,,,,674fa4a78b9d8a734154456f,spanish,13 or older,"no, only English or Spanish",no,2025-08-13_19h22.04.400,empathy_intonation_perc,2024.2.4,Win32,59.88023952,674fa4a78b9d8a734154456f,687ed1b7e638a4cbf2f02089,689d1dfd25d19d0646082ffd,,,,,,,,,,,,,66,0,,./stim/wavs/puertorican_match_declarative-broad-focus_Emilio-ama-la-marcha.wav,,,,,,,,,,,,,,,,,,,,,,280.0518,282.2343,0,1,1.6567,,0,32,32,65,1,0,puertorican,,,,,,,,,,,,,,,,,,,,,,,,,,,,,,,,,,,,,,,,,,,,,,,,,,,,,,,,
,,,,,,,,,674fa4a78b9d8a734154456f,spanish,13 or older,"no, only English or Spanish",no,2025-08-13_19h22.04.400,empathy_intonation_perc,2024.2.4,Win32,59.88023952,674fa4a78b9d8a734154456f,687ed1b7e638a4cbf2f02089,689d1dfd25d19d0646082ffd,,,,,,,,,,,,,35,1,,./stim/wavs/mexican_mismatch_interrogative-total-yn_El-hombre-mira-la-luna.wav,,,,,,,,,,,,,,,,,,,,,,282.2352,284.3504,1,1,1.5945,,0,33,33,34,1,0,mexican,,,,,,,,,,,,,,,,,,,,,,,,,,,,,,,,,,,,,,,,,,,,,,,,,,,,,,,,
,,,,,,,,,674fa4a78b9d8a734154456f,spanish,13 or older,"no, only English or Spanish",no,2025-08-13_19h22.04.400,empathy_intonation_perc,2024.2.4,Win32,59.88023952,674fa4a78b9d8a734154456f,687ed1b7e638a4cbf2f02089,689d1dfd25d19d0646082ffd,,,,,,,,,,,,,30,1,,./stim/wavs/cuban_mismatch_interrogative-total-yn_El-hombre-mira-la-luna.wav,,,,,,,,,,,,,,,,,,,,,,284.3508,286.2512,1,1,1.3677,,0,34,34,29,1,1,cuban,,,,,,,,,,,,,,,,,,,,,,,,,,,,,,,,,,,,,,,,,,,,,,,,,,,,,,,,
,,,,,,,,,674fa4a78b9d8a734154456f,spanish,13 or older,"no, only English or Spanish",no,2025-08-13_19h22.04.400,empathy_intonation_perc,2024.2.4,Win32,59.88023952,674fa4a78b9d8a734154456f,687ed1b7e638a4cbf2f02089,689d1dfd25d19d0646082ffd,,,,,,,,,,,,,71,0,,./stim/wavs/castilian_mismatch_declarative-broad-focus_La-nina-lava-el-plato.wav,,,,,,,,,,,,,,,,,,,,,,286.252,288.6671,1,0,1.8942,,0,35,35,70,1,0,castilian,,,,,,,,,,,,,,,,,,,,,,,,,,,,,,,,,,,,,,,,,,,,,,,,,,,,,,,,
,,,,,,,,,674fa4a78b9d8a734154456f,spanish,13 or older,"no, only English or Spanish",no,2025-08-13_19h22.04.400,empathy_intonation_perc,2024.2.4,Win32,59.88023952,674fa4a78b9d8a734154456f,687ed1b7e638a4cbf2f02089,689d1dfd25d19d0646082ffd,,,,,,,,,,,,,62,0,,./stim/wavs/mexican_match_declarative-broad-focus_Marta-abre-el-regalo.wav,,,,,,,,,,,,,,,,,,,,,,288.6678,290.6176,0,1,1.4353,,0,36,36,61,1,0,mexican,,,,,,,,,,,,,,,,,,,,,,,,,,,,,,,,,,,,,,,,,,,,,,,,,,,,,,,,
,,,,,,,,,674fa4a78b9d8a734154456f,spanish,13 or older,"no, only English or Spanish",no,2025-08-13_19h22.04.400,empathy_intonation_perc,2024.2.4,Win32,59.88023952,674fa4a78b9d8a734154456f,687ed1b7e638a4cbf2f02089,689d1dfd25d19d0646082ffd,,,,,,,,,,,,,33,1,,./stim/wavs/cuban_mismatch_interrogative-total-yn_Mi-novio-viene-del-lago.wav,,,,,,,,,,,,,,,,,,,,,,290.6183,292.6504,0,0,1.5115,,0,37,37,32,1,1,cuban,,,,,,,,,,,,,,,,,,,,,,,,,,,,,,,,,,,,,,,,,,,,,,,,,,,,,,,,
,,,,,,,,,674fa4a78b9d8a734154456f,spanish,13 or older,"no, only English or Spanish",no,2025-08-13_19h22.04.400,empathy_intonation_perc,2024.2.4,Win32,59.88023952,674fa4a78b9d8a734154456f,687ed1b7e638a4cbf2f02089,689d1dfd25d19d0646082ffd,,,,,,,,,,,,,52,0,,./stim/wavs/cuban_match_declarative-broad-focus_Daniel-iba-a-Bolivia.wav,,,,,,,,,,,,,,,,,,,,,,292.6513,295.001,0,1,1.8328,,0,38,38,51,1,0,cuban,,,,,,,,,,,,,,,,,,,,,,,,,,,,,,,,,,,,,,,,,,,,,,,,,,,,,,,,
,,,,,,,,,674fa4a78b9d8a734154456f,spanish,13 or older,"no, only English or Spanish",no,2025-08-13_19h22.04.400,empathy_intonation_perc,2024.2.4,Win32,59.88023952,674fa4a78b9d8a734154456f,687ed1b7e638a4cbf2f02089,689d1dfd25d19d0646082ffd,,,,,,,,,,,,,27,1,,./stim/wavs/castilian_mismatch_interrogative-total-yn_Mi-madre-come-la-fruta.wav,,,,,,,,,,,,,,,,,,,,,,295.0017,297.3338,1,1,1.8073,,0,39,39,26,1,0,castilian,,,,,,,,,,,,,,,,,,,,,,,,,,,,,,,,,,,,,,,,,,,,,,,,,,,,,,,,
,,,,,,,,,674fa4a78b9d8a734154456f,spanish,13 or older,"no, only English or Spanish",no,2025-08-13_19h22.04.400,empathy_intonation_perc,2024.2.4,Win32,59.88023952,674fa4a78b9d8a734154456f,687ed1b7e638a4cbf2f02089,689d1dfd25d19d0646082ffd,,,,,,,,,,,,,24,1,,./stim/wavs/puertorican_match_interrogative-total-yn_Maria-bebe-el-vino.wav,,,,,,,,,,,,,,,,,,,,,,297.3344,299.6673,0,0,1.8049,,0,40,40,23,1,1,puertorican,,,,,,,,,,,,,,,,,,,,,,,,,,,,,,,,,,,,,,,,,,,,,,,,,,,,,,,,
,,,,,,,,,674fa4a78b9d8a734154456f,spanish,13 or older,"no, only English or Spanish",no,2025-08-13_19h22.04.400,empathy_intonation_perc,2024.2.4,Win32,59.88023952,674fa4a78b9d8a734154456f,687ed1b7e638a4cbf2f02089,689d1dfd25d19d0646082ffd,,,,,,,,,,,,,49,0,,./stim/wavs/castilian_match_declarative-broad-focus_Mariano-habla-del-tiempo.wav,,,,,,,,,,,,,,,,,,,,,,299.668,302.8504,0,1,2.6604,,0,41,41,48,1,0,castilian,,,,,,,,,,,,,,,,,,,,,,,,,,,,,,,,,,,,,,,,,,,,,,,,,,,,,,,,
,,,,,,,,,674fa4a78b9d8a734154456f,spanish,13 or older,"no, only English or Spanish",no,2025-08-13_19h22.04.400,empathy_intonation_perc,2024.2.4,Win32,59.88023952,674fa4a78b9d8a734154456f,687ed1b7e638a4cbf2f02089,689d1dfd25d19d0646082ffd,,,,,,,,,,,,,25,1,,./stim/wavs/castilian_mismatch_interrogative-total-yn_La-maestra-vive-en-Paris.wav,,,,,,,,,,,,,,,,,,,,,,302.8512,305.3675,1,1,1.9829,,0,42,42,24,1,0,castilian,,,,,,,,,,,,,,,,,,,,,,,,,,,,,,,,,,,,,,,,,,,,,,,,,,,,,,,,
,,,,,,,,,674fa4a78b9d8a734154456f,spanish,13 or older,"no, only English or Spanish",no,2025-08-13_19h22.04.400,empathy_intonation_perc,2024.2.4,Win32,59.88023952,674fa4a78b9d8a734154456f,687ed1b7e638a4cbf2f02089,689d1dfd25d19d0646082ffd,,,,,,,,,,,,,59,0,,./stim/wavs/mexican_match_declarative-broad-focus_David-leia-el-libro.wav,,,,,,,,,,,,,,,,,,,,,,305.3682,307.5671,0,1,1.6695,,0,43,43,58,1,0,mexican,,,,,,,,,,,,,,,,,,,,,,,,,,,,,,,,,,,,,,,,,,,,,,,,,,,,,,,,
,,,,,,,,,674fa4a78b9d8a734154456f,spanish,13 or older,"no, only English or Spanish",no,2025-08-13_19h22.04.400,empathy_intonation_perc,2024.2.4,Win32,59.88023952,674fa4a78b9d8a734154456f,687ed1b7e638a4cbf2f02089,689d1dfd25d19d0646082ffd,,,,,,,,,,,,,82,0,,./stim/wavs/mexican_mismatch_declarative-broad-focus_Mi-novio-viene-del-lago.wav,,,,,,,,,,,,,,,,,,,,,,307.5678,309.5505,0,1,1.4546,,0,44,44,81,1,0,mexican,,,,,,,,,,,,,,,,,,,,,,,,,,,,,,,,,,,,,,,,,,,,,,,,,,,,,,,,
,,,,,,,,,674fa4a78b9d8a734154456f,spanish,13 or older,"no, only English or Spanish",no,2025-08-13_19h22.04.400,empathy_intonation_perc,2024.2.4,Win32,59.88023952,674fa4a78b9d8a734154456f,687ed1b7e638a4cbf2f02089,689d1dfd25d19d0646082ffd,,,,,,,,,,,,,41,1,,./stim/wavs/puertorican_mismatch_interrogative-total-yn_El-nino-oye-el-rio.wav,,,,,,,,,,,,,,,,,,,,,,309.551,311.6168,0,0,1.5432,,0,45,45,40,1,1,puertorican,,,,,,,,,,,,,,,,,,,,,,,,,,,,,,,,,,,,,,,,,,,,,,,,,,,,,,,,
,,,,,,,,,674fa4a78b9d8a734154456f,spanish,13 or older,"no, only English or Spanish",no,2025-08-13_19h22.04.400,empathy_intonation_perc,2024.2.4,Win32,59.88023952,674fa4a78b9d8a734154456f,687ed1b7e638a4cbf2f02089,689d1dfd25d19d0646082ffd,,,,,,,,,,,,,8,1,,./stim/wavs/cuban_match_interrogative-total-yn_Daniel-iba-a-Bolivia.wav,,,,,,,,,,,,,,,,,,,,,,311.6174,313.7831,0,0,1.6393,,0,46,46,7,1,1,cuban,,,,,,,,,,,,,,,,,,,,,,,,,,,,,,,,,,,,,,,,,,,,,,,,,,,,,,,,
,,,,,,,,,674fa4a78b9d8a734154456f,spanish,13 or older,"no, only English or Spanish",no,2025-08-13_19h22.04.400,empathy_intonation_perc,2024.2.4,Win32,59.88023952,674fa4a78b9d8a734154456f,687ed1b7e638a4cbf2f02089,689d1dfd25d19d0646082ffd,,,,,,,,,,,,,9,1,,./stim/wavs/cuban_match_interrogative-total-yn_Manuela-vende-el-carro.wav,,,,,,,,,,,,,,,,,,,,,,313.7835,315.9504,0,0,1.6509,,0,47,47,8,1,1,cuban,,,,,,,,,,,,,,,,,,,,,,,,,,,,,,,,,,,,,,,,,,,,,,,,,,,,,,,,
,,,,,,,,,674fa4a78b9d8a734154456f,spanish,13 or older,"no, only English or Spanish",no,2025-08-13_19h22.04.400,empathy_intonation_perc,2024.2.4,Win32,59.88023952,674fa4a78b9d8a734154456f,687ed1b7e638a4cbf2f02089,689d1dfd25d19d0646082ffd,,,,,,,,,,,,,56,0,,./stim/wavs/cuban_match_declarative-broad-focus_Marta-abre-el-regalo.wav,,,,,,,,,,,,,,,,,,,,,,315.951,318.6504,0,1,2.1682,,0,48,48,55,1,0,cuban,,,,,,,,,,,,,,,,,,,,,,,,,,,,,,,,,,,,,,,,,,,,,,,,,,,,,,,,
,,,,,,,,,674fa4a78b9d8a734154456f,spanish,13 or older,"no, only English or Spanish",no,2025-08-13_19h22.04.400,empathy_intonation_perc,2024.2.4,Win32,59.88023952,674fa4a78b9d8a734154456f,687ed1b7e638a4cbf2f02089,689d1dfd25d19d0646082ffd,,,,,,,,,,,,,48,0,,./stim/wavs/castilian_match_declarative-broad-focus_Maria-bebe-el-vino.wav,,,,,,,,,,,,,,,,,,,,,,318.6509,320.8671,1,0,1.6876,,0,49,49,47,1,0,castilian,,,,,,,,,,,,,,,,,,,,,,,,,,,,,,,,,,,,,,,,,,,,,,,,,,,,,,,,
,,,,,,,,,674fa4a78b9d8a734154456f,spanish,13 or older,"no, only English or Spanish",no,2025-08-13_19h22.04.400,empathy_intonation_perc,2024.2.4,Win32,59.88023952,674fa4a78b9d8a734154456f,687ed1b7e638a4cbf2f02089,689d1dfd25d19d0646082ffd,,,,,,,,,,,,,60,0,,./stim/wavs/mexican_match_declarative-broad-focus_Emilio-ama-la-marcha.wav,,,,,,,,,,,,,,,,,,,,,,320.8678,323.3172,1,0,1.9168,,0,50,50,59,1,0,mexican,,,,,,,,,,,,,,,,,,,,,,,,,,,,,,,,,,,,,,,,,,,,,,,,,,,,,,,,
,,,,,,,,,674fa4a78b9d8a734154456f,spanish,13 or older,"no, only English or Spanish",no,2025-08-13_19h22.04.400,empathy_intonation_perc,2024.2.4,Win32,59.88023952,674fa4a78b9d8a734154456f,687ed1b7e638a4cbf2f02089,689d1dfd25d19d0646082ffd,,,,,,,,,,,,,57,0,,./stim/wavs/mexican_match_declarative-broad-focus_Ana-lleva-el-abrigo.wav,,,,,,,,,,,,,,,,,,,,,,323.3179,325.5835,1,0,1.7337,,0,51,51,56,1,0,mexican,,,,,,,,,,,,,,,,,,,,,,,,,,,,,,,,,,,,,,,,,,,,,,,,,,,,,,,,
,,,,,,,,,674fa4a78b9d8a734154456f,spanish,13 or older,"no, only English or Spanish",no,2025-08-13_19h22.04.400,empathy_intonation_perc,2024.2.4,Win32,59.88023952,674fa4a78b9d8a734154456f,687ed1b7e638a4cbf2f02089,689d1dfd25d19d0646082ffd,,,,,,,,,,,,,28,1,,./stim/wavs/castilian_mismatch_interrogative-total-yn_Mi-novio-viene-del-lago.wav,,,,,,,,,,,,,,,,,,,,,,325.5842,328.1001,1,1,1.992,,0,52,52,27,1,0,castilian,,,,,,,,,,,,,,,,,,,,,,,,,,,,,,,,,,,,,,,,,,,,,,,,,,,,,,,,
,,,,,,,,,674fa4a78b9d8a734154456f,spanish,13 or older,"no, only English or Spanish",no,2025-08-13_19h22.04.400,empathy_intonation_perc,2024.2.4,Win32,59.88023952,674fa4a78b9d8a734154456f,687ed1b7e638a4cbf2f02089,689d1dfd25d19d0646082ffd,,,,,,,,,,,,,55,0,,./stim/wavs/cuban_match_declarative-broad-focus_Mariano-habla-del-tiempo.wav,,,,,,,,,,,,,,,,,,,,,,328.1007,330.3832,0,1,1.7575,,0,53,53,54,1,0,cuban,,,,,,,,,,,,,,,,,,,,,,,,,,,,,,,,,,,,,,,,,,,,,,,,,,,,,,,,
,,,,,,,,,674fa4a78b9d8a734154456f,spanish,13 or older,"no, only English or Spanish",no,2025-08-13_19h22.04.400,empathy_intonation_perc,2024.2.4,Win32,59.88023952,674fa4a78b9d8a734154456f,687ed1b7e638a4cbf2f02089,689d1dfd25d19d0646082ffd,,,,,,,,,,,,,4,1,,./stim/wavs/castilian_match_interrogative-total-yn_Maria-bebe-el-vino.wav,,,,,,,,,,,,,,,,,,,,,,330.3837,332.5169,1,1,1.6001,,0,54,54,3,1,0,castilian,,,,,,,,,,,,,,,,,,,,,,,,,,,,,,,,,,,,,,,,,,,,,,,,,,,,,,,,
,,,,,,,,,674fa4a78b9d8a734154456f,spanish,13 or older,"no, only English or Spanish",no,2025-08-13_19h22.04.400,empathy_intonation_perc,2024.2.4,Win32,59.88023952,674fa4a78b9d8a734154456f,687ed1b7e638a4cbf2f02089,689d1dfd25d19d0646082ffd,,,,,,,,,,,,,84,0,,./stim/wavs/puertorican_mismatch_declarative-broad-focus_El-bebe-comia-muy-bien.wav,,,,,,,,,,,,,,,,,,,,,,332.5174,334.5999,0,1,1.5503,,0,55,55,83,1,0,puertorican,,,,,,,,,,,,,,,,,,,,,,,,,,,,,,,,,,,,,,,,,,,,,,,,,,,,,,,,
,,,,,,,,,674fa4a78b9d8a734154456f,spanish,13 or older,"no, only English or Spanish",no,2025-08-13_19h22.04.400,empathy_intonation_perc,2024.2.4,Win32,59.88023952,674fa4a78b9d8a734154456f,687ed1b7e638a4cbf2f02089,689d1dfd25d19d0646082ffd,,,,,,,,,,,,,76,0,,./stim/wavs/cuban_mismatch_declarative-broad-focus_La-nina-lava-el-plato.wav,,,,,,,,,,,,,,,,,,,,,,334.6004,336.6997,0,1,1.576,,0,56,56,75,1,0,cuban,,,,,,,,,,,,,,,,,,,,,,,,,,,,,,,,,,,,,,,,,,,,,,,,,,,,,,,,
,,,,,,,,,674fa4a78b9d8a734154456f,spanish,13 or older,"no, only English or Spanish",no,2025-08-13_19h22.04.400,empathy_intonation_perc,2024.2.4,Win32,59.88023952,674fa4a78b9d8a734154456f,687ed1b7e638a4cbf2f02089,689d1dfd25d19d0646082ffd,,,,,,,,,,,,,43,1,,./stim/wavs/puertorican_mismatch_interrogative-total-yn_La-nina-lava-el-plato.wav,,,,,,,,,,,,,,,,,,,,,,336.7002,338.9997,1,1,1.7764,,0,57,57,42,1,1,puertorican,,,,,,,,,,,,,,,,,,,,,,,,,,,,,,,,,,,,,,,,,,,,,,,,,,,,,,,,
,,,,,,,,,674fa4a78b9d8a734154456f,spanish,13 or older,"no, only English or Spanish",no,2025-08-13_19h22.04.400,empathy_intonation_perc,2024.2.4,Win32,59.88023952,674fa4a78b9d8a734154456f,687ed1b7e638a4cbf2f02089,689d1dfd25d19d0646082ffd,,,,,,,,,,,,,32,1,,./stim/wavs/cuban_mismatch_interrogative-total-yn_Mi-madre-come-la-fruta.wav,,,,,,,,,,,,,,,,,,,,,,339.0002,341.5668,1,1,2.034,,0,58,58,31,1,1,cuban,,,,,,,,,,,,,,,,,,,,,,,,,,,,,,,,,,,,,,,,,,,,,,,,,,,,,,,,
,,,,,,,,,674fa4a78b9d8a734154456f,spanish,13 or older,"no, only English or Spanish",no,2025-08-13_19h22.04.400,empathy_intonation_perc,2024.2.4,Win32,59.88023952,674fa4a78b9d8a734154456f,687ed1b7e638a4cbf2f02089,689d1dfd25d19d0646082ffd,,,,,,,,,,,,,38,1,,./stim/wavs/mexican_mismatch_interrogative-total-yn_Mi-novio-viene-del-lago.wav,,,,,,,,,,,,,,,,,,,,,,341.5675,343.8499,1,1,1.757,,0,59,59,37,1,0,mexican,,,,,,,,,,,,,,,,,,,,,,,,,,,,,,,,,,,,,,,,,,,,,,,,,,,,,,,,
,,,,,,,,,674fa4a78b9d8a734154456f,spanish,13 or older,"no, only English or Spanish",no,2025-08-13_19h22.04.400,empathy_intonation_perc,2024.2.4,Win32,59.88023952,674fa4a78b9d8a734154456f,687ed1b7e638a4cbf2f02089,689d1dfd25d19d0646082ffd,,,,,,,,,,,,,70,0,,./stim/wavs/castilian_mismatch_declarative-broad-focus_La-maestra-vive-en-Paris.wav,,,,,,,,,,,,,,,,,,,,,,343.8506,346.4661,1,0,2.09,,0,60,60,69,1,0,castilian,,,,,,,,,,,,,,,,,,,,,,,,,,,,,,,,,,,,,,,,,,,,,,,,,,,,,,,,
,,,,,,,,,674fa4a78b9d8a734154456f,spanish,13 or older,"no, only English or Spanish",no,2025-08-13_19h22.04.400,empathy_intonation_perc,2024.2.4,Win32,59.88023952,674fa4a78b9d8a734154456f,687ed1b7e638a4cbf2f02089,689d1dfd25d19d0646082ffd,,,,,,,,,,,,,44,1,,./stim/wavs/puertorican_mismatch_interrogative-total-yn_Mi-madre-come-la-fruta.wav,,,,,,,,,,,,,,,,,,,,,,346.4665,349.0998,0,0,2.1168,,0,61,61,43,1,1,puertorican,,,,,,,,,,,,,,,,,,,,,,,,,,,,,,,,,,,,,,,,,,,,,,,,,,,,,,,,
,,,,,,,,,674fa4a78b9d8a734154456f,spanish,13 or older,"no, only English or Spanish",no,2025-08-13_19h22.04.400,empathy_intonation_perc,2024.2.4,Win32,59.88023952,674fa4a78b9d8a734154456f,687ed1b7e638a4cbf2f02089,689d1dfd25d19d0646082ffd,,,,,,,,,,,,,31,1,,./stim/wavs/cuban_mismatch_interrogative-total-yn_El-nino-oye-el-rio.wav,,,,,,,,,,,,,,,,,,,,,,349.1003,351.1832,0,0,1.5581,,0,62,62,30,1,1,cuban,,,,,,,,,,,,,,,,,,,,,,,,,,,,,,,,,,,,,,,,,,,,,,,,,,,,,,,,
,,,,,,,,,674fa4a78b9d8a734154456f,spanish,13 or older,"no, only English or Spanish",no,2025-08-13_19h22.04.400,empathy_intonation_perc,2024.2.4,Win32,59.88023952,674fa4a78b9d8a734154456f,687ed1b7e638a4cbf2f02089,689d1dfd25d19d0646082ffd,,,,,,,,,,,,,64,0,,./stim/wavs/puertorican_match_declarative-broad-focus_Daniel-iba-a-Bolivia.wav,,,,,,,,,,,,,,,,,,,,,,351.1839,353.183,0,1,1.4758,,0,63,63,63,1,0,puertorican,,,,,,,,,,,,,,,,,,,,,,,,,,,,,,,,,,,,,,,,,,,,,,,,,,,,,,,,
,,,,,,,,,674fa4a78b9d8a734154456f,spanish,13 or older,"no, only English or Spanish",no,2025-08-13_19h22.04.400,empathy_intonation_perc,2024.2.4,Win32,59.88023952,674fa4a78b9d8a734154456f,687ed1b7e638a4cbf2f02089,689d1dfd25d19d0646082ffd,,,,,,,,,,,,,88,0,,./stim/wavs/puertorican_mismatch_declarative-broad-focus_La-nina-lava-el-plato.wav,,,,,,,,,,,,,,,,,,,,,,353.1837,355.1498,0,1,1.4407,,0,64,64,87,1,0,puertorican,,,,,,,,,,,,,,,,,,,,,,,,,,,,,,,,,,,,,,,,,,,,,,,,,,,,,,,,
,,,,,,,,,674fa4a78b9d8a734154456f,spanish,13 or older,"no, only English or Spanish",no,2025-08-13_19h22.04.400,empathy_intonation_perc,2024.2.4,Win32,59.88023952,674fa4a78b9d8a734154456f,687ed1b7e638a4cbf2f02089,689d1dfd25d19d0646082ffd,,,,,,,,,,,,,85,0,,./stim/wavs/puertorican_mismatch_declarative-broad-focus_El-hombre-mira-la-luna.wav,,,,,,,,,,,,,,,,,,,,,,355.1503,357.2497,1,0,1.5783,,0,65,65,84,1,0,puertorican,,,,,,,,,,,,,,,,,,,,,,,,,,,,,,,,,,,,,,,,,,,,,,,,,,,,,,,,
,,,,,,,,,674fa4a78b9d8a734154456f,spanish,13 or older,"no, only English or Spanish",no,2025-08-13_19h22.04.400,empathy_intonation_perc,2024.2.4,Win32,59.88023952,674fa4a78b9d8a734154456f,687ed1b7e638a4cbf2f02089,689d1dfd25d19d0646082ffd,,,,,,,,,,,,,23,1,,./stim/wavs/puertorican_match_interrogative-total-yn_Manuela-vende-el-carro.wav,,,,,,,,,,,,,,,,,,,,,,357.2506,359.6162,1,1,1.8335,,0,66,66,22,1,1,puertorican,,,,,,,,,,,,,,,,,,,,,,,,,,,,,,,,,,,,,,,,,,,,,,,,,,,,,,,,
,,,,,,,,,674fa4a78b9d8a734154456f,spanish,13 or older,"no, only English or Spanish",no,2025-08-13_19h22.04.400,empathy_intonation_perc,2024.2.4,Win32,59.88023952,674fa4a78b9d8a734154456f,687ed1b7e638a4cbf2f02089,689d1dfd25d19d0646082ffd,,,,,,,,,,,,,58,0,,./stim/wavs/mexican_match_declarative-broad-focus_Daniel-iba-a-Bolivia.wav,,,,,,,,,,,,,,,,,,,,,,359.6167,361.6828,0,1,1.5383,,0,67,67,57,1,0,mexican,,,,,,,,,,,,,,,,,,,,,,,,,,,,,,,,,,,,,,,,,,,,,,,,,,,,,,,,
,,,,,,,,,674fa4a78b9d8a734154456f,spanish,13 or older,"no, only English or Spanish",no,2025-08-13_19h22.04.400,empathy_intonation_perc,2024.2.4,Win32,59.88023952,674fa4a78b9d8a734154456f,687ed1b7e638a4cbf2f02089,689d1dfd25d19d0646082ffd,,,,,,,,,,,,,7,1,,./stim/wavs/cuban_match_interrogative-total-yn_Ana-lleva-el-abrigo.wav,,,,,,,,,,,,,,,,,,,,,,361.6833,363.7163,0,0,1.5004,,0,68,68,6,1,1,cuban,,,,,,,,,,,,,,,,,,,,,,,,,,,,,,,,,,,,,,,,,,,,,,,,,,,,,,,,
,,,,,,,,,674fa4a78b9d8a734154456f,spanish,13 or older,"no, only English or Spanish",no,2025-08-13_19h22.04.400,empathy_intonation_perc,2024.2.4,Win32,59.88023952,674fa4a78b9d8a734154456f,687ed1b7e638a4cbf2f02089,689d1dfd25d19d0646082ffd,,,,,,,,,,,,,42,1,,./stim/wavs/puertorican_mismatch_interrogative-total-yn_La-maestra-vive-en-Paris.wav,,,,,,,,,,,,,,,,,,,,,,363.7169,366.1663,0,0,1.9162,,0,69,69,41,1,1,puertorican,,,,,,,,,,,,,,,,,,,,,,,,,,,,,,,,,,,,,,,,,,,,,,,,,,,,,,,,
,,,,,,,,,674fa4a78b9d8a734154456f,spanish,13 or older,"no, only English or Spanish",no,2025-08-13_19h22.04.400,empathy_intonation_perc,2024.2.4,Win32,59.88023952,674fa4a78b9d8a734154456f,687ed1b7e638a4cbf2f02089,689d1dfd25d19d0646082ffd,,,,,,,,,,,,,3,1,,./stim/wavs/castilian_match_interrogative-total-yn_Manuela-vende-el-carro.wav,,,,,,,,,,,,,,,,,,,,,,366.167,368.3163,1,1,1.6175,,0,70,70,2,1,0,castilian,,,,,,,,,,,,,,,,,,,,,,,,,,,,,,,,,,,,,,,,,,,,,,,,,,,,,,,,
,,,,,,,,,674fa4a78b9d8a734154456f,spanish,13 or older,"no, only English or Spanish",no,2025-08-13_19h22.04.400,empathy_intonation_perc,2024.2.4,Win32,59.88023952,674fa4a78b9d8a734154456f,687ed1b7e638a4cbf2f02089,689d1dfd25d19d0646082ffd,,,,,,,,,,,,,11,1,,./stim/wavs/cuban_match_interrogative-total-yn_Mariano-habla-del-tiempo.wav,,,,,,,,,,,,,,,,,,,,,,368.3169,370.4825,0,0,1.637,,0,71,71,10,1,1,cuban,,,,,,,,,,,,,,,,,,,,,,,,,,,,,,,,,,,,,,,,,,,,,,,,,,,,,,,,
,,,,,,,,,674fa4a78b9d8a734154456f,spanish,13 or older,"no, only English or Spanish",no,2025-08-13_19h22.04.400,empathy_intonation_perc,2024.2.4,Win32,59.88023952,674fa4a78b9d8a734154456f,687ed1b7e638a4cbf2f02089,689d1dfd25d19d0646082ffd,,,,,,,,,,,,,68,0,,./stim/wavs/puertorican_match_declarative-broad-focus_Maria-bebe-el-vino.wav,,,,,,,,,,,,,,,,,,,,,,370.483,372.5995,0,1,1.5837,,0,72,72,67,1,0,puertorican,,,,,,,,,,,,,,,,,,,,,,,,,,,,,,,,,,,,,,,,,,,,,,,,,,,,,,,,
,,,,,,,,,674fa4a78b9d8a734154456f,spanish,13 or older,"no, only English or Spanish",no,2025-08-13_19h22.04.400,empathy_intonation_perc,2024.2.4,Win32,59.88023952,674fa4a78b9d8a734154456f,687ed1b7e638a4cbf2f02089,689d1dfd25d19d0646082ffd,,,,,,,,,,,,,72,0,,./stim/wavs/castilian_mismatch_declarative-broad-focus_Mi-novio-viene-del-lago.wav,,,,,,,,,,,,,,,,,,,,,,372.6,374.8157,1,0,1.6938,,0,73,73,71,1,0,castilian,,,,,,,,,,,,,,,,,,,,,,,,,,,,,,,,,,,,,,,,,,,,,,,,,,,,,,,,
,,,,,,,,,674fa4a78b9d8a734154456f,spanish,13 or older,"no, only English or Spanish",no,2025-08-13_19h22.04.400,empathy_intonation_perc,2024.2.4,Win32,59.88023952,674fa4a78b9d8a734154456f,687ed1b7e638a4cbf2f02089,689d1dfd25d19d0646082ffd,,,,,,,,,,,,,63,0,,./stim/wavs/puertorican_match_declarative-broad-focus_Ana-lleva-el-abrigo.wav,,,,,,,,,,,,,,,,,,,,,,374.8164,376.8328,0,1,1.4837,,0,74,74,62,1,0,puertorican,,,,,,,,,,,,,,,,,,,,,,,,,,,,,,,,,,,,,,,,,,,,,,,,,,,,,,,,
,,,,,,,,,674fa4a78b9d8a734154456f,spanish,13 or older,"no, only English or Spanish",no,2025-08-13_19h22.04.400,empathy_intonation_perc,2024.2.4,Win32,59.88023952,674fa4a78b9d8a734154456f,687ed1b7e638a4cbf2f02089,689d1dfd25d19d0646082ffd,,,,,,,,,,,,,5,1,,./stim/wavs/castilian_match_interrogative-total-yn_Mariano-habla-del-tiempo.wav,,,,,,,,,,,,,,,,,,,,,,376.8333,379.2159,1,1,1.8537,,0,75,75,4,1,0,castilian,,,,,,,,,,,,,,,,,,,,,,,,,,,,,,,,,,,,,,,,,,,,,,,,,,,,,,,,
,,,,,,,,,674fa4a78b9d8a734154456f,spanish,13 or older,"no, only English or Spanish",no,2025-08-13_19h22.04.400,empathy_intonation_perc,2024.2.4,Win32,59.88023952,674fa4a78b9d8a734154456f,687ed1b7e638a4cbf2f02089,689d1dfd25d19d0646082ffd,,,,,,,,,,,,,16,1,,./stim/wavs/mexican_match_interrogative-total-yn_Emilio-ama-la-marcha.wav,,,,,,,,,,,,,,,,,,,,,,379.2163,381.3828,1,1,1.6378,,0,76,76,15,1,0,mexican,,,,,,,,,,,,,,,,,,,,,,,,,,,,,,,,,,,,,,,,,,,,,,,,,,,,,,,,
,,,,,,,,,674fa4a78b9d8a734154456f,spanish,13 or older,"no, only English or Spanish",no,2025-08-13_19h22.04.400,empathy_intonation_perc,2024.2.4,Win32,59.88023952,674fa4a78b9d8a734154456f,687ed1b7e638a4cbf2f02089,689d1dfd25d19d0646082ffd,,,,,,,,,,,,,53,0,,./stim/wavs/cuban_match_declarative-broad-focus_Manuela-vende-el-carro.wav,,,,,,,,,,,,,,,,,,,,,,381.3834,383.6159,0,1,1.7049,,0,77,77,52,1,0,cuban,,,,,,,,,,,,,,,,,,,,,,,,,,,,,,,,,,,,,,,,,,,,,,,,,,,,,,,,
,,,,,,,,,674fa4a78b9d8a734154456f,spanish,13 or older,"no, only English or Spanish",no,2025-08-13_19h22.04.400,empathy_intonation_perc,2024.2.4,Win32,59.88023952,674fa4a78b9d8a734154456f,687ed1b7e638a4cbf2f02089,689d1dfd25d19d0646082ffd,,,,,,,,,,,,,37,1,,./stim/wavs/mexican_mismatch_interrogative-total-yn_La-maestra-vive-en-Paris.wav,,,,,,,,,,,,,,,,,,,,,,383.6164,386.1991,1,1,2.0499,,0,78,78,36,1,0,mexican,,,,,,,,,,,,,,,,,,,,,,,,,,,,,,,,,,,,,,,,,,,,,,,,,,,,,,,,
,,,,,,,,,674fa4a78b9d8a734154456f,spanish,13 or older,"no, only English or Spanish",no,2025-08-13_19h22.04.400,empathy_intonation_perc,2024.2.4,Win32,59.88023952,674fa4a78b9d8a734154456f,687ed1b7e638a4cbf2f02089,689d1dfd25d19d0646082ffd,,,,,,,,,,,,,67,0,,./stim/wavs/puertorican_match_declarative-broad-focus_Manuela-vende-el-carro.wav,,,,,,,,,,,,,,,,,,,,,,386.1996,388.5821,0,1,1.8607,,0,79,79,66,1,0,puertorican,,,,,,,,,,,,,,,,,,,,,,,,,,,,,,,,,,,,,,,,,,,,,,,,,,,,,,,,
,,,,,,,,,674fa4a78b9d8a734154456f,spanish,13 or older,"no, only English or Spanish",no,2025-08-13_19h22.04.400,empathy_intonation_perc,2024.2.4,Win32,59.88023952,674fa4a78b9d8a734154456f,687ed1b7e638a4cbf2f02089,689d1dfd25d19d0646082ffd,,,,,,,,,,,,,73,0,,./stim/wavs/castilian_mismatch_declarative-broad-focus_Mi-tia-odia-la-lluvia.wav,,,,,,,,,,,,,,,,,,,,,,388.5828,391.0992,0,1,1.9879,,0,80,80,72,1,0,castilian,,,,,,,,,,,,,,,,,,,,,,,,,,,,,,,,,,,,,,,,,,,,,,,,,,,,,,,,
,,,,,,,,,674fa4a78b9d8a734154456f,spanish,13 or older,"no, only English or Spanish",no,2025-08-13_19h22.04.400,empathy_intonation_perc,2024.2.4,Win32,59.88023952,674fa4a78b9d8a734154456f,687ed1b7e638a4cbf2f02089,689d1dfd25d19d0646082ffd,,,,,,,,,,,,,6,1,,./stim/wavs/castilian_match_interrogative-total-yn_Marta-abre-el-regalo.wav,,,,,,,,,,,,,,,,,,,,,,391.0998,393.2821,1,1,1.6601,,0,81,81,5,1,0,castilian,,,,,,,,,,,,,,,,,,,,,,,,,,,,,,,,,,,,,,,,,,,,,,,,,,,,,,,,
,,,,,,,,,674fa4a78b9d8a734154456f,spanish,13 or older,"no, only English or Spanish",no,2025-08-13_19h22.04.400,empathy_intonation_perc,2024.2.4,Win32,59.88023952,674fa4a78b9d8a734154456f,687ed1b7e638a4cbf2f02089,689d1dfd25d19d0646082ffd,,,,,,,,,,,,,69,0,,./stim/wavs/castilian_mismatch_declarative-broad-focus_El-nino-oye-el-rio.wav,,,,,,,,,,,,,,,,,,,,,,393.2828,395.5992,0,1,1.7866,,0,82,82,68,1,0,castilian,,,,,,,,,,,,,,,,,,,,,,,,,,,,,,,,,,,,,,,,,,,,,,,,,,,,,,,,
,,,,,,,,,674fa4a78b9d8a734154456f,spanish,13 or older,"no, only English or Spanish",no,2025-08-13_19h22.04.400,empathy_intonation_perc,2024.2.4,Win32,59.88023952,674fa4a78b9d8a734154456f,687ed1b7e638a4cbf2f02089,689d1dfd25d19d0646082ffd,,,,,,,,,,,,,20,1,,./stim/wavs/puertorican_match_interrogative-total-yn_Daniel-iba-a-Bolivia.wav,,,,,,,,,,,,,,,,,,,,,,395.5996,397.7322,0,0,1.609,,0,83,83,19,1,1,puertorican,,,,,,,,,,,,,,,,,,,,,,,,,,,,,,,,,,,,,,,,,,,,,,,,,,,,,,,,
,,,,,,,,,674fa4a78b9d8a734154456f,spanish,13 or older,"no, only English or Spanish",no,2025-08-13_19h22.04.400,empathy_intonation_perc,2024.2.4,Win32,59.88023952,674fa4a78b9d8a734154456f,687ed1b7e638a4cbf2f02089,689d1dfd25d19d0646082ffd,,,,,,,,,,,,,78,0,,./stim/wavs/cuban_mismatch_declarative-broad-focus_Mi-tia-odia-la-lluvia.wav,,,,,,,,,,,,,,,,,,,,,,397.7328,400.0484,0,1,1.794,,0,84,84,77,1,0,cuban,,,,,,,,,,,,,,,,,,,,,,,,,,,,,,,,,,,,,,,,,,,,,,,,,,,,,,,,
,,,,,,,,,674fa4a78b9d8a734154456f,spanish,13 or older,"no, only English or Spanish",no,2025-08-13_19h22.04.400,empathy_intonation_perc,2024.2.4,Win32,59.88023952,674fa4a78b9d8a734154456f,687ed1b7e638a4cbf2f02089,689d1dfd25d19d0646082ffd,,,,,,,,,,,,,18,1,,./stim/wavs/mexican_match_interrogative-total-yn_Marta-abre-el-regalo.wav,,,,,,,,,,,,,,,,,,,,,,400.049,402.1989,0,0,1.62,,0,85,85,17,1,0,mexican,,,,,,,,,,,,,,,,,,,,,,,,,,,,,,,,,,,,,,,,,,,,,,,,,,,,,,,,
,,,,,,,,,674fa4a78b9d8a734154456f,spanish,13 or older,"no, only English or Spanish",no,2025-08-13_19h22.04.400,empathy_intonation_perc,2024.2.4,Win32,59.88023952,674fa4a78b9d8a734154456f,687ed1b7e638a4cbf2f02089,689d1dfd25d19d0646082ffd,,,,,,,,,,,,,14,1,,./stim/wavs/mexican_match_interrogative-total-yn_Daniel-iba-a-Bolivia.wav,,,,,,,,,,,,,,,,,,,,,,402.1997,404.2988,1,1,1.5785,,0,86,86,13,1,0,mexican,,,,,,,,,,,,,,,,,,,,,,,,,,,,,,,,,,,,,,,,,,,,,,,,,,,,,,,,
,,,,,,,,,674fa4a78b9d8a734154456f,spanish,13 or older,"no, only English or Spanish",no,2025-08-13_19h22.04.400,empathy_intonation_perc,2024.2.4,Win32,59.88023952,674fa4a78b9d8a734154456f,687ed1b7e638a4cbf2f02089,689d1dfd25d19d0646082ffd,,,,,,,,,,,,,51,0,,./stim/wavs/cuban_match_declarative-broad-focus_Ana-lleva-el-abrigo.wav,,,,,,,,,,,,,,,,,,,,,,404.2995,406.4153,0,1,1.5907,,0,87,87,50,1,0,cuban,,,,,,,,,,,,,,,,,,,,,,,,,,,,,,,,,,,,,,,,,,,,,,,,,,,,,,,,
,,,,,,,"Great! Now we will move on. The next task consists of about 60 trials, in each of which you will see a string of letters. 
  
  Your task is to decide whether this is a real Spanish word or not.", (press the spacebar to continue),674fa4a78b9d8a734154456f,spanish,13 or older,"no, only English or Spanish",no,2025-08-13_19h22.04.400,empathy_intonation_perc,2024.2.4,Win32,59.88023952,674fa4a78b9d8a734154456f,687ed1b7e638a4cbf2f02089,689d1dfd25d19d0646082ffd,,,,,,,,,,,,,,,,,,,,,,,,,,,,,,,,,,,,,,,,,,,,,,,,,,,406.4208,412.1157,0,0,0,0,1,,,,,,,,,,,,,,,,,,,,,,,,,,,,,,,,,,,,,,,,,,,,,,,,,
,,,,,,,"If you think it is an existing Spanish word, you type '1' (for 'REAL'), and if you think it is not an existing Spanish word, you type '0' (for 'FAKE').", (press the spacebar to continue),674fa4a78b9d8a734154456f,spanish,13 or older,"no, only English or Spanish",no,2025-08-13_19h22.04.400,empathy_intonation_perc,2024.2.4,Win32,59.88023952,674fa4a78b9d8a734154456f,687ed1b7e638a4cbf2f02089,689d1dfd25d19d0646082ffd,,,,,,,,,,,,,,,,,,,,,,,,,,,,,,,,,,,,,,,,,,,,,,,,,,,412.1179,415.7483,0,1,1,1,1,,,,,,,,,,,,,,,,,,,,,,,,,,,,,,,,,,,,,,,,,,,,,,,,,
,,,,,,,"If you are sure that the word exists, even though you don’t know its exact meaning, you may still respond '1' (REAL). 
  
  But if you are not sure if it is an existing word, you should respond '0' (FAKE).
  
  Let's do a practice round...", (press the spacebar to continue),674fa4a78b9d8a734154456f,spanish,13 or older,"no, only English or Spanish",no,2025-08-13_19h22.04.400,empathy_intonation_perc,2024.2.4,Win32,59.88023952,674fa4a78b9d8a734154456f,687ed1b7e638a4cbf2f02089,689d1dfd25d19d0646082ffd,,,,,,,,,,,,,,,,,,,,,,,,,,,,,,,,,,,,,,,,,,,,,,,,,,,415.7508,418.0318,0,2,2,2,1,,,,,,,,,,,,,,,,,,,,,,,,,,,,,,,,,,,,,,,,,,,,,,,,,
,,,,,,,,,674fa4a78b9d8a734154456f,spanish,13 or older,"no, only English or Spanish",no,2025-08-13_19h22.04.400,empathy_intonation_perc,2024.2.4,Win32,59.88023952,674fa4a78b9d8a734154456f,687ed1b7e638a4cbf2f02089,689d1dfd25d19d0646082ffd,,,,,,,,,,,,,,0,,,,,,,,,,,,,,,,,,,,,,,,,,,,,,,,,,,,,,,,,,,,418.0372,420.1655,1,0,1.59,,420.1658,421.1655,0,0,0,0,1,0,depiste,REAL,FAKE,,,,,,,,,,,,,,,,,,,,,,,,,,,,,,,,
,,,,,,,,,674fa4a78b9d8a734154456f,spanish,13 or older,"no, only English or Spanish",no,2025-08-13_19h22.04.400,empathy_intonation_perc,2024.2.4,Win32,59.88023952,674fa4a78b9d8a734154456f,687ed1b7e638a4cbf2f02089,689d1dfd25d19d0646082ffd,,,,,,,,,,,,,,1,,,,,,,,,,,,,,,,,,,,,,,,,,,,,,,,,,,,,,,,,,,,421.1749,423.3314,1,1,1.6262,,423.3321,424.3313,0,1,1,1,1,0,sí,REAL,FAKE,,,,,,,,,,,,,,,,,,,,,,,,,,,,,,,,
,,,,,,,,,674fa4a78b9d8a734154456f,spanish,13 or older,"no, only English or Spanish",no,2025-08-13_19h22.04.400,empathy_intonation_perc,2024.2.4,Win32,59.88023952,674fa4a78b9d8a734154456f,687ed1b7e638a4cbf2f02089,689d1dfd25d19d0646082ffd,,,,,,,,,,,,,,0,,,,,,,,,,,,,,,,,,,,,,,,,,,,,,,,,,,,,,,,,,,,424.3333,426.0149,0,1,1.1333,,426.0151,427.0151,0,2,2,2,1,0,coné,REAL,FAKE,,,,,,,,,,,,,,,,,,,,,,,,,,,,,,,,
,,,,,,,,,674fa4a78b9d8a734154456f,spanish,13 or older,"no, only English or Spanish",no,2025-08-13_19h22.04.400,empathy_intonation_perc,2024.2.4,Win32,59.88023952,674fa4a78b9d8a734154456f,687ed1b7e638a4cbf2f02089,689d1dfd25d19d0646082ffd,,,,,,,,,,,,,,0,,,,,,,,,,,,,,,,,,,,,,,,,,,,,,,,,,,,,,,,,,,,427.0165,428.565,0,1,1.0008,,428.565,429.565,0,3,3,3,1,0,calpar,REAL,FAKE,,,,,,,,,,,,,,,,,,,,,,,,,,,,,,,,
,,,,,,,,,674fa4a78b9d8a734154456f,spanish,13 or older,"no, only English or Spanish",no,2025-08-13_19h22.04.400,empathy_intonation_perc,2024.2.4,Win32,59.88023952,674fa4a78b9d8a734154456f,687ed1b7e638a4cbf2f02089,689d1dfd25d19d0646082ffd,,,,,,,,,,,,,,0,,,,,,,,,,,,,,,,,,,,,,,,,,,,,,,,,,,,,,,,,,,,429.5668,431.1316,0,1,1.0188,,431.1316,432.1315,0,4,4,4,1,0,joten,REAL,FAKE,,,,,,,,,,,,,,,,,,,,,,,,,,,,,,,,
,,,,,,,,,674fa4a78b9d8a734154456f,spanish,13 or older,"no, only English or Spanish",no,2025-08-13_19h22.04.400,empathy_intonation_perc,2024.2.4,Win32,59.88023952,674fa4a78b9d8a734154456f,687ed1b7e638a4cbf2f02089,689d1dfd25d19d0646082ffd,,,,,,,,,,,,,,1,,,,,,,,,,,,,,,,,,,,,,,,,,,,,,,,,,,,,,,,,,,,432.133,433.3813,1,1,0.7109,,433.3814,434.3813,0,5,5,5,1,0,sacapuntas,REAL,FAKE,,,,,,,,,,,,,,,,,,,,,,,,,,,,,,,,
,,,,,,,,,674fa4a78b9d8a734154456f,spanish,13 or older,"no, only English or Spanish",no,2025-08-13_19h22.04.400,empathy_intonation_perc,2024.2.4,Win32,59.88023952,674fa4a78b9d8a734154456f,687ed1b7e638a4cbf2f02089,689d1dfd25d19d0646082ffd,,,,,,,,,,,,,,0,,,,,,,,,,,,,,,,,,,,,,,,,,,,,,,,,,,,,,,,,,,,434.3832,436.1315,1,0,1.2064,,436.1324,437.1317,0,6,6,6,1,0,priba,REAL,FAKE,,,,,,,,,,,,,,,,,,,,,,,,,,,,,,,,
,,,,,,,,,674fa4a78b9d8a734154456f,spanish,13 or older,"no, only English or Spanish",no,2025-08-13_19h22.04.400,empathy_intonation_perc,2024.2.4,Win32,59.88023952,674fa4a78b9d8a734154456f,687ed1b7e638a4cbf2f02089,689d1dfd25d19d0646082ffd,,,,,,,,,,,,,,0,,,,,,,,,,,,,,,,,,,,,,,,,,,,,,,,,,,,,,,,,,,,437.1332,438.6646,0,1,0.9937,,438.6653,439.665,0,7,7,7,1,0,pelasula,REAL,FAKE,,,,,,,,,,,,,,,,,,,,,,,,,,,,,,,,
,,,,,,,,,674fa4a78b9d8a734154456f,spanish,13 or older,"no, only English or Spanish",no,2025-08-13_19h22.04.400,empathy_intonation_perc,2024.2.4,Win32,59.88023952,674fa4a78b9d8a734154456f,687ed1b7e638a4cbf2f02089,689d1dfd25d19d0646082ffd,,,,,,,,,,,,,,1,,,,,,,,,,,,,,,,,,,,,,,,,,,,,,,,,,,,,,,,,,,,439.6664,440.9646,1,1,0.7591,,440.9647,441.9649,0,8,8,8,1,0,bien,REAL,FAKE,,,,,,,,,,,,,,,,,,,,,,,,,,,,,,,,
,,,,,,,,,674fa4a78b9d8a734154456f,spanish,13 or older,"no, only English or Spanish",no,2025-08-13_19h22.04.400,empathy_intonation_perc,2024.2.4,Win32,59.88023952,674fa4a78b9d8a734154456f,687ed1b7e638a4cbf2f02089,689d1dfd25d19d0646082ffd,,,,,,,,,,,,,,1,,,,,,,,,,,,,,,,,,,,,,,,,,,,,,,,,,,,,,,,,,,,441.9662,443.1482,1,1,0.636,,443.1482,444.1482,0,9,9,9,1,0,casa,REAL,FAKE,,,,,,,,,,,,,,,,,,,,,,,,,,,,,,,,
,,,,,,,,,674fa4a78b9d8a734154456f,spanish,13 or older,"no, only English or Spanish",no,2025-08-13_19h22.04.400,empathy_intonation_perc,2024.2.4,Win32,59.88023952,674fa4a78b9d8a734154456f,687ed1b7e638a4cbf2f02089,689d1dfd25d19d0646082ffd,,,,,,,,,,,,,,0,,,,,,,,,,,,,,,,,,,,,,,,,,,,,,,,,,,,,,,,,,,,444.1496,445.5146,0,1,0.8228,,445.5146,446.5149,0,10,10,10,1,0,lejo,REAL,FAKE,,,,,,,,,,,,,,,,,,,,,,,,,,,,,,,,
,,,,,,,,,674fa4a78b9d8a734154456f,spanish,13 or older,"no, only English or Spanish",no,2025-08-13_19h22.04.400,empathy_intonation_perc,2024.2.4,Win32,59.88023952,674fa4a78b9d8a734154456f,687ed1b7e638a4cbf2f02089,689d1dfd25d19d0646082ffd,,,,,,,,,,,,,,0,,,,,,,,,,,,,,,,,,,,,,,,,,,,,,,,,,,,,,,,,,,,446.5163,448.0812,1,0,1.0169,,448.0819,449.0815,0,11,11,11,1,0,pretantas,REAL,FAKE,,,,,,,,,,,,,,,,,,,,,,,,,,,,,,,,
,,,,,,,,,674fa4a78b9d8a734154456f,spanish,13 or older,"no, only English or Spanish",no,2025-08-13_19h22.04.400,empathy_intonation_perc,2024.2.4,Win32,59.88023952,674fa4a78b9d8a734154456f,687ed1b7e638a4cbf2f02089,689d1dfd25d19d0646082ffd,,,,,,,,,,,,,,,,,,,,,,,,,,,,,,,,,,,,,,,,,,,,,,,,,,,,,,,,,,,,,,,,,,,,,,,,,,,449.0819,450.5317,,,,,,,,,,,,,,,,,,,,,,,,,,,,,,
,,,,,,,,,674fa4a78b9d8a734154456f,spanish,13 or older,"no, only English or Spanish",no,2025-08-13_19h22.04.400,empathy_intonation_perc,2024.2.4,Win32,59.88023952,674fa4a78b9d8a734154456f,687ed1b7e638a4cbf2f02089,689d1dfd25d19d0646082ffd,,,,,,,,,,,,,,1,,,,,,,,,,,,,,,,,,,,,,,,,,,,,,,,,,,,,,,,,,,,,,,,,,,,,,,,,52,camisa,,,,,450.5394,453.2645,1,1,2.1942,,0,0,0,51,1,REAL,FAKE,,,,,,,,,,,,,,,,,
,,,,,,,,,674fa4a78b9d8a734154456f,spanish,13 or older,"no, only English or Spanish",no,2025-08-13_19h22.04.400,empathy_intonation_perc,2024.2.4,Win32,59.88023952,674fa4a78b9d8a734154456f,687ed1b7e638a4cbf2f02089,689d1dfd25d19d0646082ffd,,,,,,,,,,,,,,1,,,,,,,,,,,,,,,,,,,,,,,,,,,,,,,,,,,,,,,,,,,,,,,,,,,,,,,,,20,ávido,,,,,453.2669,455.0812,0,0,1.2677,,0,1,1,19,1,REAL,FAKE,,,,,,,,,,,,,,,,,
,,,,,,,,,674fa4a78b9d8a734154456f,spanish,13 or older,"no, only English or Spanish",no,2025-08-13_19h22.04.400,empathy_intonation_perc,2024.2.4,Win32,59.88023952,674fa4a78b9d8a734154456f,687ed1b7e638a4cbf2f02089,689d1dfd25d19d0646082ffd,,,,,,,,,,,,,,1,,,,,,,,,,,,,,,,,,,,,,,,,,,,,,,,,,,,,,,,,,,,,,,,,,,,,,,,,76,atar,,,,,455.0827,456.6645,0,0,1.0338,,0,2,2,75,1,REAL,FAKE,,,,,,,,,,,,,,,,,
,,,,,,,,,674fa4a78b9d8a734154456f,spanish,13 or older,"no, only English or Spanish",no,2025-08-13_19h22.04.400,empathy_intonation_perc,2024.2.4,Win32,59.88023952,674fa4a78b9d8a734154456f,687ed1b7e638a4cbf2f02089,689d1dfd25d19d0646082ffd,,,,,,,,,,,,,,1,,,,,,,,,,,,,,,,,,,,,,,,,,,,,,,,,,,,,,,,,,,,,,,,,,,,,,,,,13,helar,,,,,456.6659,458.2645,0,0,1.0504,,0,3,3,12,1,REAL,FAKE,,,,,,,,,,,,,,,,,
,,,,,,,,,674fa4a78b9d8a734154456f,spanish,13 or older,"no, only English or Spanish",no,2025-08-13_19h22.04.400,empathy_intonation_perc,2024.2.4,Win32,59.88023952,674fa4a78b9d8a734154456f,687ed1b7e638a4cbf2f02089,689d1dfd25d19d0646082ffd,,,,,,,,,,,,,,1,,,,,,,,,,,,,,,,,,,,,,,,,,,,,,,,,,,,,,,,,,,,,,,,,,,,,,,,,64,orgulloso,,,,,458.2659,459.7642,1,1,0.9585,,0,4,4,63,1,REAL,FAKE,,,,,,,,,,,,,,,,,
,,,,,,,,,674fa4a78b9d8a734154456f,spanish,13 or older,"no, only English or Spanish",no,2025-08-13_19h22.04.400,empathy_intonation_perc,2024.2.4,Win32,59.88023952,674fa4a78b9d8a734154456f,687ed1b7e638a4cbf2f02089,689d1dfd25d19d0646082ffd,,,,,,,,,,,,,,1,,,,,,,,,,,,,,,,,,,,,,,,,,,,,,,,,,,,,,,,,,,,,,,,,,,,,,,,,12,asesinato,,,,,459.7656,461.1145,1,1,0.8015,,0,5,5,11,1,REAL,FAKE,,,,,,,,,,,,,,,,,
,,,,,,,,,674fa4a78b9d8a734154456f,spanish,13 or older,"no, only English or Spanish",no,2025-08-13_19h22.04.400,empathy_intonation_perc,2024.2.4,Win32,59.88023952,674fa4a78b9d8a734154456f,687ed1b7e638a4cbf2f02089,689d1dfd25d19d0646082ffd,,,,,,,,,,,,,,1,,,,,,,,,,,,,,,,,,,,,,,,,,,,,,,,,,,,,,,,,,,,,,,,,,,,,,,,,90,clavel,,,,,461.116,462.7812,0,0,1.1245,,0,6,6,89,1,REAL,FAKE,,,,,,,,,,,,,,,,,
,,,,,,,,,674fa4a78b9d8a734154456f,spanish,13 or older,"no, only English or Spanish",no,2025-08-13_19h22.04.400,empathy_intonation_perc,2024.2.4,Win32,59.88023952,674fa4a78b9d8a734154456f,687ed1b7e638a4cbf2f02089,689d1dfd25d19d0646082ffd,,,,,,,,,,,,,,1,,,,,,,,,,,,,,,,,,,,,,,,,,,,,,,,,,,,,,,,,,,,,,,,,,,,,,,,,14,yunque,,,,,462.7823,464.1978,0,0,0.8676,,0,7,7,13,1,REAL,FAKE,,,,,,,,,,,,,,,,,
,,,,,,,,,674fa4a78b9d8a734154456f,spanish,13 or older,"no, only English or Spanish",no,2025-08-13_19h22.04.400,empathy_intonation_perc,2024.2.4,Win32,59.88023952,674fa4a78b9d8a734154456f,687ed1b7e638a4cbf2f02089,689d1dfd25d19d0646082ffd,,,,,,,,,,,,,,1,,,,,,,,,,,,,,,,,,,,,,,,,,,,,,,,,,,,,,,,,,,,,,,,,,,,,,,,,77,tiburón,,,,,464.1997,465.731,1,1,0.9871,,0,8,8,76,1,REAL,FAKE,,,,,,,,,,,,,,,,,
,,,,,,,,,674fa4a78b9d8a734154456f,spanish,13 or older,"no, only English or Spanish",no,2025-08-13_19h22.04.400,empathy_intonation_perc,2024.2.4,Win32,59.88023952,674fa4a78b9d8a734154456f,687ed1b7e638a4cbf2f02089,689d1dfd25d19d0646082ffd,,,,,,,,,,,,,,1,,,,,,,,,,,,,,,,,,,,,,,,,,,,,,,,,,,,,,,,,,,,,,,,,,,,,,,,,41,rebuscar,,,,,465.732,467.0477,1,1,0.7684,,0,9,9,40,1,REAL,FAKE,,,,,,,,,,,,,,,,,
,,,,,,,,,674fa4a78b9d8a734154456f,spanish,13 or older,"no, only English or Spanish",no,2025-08-13_19h22.04.400,empathy_intonation_perc,2024.2.4,Win32,59.88023952,674fa4a78b9d8a734154456f,687ed1b7e638a4cbf2f02089,689d1dfd25d19d0646082ffd,,,,,,,,,,,,,,0,,,,,,,,,,,,,,,,,,,,,,,,,,,,,,,,,,,,,,,,,,,,,,,,,,,,,,,,,8,cadeña,,,,,467.0497,468.3144,1,0,0.7251,,0,10,10,7,1,REAL,FAKE,,,,,,,,,,,,,,,,,
,,,,,,,,,674fa4a78b9d8a734154456f,spanish,13 or older,"no, only English or Spanish",no,2025-08-13_19h22.04.400,empathy_intonation_perc,2024.2.4,Win32,59.88023952,674fa4a78b9d8a734154456f,687ed1b7e638a4cbf2f02089,689d1dfd25d19d0646082ffd,,,,,,,,,,,,,,1,,,,,,,,,,,,,,,,,,,,,,,,,,,,,,,,,,,,,,,,,,,,,,,,,,,,,,,,,68,alegre,,,,,468.3155,469.9976,1,1,1.1365,,0,11,11,67,1,REAL,FAKE,,,,,,,,,,,,,,,,,
,,,,,,,,,674fa4a78b9d8a734154456f,spanish,13 or older,"no, only English or Spanish",no,2025-08-13_19h22.04.400,empathy_intonation_perc,2024.2.4,Win32,59.88023952,674fa4a78b9d8a734154456f,687ed1b7e638a4cbf2f02089,689d1dfd25d19d0646082ffd,,,,,,,,,,,,,,1,,,,,,,,,,,,,,,,,,,,,,,,,,,,,,,,,,,,,,,,,,,,,,,,,,,,,,,,,45,jilguero,,,,,469.9986,471.2976,0,0,0.7568,,0,12,12,44,1,REAL,FAKE,,,,,,,,,,,,,,,,,
,,,,,,,,,674fa4a78b9d8a734154456f,spanish,13 or older,"no, only English or Spanish",no,2025-08-13_19h22.04.400,empathy_intonation_perc,2024.2.4,Win32,59.88023952,674fa4a78b9d8a734154456f,687ed1b7e638a4cbf2f02089,689d1dfd25d19d0646082ffd,,,,,,,,,,,,,,1,,,,,,,,,,,,,,,,,,,,,,,,,,,,,,,,,,,,,,,,,,,,,,,,,,,,,,,,,86,barato,,,,,471.2989,472.7311,1,1,0.8834,,0,13,13,85,1,REAL,FAKE,,,,,,,,,,,,,,,,,
,,,,,,,,,674fa4a78b9d8a734154456f,spanish,13 or older,"no, only English or Spanish",no,2025-08-13_19h22.04.400,empathy_intonation_perc,2024.2.4,Win32,59.88023952,674fa4a78b9d8a734154456f,687ed1b7e638a4cbf2f02089,689d1dfd25d19d0646082ffd,,,,,,,,,,,,,,1,,,,,,,,,,,,,,,,,,,,,,,,,,,,,,,,,,,,,,,,,,,,,,,,,,,,,,,,,38,estornudar,,,,,472.7325,473.9477,1,1,0.6733,,0,14,14,37,1,REAL,FAKE,,,,,,,,,,,,,,,,,
,,,,,,,,,674fa4a78b9d8a734154456f,spanish,13 or older,"no, only English or Spanish",no,2025-08-13_19h22.04.400,empathy_intonation_perc,2024.2.4,Win32,59.88023952,674fa4a78b9d8a734154456f,687ed1b7e638a4cbf2f02089,689d1dfd25d19d0646082ffd,,,,,,,,,,,,,,1,,,,,,,,,,,,,,,,,,,,,,,,,,,,,,,,,,,,,,,,,,,,,,,,,,,,,,,,,67,cabello,,,,,473.9489,475.6808,1,1,1.1841,,0,15,15,66,1,REAL,FAKE,,,,,,,,,,,,,,,,,
,,,,,,,,,674fa4a78b9d8a734154456f,spanish,13 or older,"no, only English or Spanish",no,2025-08-13_19h22.04.400,empathy_intonation_perc,2024.2.4,Win32,59.88023952,674fa4a78b9d8a734154456f,687ed1b7e638a4cbf2f02089,689d1dfd25d19d0646082ffd,,,,,,,,,,,,,,1,,,,,,,,,,,,,,,,,,,,,,,,,,,,,,,,,,,,,,,,,,,,,,,,,,,,,,,,,7,pésimo,,,,,475.6817,477.5809,0,0,1.3509,,0,16,16,6,1,REAL,FAKE,,,,,,,,,,,,,,,,,
,,,,,,,,,674fa4a78b9d8a734154456f,spanish,13 or older,"no, only English or Spanish",no,2025-08-13_19h22.04.400,empathy_intonation_perc,2024.2.4,Win32,59.88023952,674fa4a78b9d8a734154456f,687ed1b7e638a4cbf2f02089,689d1dfd25d19d0646082ffd,,,,,,,,,,,,,,0,,,,,,,,,,,,,,,,,,,,,,,,,,,,,,,,,,,,,,,,,,,,,,,,,,,,,,,,,84,escuto,,,,,477.5825,479.4808,1,0,1.3499,,0,17,17,83,1,REAL,FAKE,,,,,,,,,,,,,,,,,
,,,,,,,,,674fa4a78b9d8a734154456f,spanish,13 or older,"no, only English or Spanish",no,2025-08-13_19h22.04.400,empathy_intonation_perc,2024.2.4,Win32,59.88023952,674fa4a78b9d8a734154456f,687ed1b7e638a4cbf2f02089,689d1dfd25d19d0646082ffd,,,,,,,,,,,,,,1,,,,,,,,,,,,,,,,,,,,,,,,,,,,,,,,,,,,,,,,,,,,,,,,,,,,,,,,,88,acantilado,,,,,479.4822,481.1973,1,1,1.171,,0,18,18,87,1,REAL,FAKE,,,,,,,,,,,,,,,,,
,,,,,,,,,674fa4a78b9d8a734154456f,spanish,13 or older,"no, only English or Spanish",no,2025-08-13_19h22.04.400,empathy_intonation_perc,2024.2.4,Win32,59.88023952,674fa4a78b9d8a734154456f,687ed1b7e638a4cbf2f02089,689d1dfd25d19d0646082ffd,,,,,,,,,,,,,,1,,,,,,,,,,,,,,,,,,,,,,,,,,,,,,,,,,,,,,,,,,,,,,,,,,,,,,,,,2,pellizcar,,,,,481.1991,483.0474,0,0,1.3019,,0,19,19,1,1,REAL,FAKE,,,,,,,,,,,,,,,,,
,,,,,,,,,674fa4a78b9d8a734154456f,spanish,13 or older,"no, only English or Spanish",no,2025-08-13_19h22.04.400,empathy_intonation_perc,2024.2.4,Win32,59.88023952,674fa4a78b9d8a734154456f,687ed1b7e638a4cbf2f02089,689d1dfd25d19d0646082ffd,,,,,,,,,,,,,,1,,,,,,,,,,,,,,,,,,,,,,,,,,,,,,,,,,,,,,,,,,,,,,,,,,,,,,,,,40,alfombra,,,,,483.0482,484.3137,0,0,0.7207,,0,20,20,39,1,REAL,FAKE,,,,,,,,,,,,,,,,,
,,,,,,,,,674fa4a78b9d8a734154456f,spanish,13 or older,"no, only English or Spanish",no,2025-08-13_19h22.04.400,empathy_intonation_perc,2024.2.4,Win32,59.88023952,674fa4a78b9d8a734154456f,687ed1b7e638a4cbf2f02089,689d1dfd25d19d0646082ffd,,,,,,,,,,,,,,1,,,,,,,,,,,,,,,,,,,,,,,,,,,,,,,,,,,,,,,,,,,,,,,,,,,,,,,,,65,bizcocho,,,,,484.315,485.5806,1,1,0.7182,,0,21,21,64,1,REAL,FAKE,,,,,,,,,,,,,,,,,
,,,,,,,,,674fa4a78b9d8a734154456f,spanish,13 or older,"no, only English or Spanish",no,2025-08-13_19h22.04.400,empathy_intonation_perc,2024.2.4,Win32,59.88023952,674fa4a78b9d8a734154456f,687ed1b7e638a4cbf2f02089,689d1dfd25d19d0646082ffd,,,,,,,,,,,,,,1,,,,,,,,,,,,,,,,,,,,,,,,,,,,,,,,,,,,,,,,,,,,,,,,,,,,,,,,,26,secuestro,,,,,485.5818,486.7974,1,1,0.6672,,0,22,22,25,1,REAL,FAKE,,,,,,,,,,,,,,,,,
,,,,,,,,,674fa4a78b9d8a734154456f,spanish,13 or older,"no, only English or Spanish",no,2025-08-13_19h22.04.400,empathy_intonation_perc,2024.2.4,Win32,59.88023952,674fa4a78b9d8a734154456f,687ed1b7e638a4cbf2f02089,689d1dfd25d19d0646082ffd,,,,,,,,,,,,,,0,,,,,,,,,,,,,,,,,,,,,,,,,,,,,,,,,,,,,,,,,,,,,,,,,,,,,,,,,19,brecedad,,,,,486.7983,488.2142,0,1,0.8668,,0,23,23,18,1,REAL,FAKE,,,,,,,,,,,,,,,,,
,,,,,,,,,674fa4a78b9d8a734154456f,spanish,13 or older,"no, only English or Spanish",no,2025-08-13_19h22.04.400,empathy_intonation_perc,2024.2.4,Win32,59.88023952,674fa4a78b9d8a734154456f,687ed1b7e638a4cbf2f02089,689d1dfd25d19d0646082ffd,,,,,,,,,,,,,,0,,,,,,,,,,,,,,,,,,,,,,,,,,,,,,,,,,,,,,,,,,,,,,,,,,,,,,,,,63,esposante,,,,,488.2156,489.8637,1,0,1.1022,,0,24,24,62,1,REAL,FAKE,,,,,,,,,,,,,,,,,
,,,,,,,,,674fa4a78b9d8a734154456f,spanish,13 or older,"no, only English or Spanish",no,2025-08-13_19h22.04.400,empathy_intonation_perc,2024.2.4,Win32,59.88023952,674fa4a78b9d8a734154456f,687ed1b7e638a4cbf2f02089,689d1dfd25d19d0646082ffd,,,,,,,,,,,,,,0,,,,,,,,,,,,,,,,,,,,,,,,,,,,,,,,,,,,,,,,,,,,,,,,,,,,,,,,,87,grodo,,,,,489.8653,491.4134,0,1,1.0102,,0,25,25,86,1,REAL,FAKE,,,,,,,,,,,,,,,,,
,,,,,,,,,674fa4a78b9d8a734154456f,spanish,13 or older,"no, only English or Spanish",no,2025-08-13_19h22.04.400,empathy_intonation_perc,2024.2.4,Win32,59.88023952,674fa4a78b9d8a734154456f,687ed1b7e638a4cbf2f02089,689d1dfd25d19d0646082ffd,,,,,,,,,,,,,,1,,,,,,,,,,,,,,,,,,,,,,,,,,,,,,,,,,,,,,,,,,,,,,,,,,,,,,,,,6,tergiversar,,,,,491.4148,493.5134,1,1,1.5504,,0,26,26,5,1,REAL,FAKE,,,,,,,,,,,,,,,,,
,,,,,,,,,674fa4a78b9d8a734154456f,spanish,13 or older,"no, only English or Spanish",no,2025-08-13_19h22.04.400,empathy_intonation_perc,2024.2.4,Win32,59.88023952,674fa4a78b9d8a734154456f,687ed1b7e638a4cbf2f02089,689d1dfd25d19d0646082ffd,,,,,,,,,,,,,,1,,,,,,,,,,,,,,,,,,,,,,,,,,,,,,,,,,,,,,,,,,,,,,,,,,,,,,,,,11,cenefa,,,,,493.5142,494.7969,1,1,0.734,,0,27,27,10,1,REAL,FAKE,,,,,,,,,,,,,,,,,
,,,,,,,,,674fa4a78b9d8a734154456f,spanish,13 or older,"no, only English or Spanish",no,2025-08-13_19h22.04.400,empathy_intonation_perc,2024.2.4,Win32,59.88023952,674fa4a78b9d8a734154456f,687ed1b7e638a4cbf2f02089,689d1dfd25d19d0646082ffd,,,,,,,,,,,,,,1,,,,,,,,,,,,,,,,,,,,,,,,,,,,,,,,,,,,,,,,,,,,,,,,,,,,,,,,,91,click the 1 key.,,,,,494.7988,497.3303,1,1,1.9838,,0,28,28,90,1,REAL,FAKE,,,,,,,,,,,,,,,,,
,,,,,,,,,674fa4a78b9d8a734154456f,spanish,13 or older,"no, only English or Spanish",no,2025-08-13_19h22.04.400,empathy_intonation_perc,2024.2.4,Win32,59.88023952,674fa4a78b9d8a734154456f,687ed1b7e638a4cbf2f02089,689d1dfd25d19d0646082ffd,,,,,,,,,,,,,,0,,,,,,,,,,,,,,,,,,,,,,,,,,,,,,,,,,,,,,,,,,,,,,,,,,,,,,,,,4,batillón,,,,,497.3312,499.4303,1,0,1.5579,,0,29,29,3,1,REAL,FAKE,,,,,,,,,,,,,,,,,
,,,,,,,,,674fa4a78b9d8a734154456f,spanish,13 or older,"no, only English or Spanish",no,2025-08-13_19h22.04.400,empathy_intonation_perc,2024.2.4,Win32,59.88023952,674fa4a78b9d8a734154456f,687ed1b7e638a4cbf2f02089,689d1dfd25d19d0646082ffd,,,,,,,,,,,,,,0,,,,,,,,,,,,,,,,,,,,,,,,,,,,,,,,,,,,,,,,,,,,,,,,,,,,,,,,,42,cadallo,,,,,499.4315,501.0973,0,1,1.1171,,0,30,30,41,1,REAL,FAKE,,,,,,,,,,,,,,,,,
,,,,,,,,,674fa4a78b9d8a734154456f,spanish,13 or older,"no, only English or Spanish",no,2025-08-13_19h22.04.400,empathy_intonation_perc,2024.2.4,Win32,59.88023952,674fa4a78b9d8a734154456f,687ed1b7e638a4cbf2f02089,689d1dfd25d19d0646082ffd,,,,,,,,,,,,,,1,,,,,,,,,,,,,,,,,,,,,,,,,,,,,,,,,,,,,,,,,,,,,,,,,,,,,,,,,28,merodear,,,,,501.0986,502.2133,0,0,0.5666,,0,31,31,27,1,REAL,FAKE,,,,,,,,,,,,,,,,,
,,,,,,,,,674fa4a78b9d8a734154456f,spanish,13 or older,"no, only English or Spanish",no,2025-08-13_19h22.04.400,empathy_intonation_perc,2024.2.4,Win32,59.88023952,674fa4a78b9d8a734154456f,687ed1b7e638a4cbf2f02089,689d1dfd25d19d0646082ffd,,,,,,,,,,,,,,1,,,,,,,,,,,,,,,,,,,,,,,,,,,,,,,,,,,,,,,,,,,,,,,,,,,,,,,,,39,torpe,,,,,502.214,503.447,0,0,0.6844,,0,32,32,38,1,REAL,FAKE,,,,,,,,,,,,,,,,,
,,,,,,,,,674fa4a78b9d8a734154456f,spanish,13 or older,"no, only English or Spanish",no,2025-08-13_19h22.04.400,empathy_intonation_perc,2024.2.4,Win32,59.88023952,674fa4a78b9d8a734154456f,687ed1b7e638a4cbf2f02089,689d1dfd25d19d0646082ffd,,,,,,,,,,,,,,1,,,,,,,,,,,,,,,,,,,,,,,,,,,,,,,,,,,,,,,,,,,,,,,,,,,,,,,,,54,fomentar,,,,,503.4478,504.8469,0,0,0.8507,,0,33,33,53,1,REAL,FAKE,,,,,,,,,,,,,,,,,
,,,,,,,,,674fa4a78b9d8a734154456f,spanish,13 or older,"no, only English or Spanish",no,2025-08-13_19h22.04.400,empathy_intonation_perc,2024.2.4,Win32,59.88023952,674fa4a78b9d8a734154456f,687ed1b7e638a4cbf2f02089,689d1dfd25d19d0646082ffd,,,,,,,,,,,,,,1,,,,,,,,,,,,,,,,,,,,,,,,,,,,,,,,,,,,,,,,,,,,,,,,,,,,,,,,,44,cuchara,,,,,504.8479,505.8637,1,1,0.4785,,0,34,34,43,1,REAL,FAKE,,,,,,,,,,,,,,,,,
,,,,,,,,,674fa4a78b9d8a734154456f,spanish,13 or older,"no, only English or Spanish",no,2025-08-13_19h22.04.400,empathy_intonation_perc,2024.2.4,Win32,59.88023952,674fa4a78b9d8a734154456f,687ed1b7e638a4cbf2f02089,689d1dfd25d19d0646082ffd,,,,,,,,,,,,,,0,,,,,,,,,,,,,,,,,,,,,,,,,,,,,,,,,,,,,,,,,,,,,,,,,,,,,,,,,92,click the 0 key.,,,,,505.8654,507.7635,0,1,1.3511,,0,35,35,91,1,REAL,FAKE,,,,,,,,,,,,,,,,,
,,,,,,,,,674fa4a78b9d8a734154456f,spanish,13 or older,"no, only English or Spanish",no,2025-08-13_19h22.04.400,empathy_intonation_perc,2024.2.4,Win32,59.88023952,674fa4a78b9d8a734154456f,687ed1b7e638a4cbf2f02089,689d1dfd25d19d0646082ffd,,,,,,,,,,,,,,0,,,,,,,,,,,,,,,,,,,,,,,,,,,,,,,,,,,,,,,,,,,,,,,,,,,,,,,,,21,capillo,,,,,507.765,509.5468,0,1,1.2449,,0,36,36,20,1,REAL,FAKE,,,,,,,,,,,,,,,,,
,,,,,,,,,674fa4a78b9d8a734154456f,spanish,13 or older,"no, only English or Spanish",no,2025-08-13_19h22.04.400,empathy_intonation_perc,2024.2.4,Win32,59.88023952,674fa4a78b9d8a734154456f,687ed1b7e638a4cbf2f02089,689d1dfd25d19d0646082ffd,,,,,,,,,,,,,,1,,,,,,,,,,,,,,,,,,,,,,,,,,,,,,,,,,,,,,,,,,,,,,,,,,,,,,,,,5,zapato,,,,,509.5482,510.7801,1,1,0.6893,,0,37,37,4,1,REAL,FAKE,,,,,,,,,,,,,,,,,
,,,,,,,,,674fa4a78b9d8a734154456f,spanish,13 or older,"no, only English or Spanish",no,2025-08-13_19h22.04.400,empathy_intonation_perc,2024.2.4,Win32,59.88023952,674fa4a78b9d8a734154456f,687ed1b7e638a4cbf2f02089,689d1dfd25d19d0646082ffd,,,,,,,,,,,,,,1,,,,,,,,,,,,,,,,,,,,,,,,,,,,,,,,,,,,,,,,,,,,,,,,,,,,,,,,,61,seda,,,,,510.7812,511.8463,1,1,0.528,,0,38,38,60,1,REAL,FAKE,,,,,,,,,,,,,,,,,
,,,,,,,,,674fa4a78b9d8a734154456f,spanish,13 or older,"no, only English or Spanish",no,2025-08-13_19h22.04.400,empathy_intonation_perc,2024.2.4,Win32,59.88023952,674fa4a78b9d8a734154456f,687ed1b7e638a4cbf2f02089,689d1dfd25d19d0646082ffd,,,,,,,,,,,,,,0,,,,,,,,,,,,,,,,,,,,,,,,,,,,,,,,,,,,,,,,,,,,,,,,,,,,,,,,,32,fatacidad,,,,,511.8477,513.3131,0,1,0.9442,,0,39,39,31,1,REAL,FAKE,,,,,,,,,,,,,,,,,
,,,,,,,,,674fa4a78b9d8a734154456f,spanish,13 or older,"no, only English or Spanish",no,2025-08-13_19h22.04.400,empathy_intonation_perc,2024.2.4,Win32,59.88023952,674fa4a78b9d8a734154456f,687ed1b7e638a4cbf2f02089,689d1dfd25d19d0646082ffd,,,,,,,,,,,,,,1,,,,,,,,,,,,,,,,,,,,,,,,,,,,,,,,,,,,,,,,,,,,,,,,,,,,,,,,,37,granuja,,,,,513.3145,514.5132,0,0,0.6507,,0,40,40,36,1,REAL,FAKE,,,,,,,,,,,,,,,,,
,,,,,,,,,674fa4a78b9d8a734154456f,spanish,13 or older,"no, only English or Spanish",no,2025-08-13_19h22.04.400,empathy_intonation_perc,2024.2.4,Win32,59.88023952,674fa4a78b9d8a734154456f,687ed1b7e638a4cbf2f02089,689d1dfd25d19d0646082ffd,,,,,,,,,,,,,,1,,,,,,,,,,,,,,,,,,,,,,,,,,,,,,,,,,,,,,,,,,,,,,,,,,,,,,,,,36,loro,,,,,514.514,515.963,1,1,0.9004,,0,41,41,35,1,REAL,FAKE,,,,,,,,,,,,,,,,,
,,,,,,,,,674fa4a78b9d8a734154456f,spanish,13 or older,"no, only English or Spanish",no,2025-08-13_19h22.04.400,empathy_intonation_perc,2024.2.4,Win32,59.88023952,674fa4a78b9d8a734154456f,687ed1b7e638a4cbf2f02089,689d1dfd25d19d0646082ffd,,,,,,,,,,,,,,1,,,,,,,,,,,,,,,,,,,,,,,,,,,,,,,,,,,,,,,,,,,,,,,,,,,,,,,,,83,guante,,,,,515.9639,517.1467,1,1,0.6379,,0,42,42,82,1,REAL,FAKE,,,,,,,,,,,,,,,,,
,,,,,,,,,674fa4a78b9d8a734154456f,spanish,13 or older,"no, only English or Spanish",no,2025-08-13_19h22.04.400,empathy_intonation_perc,2024.2.4,Win32,59.88023952,674fa4a78b9d8a734154456f,687ed1b7e638a4cbf2f02089,689d1dfd25d19d0646082ffd,,,,,,,,,,,,,,1,,,,,,,,,,,,,,,,,,,,,,,,,,,,,,,,,,,,,,,,,,,,,,,,,,,,,,,,,69,engatusar,,,,,517.1482,518.6802,1,1,0.9888,,0,43,43,68,1,REAL,FAKE,,,,,,,,,,,,,,,,,
,,,,,,,,,674fa4a78b9d8a734154456f,spanish,13 or older,"no, only English or Spanish",no,2025-08-13_19h22.04.400,empathy_intonation_perc,2024.2.4,Win32,59.88023952,674fa4a78b9d8a734154456f,687ed1b7e638a4cbf2f02089,689d1dfd25d19d0646082ffd,,,,,,,,,,,,,,1,,,,,,,,,,,,,,,,,,,,,,,,,,,,,,,,,,,,,,,,,,,,,,,,,,,,,,,,,81,pozo,,,,,518.6808,520.5967,0,0,1.3719,,0,44,44,80,1,REAL,FAKE,,,,,,,,,,,,,,,,,
,,,,,,,,,674fa4a78b9d8a734154456f,spanish,13 or older,"no, only English or Spanish",no,2025-08-13_19h22.04.400,empathy_intonation_perc,2024.2.4,Win32,59.88023952,674fa4a78b9d8a734154456f,687ed1b7e638a4cbf2f02089,689d1dfd25d19d0646082ffd,,,,,,,,,,,,,,0,,,,,,,,,,,,,,,,,,,,,,,,,,,,,,,,,,,,,,,,,,,,,,,,,,,,,,,,,66,hacido,,,,,520.5981,522.3794,1,0,1.2426,,0,45,45,65,1,REAL,FAKE,,,,,,,,,,,,,,,,,
,,,,,,,,,674fa4a78b9d8a734154456f,spanish,13 or older,"no, only English or Spanish",no,2025-08-13_19h22.04.400,empathy_intonation_perc,2024.2.4,Win32,59.88023952,674fa4a78b9d8a734154456f,687ed1b7e638a4cbf2f02089,689d1dfd25d19d0646082ffd,,,,,,,,,,,,,,1,,,,,,,,,,,,,,,,,,,,,,,,,,,,,,,,,,,,,,,,,,,,,,,,,,,,,,,,,78,frondoso,,,,,522.3804,523.6131,1,1,0.7102,,0,46,46,77,1,REAL,FAKE,,,,,,,,,,,,,,,,,
,,,,,,,,,674fa4a78b9d8a734154456f,spanish,13 or older,"no, only English or Spanish",no,2025-08-13_19h22.04.400,empathy_intonation_perc,2024.2.4,Win32,59.88023952,674fa4a78b9d8a734154456f,687ed1b7e638a4cbf2f02089,689d1dfd25d19d0646082ffd,,,,,,,,,,,,,,0,,,,,,,,,,,,,,,,,,,,,,,,,,,,,,,,,,,,,,,,,,,,,,,,,,,,,,,,,29,decar,,,,,523.6143,525.1632,0,1,1.0068,,0,47,47,28,1,REAL,FAKE,,,,,,,,,,,,,,,,,
,,,,,,,,,674fa4a78b9d8a734154456f,spanish,13 or older,"no, only English or Spanish",no,2025-08-13_19h22.04.400,empathy_intonation_perc,2024.2.4,Win32,59.88023952,674fa4a78b9d8a734154456f,687ed1b7e638a4cbf2f02089,689d1dfd25d19d0646082ffd,,,,,,,,,,,,,,1,,,,,,,,,,,,,,,,,,,,,,,,,,,,,,,,,,,,,,,,,,,,,,,,,,,,,,,,,73,hervidor,,,,,525.1644,526.6966,1,1,0.992,,0,48,48,72,1,REAL,FAKE,,,,,,,,,,,,,,,,,
,,,,,,,,,674fa4a78b9d8a734154456f,spanish,13 or older,"no, only English or Spanish",no,2025-08-13_19h22.04.400,empathy_intonation_perc,2024.2.4,Win32,59.88023952,674fa4a78b9d8a734154456f,687ed1b7e638a4cbf2f02089,689d1dfd25d19d0646082ffd,,,,,,,,,,,,,,0,,,,,,,,,,,,,,,,,,,,,,,,,,,,,,,,,,,,,,,,,,,,,,,,,,,,,,,,,53,vegada,,,,,526.6977,528.5795,1,0,1.3349,,0,49,49,52,1,REAL,FAKE,,,,,,,,,,,,,,,,,
,,,,,,,,,674fa4a78b9d8a734154456f,spanish,13 or older,"no, only English or Spanish",no,2025-08-13_19h22.04.400,empathy_intonation_perc,2024.2.4,Win32,59.88023952,674fa4a78b9d8a734154456f,687ed1b7e638a4cbf2f02089,689d1dfd25d19d0646082ffd,,,,,,,,,,,,,,1,,,,,,,,,,,,,,,,,,,,,,,,,,,,,,,,,,,,,,,,,,,,,,,,,,,,,,,,,22,lacayo,,,,,528.5805,530.463,1,1,1.3367,,0,50,50,21,1,REAL,FAKE,,,,,,,,,,,,,,,,,
,,,,,,,,,674fa4a78b9d8a734154456f,spanish,13 or older,"no, only English or Spanish",no,2025-08-13_19h22.04.400,empathy_intonation_perc,2024.2.4,Win32,59.88023952,674fa4a78b9d8a734154456f,687ed1b7e638a4cbf2f02089,689d1dfd25d19d0646082ffd,,,,,,,,,,,,,,0,,,,,,,,,,,,,,,,,,,,,,,,,,,,,,,,,,,,,,,,,,,,,,,,,,,,,,,,,72,pemición,,,,,530.4647,531.8632,0,1,0.8584,,0,51,51,71,1,REAL,FAKE,,,,,,,,,,,,,,,,,
,,,,,,,,,674fa4a78b9d8a734154456f,spanish,13 or older,"no, only English or Spanish",no,2025-08-13_19h22.04.400,empathy_intonation_perc,2024.2.4,Win32,59.88023952,674fa4a78b9d8a734154456f,687ed1b7e638a4cbf2f02089,689d1dfd25d19d0646082ffd,,,,,,,,,,,,,,0,,,,,,,,,,,,,,,,,,,,,,,,,,,,,,,,,,,,,,,,,,,,,,,,,,,,,,,,,70,temblo,,,,,531.8645,533.5628,1,0,1.161,,0,52,52,69,1,REAL,FAKE,,,,,,,,,,,,,,,,,
,,,,,,,,,674fa4a78b9d8a734154456f,spanish,13 or older,"no, only English or Spanish",no,2025-08-13_19h22.04.400,empathy_intonation_perc,2024.2.4,Win32,59.88023952,674fa4a78b9d8a734154456f,687ed1b7e638a4cbf2f02089,689d1dfd25d19d0646082ffd,,,,,,,,,,,,,,1,,,,,,,,,,,,,,,,,,,,,,,,,,,,,,,,,,,,,,,,,,,,,,,,,,,,,,,,,31,pandilla,,,,,533.5643,535.2463,0,0,1.1399,,0,53,53,30,1,REAL,FAKE,,,,,,,,,,,,,,,,,
,,,,,,,,,674fa4a78b9d8a734154456f,spanish,13 or older,"no, only English or Spanish",no,2025-08-13_19h22.04.400,empathy_intonation_perc,2024.2.4,Win32,59.88023952,674fa4a78b9d8a734154456f,687ed1b7e638a4cbf2f02089,689d1dfd25d19d0646082ffd,,,,,,,,,,,,,,0,,,,,,,,,,,,,,,,,,,,,,,,,,,,,,,,,,,,,,,,,,,,,,,,,,,,,,,,,18,arsa,,,,,535.2472,536.5629,0,1,0.7693,,0,54,54,17,1,REAL,FAKE,,,,,,,,,,,,,,,,,
,,,,,,,,,674fa4a78b9d8a734154456f,spanish,13 or older,"no, only English or Spanish",no,2025-08-13_19h22.04.400,empathy_intonation_perc,2024.2.4,Win32,59.88023952,674fa4a78b9d8a734154456f,687ed1b7e638a4cbf2f02089,689d1dfd25d19d0646082ffd,,,,,,,,,,,,,,0,,,,,,,,,,,,,,,,,,,,,,,,,,,,,,,,,,,,,,,,,,,,,,,,,,,,,,,,,74,cintro,,,,,536.5639,537.83,1,0,0.7171,,0,55,55,73,1,REAL,FAKE,,,,,,,,,,,,,,,,,
,,,,,,,,,674fa4a78b9d8a734154456f,spanish,13 or older,"no, only English or Spanish",no,2025-08-13_19h22.04.400,empathy_intonation_perc,2024.2.4,Win32,59.88023952,674fa4a78b9d8a734154456f,687ed1b7e638a4cbf2f02089,689d1dfd25d19d0646082ffd,,,,,,,,,,,,,,1,,,,,,,,,,,,,,,,,,,,,,,,,,,,,,,,,,,,,,,,,,,,,,,,,,,,,,,,,43,canela,,,,,537.8312,539.4465,1,1,1.0669,,0,56,56,42,1,REAL,FAKE,,,,,,,,,,,,,,,,,
,,,,,,,,,674fa4a78b9d8a734154456f,spanish,13 or older,"no, only English or Spanish",no,2025-08-13_19h22.04.400,empathy_intonation_perc,2024.2.4,Win32,59.88023952,674fa4a78b9d8a734154456f,687ed1b7e638a4cbf2f02089,689d1dfd25d19d0646082ffd,,,,,,,,,,,,,,1,,,,,,,,,,,,,,,,,,,,,,,,,,,,,,,,,,,,,,,,,,,,,,,,,,,,,,,,,25,bisagra,,,,,539.4477,540.763,1,1,0.7747,,0,57,57,24,1,REAL,FAKE,,,,,,,,,,,,,,,,,
,,,,,,,,,674fa4a78b9d8a734154456f,spanish,13 or older,"no, only English or Spanish",no,2025-08-13_19h22.04.400,empathy_intonation_perc,2024.2.4,Win32,59.88023952,674fa4a78b9d8a734154456f,687ed1b7e638a4cbf2f02089,689d1dfd25d19d0646082ffd,,,,,,,,,,,,,,1,,,,,,,,,,,,,,,,,,,,,,,,,,,,,,,,,,,,,,,,,,,,,,,,,,,,,,,,,71,polvoriento,,,,,540.7644,542.3797,0,0,1.0687,,0,58,58,70,1,REAL,FAKE,,,,,,,,,,,,,,,,,
,,,,,,,,,674fa4a78b9d8a734154456f,spanish,13 or older,"no, only English or Spanish",no,2025-08-13_19h22.04.400,empathy_intonation_perc,2024.2.4,Win32,59.88023952,674fa4a78b9d8a734154456f,687ed1b7e638a4cbf2f02089,689d1dfd25d19d0646082ffd,,,,,,,,,,,,,,1,,,,,,,,,,,,,,,,,,,,,,,,,,,,,,,,,,,,,,,,,,,,,,,,,,,,,,,,,62,flaco,,,,,542.3808,544.1295,1,1,1.2005,,0,59,59,61,1,REAL,FAKE,,,,,,,,,,,,,,,,,
,,,,,,,,,674fa4a78b9d8a734154456f,spanish,13 or older,"no, only English or Spanish",no,2025-08-13_19h22.04.400,empathy_intonation_perc,2024.2.4,Win32,59.88023952,674fa4a78b9d8a734154456f,687ed1b7e638a4cbf2f02089,689d1dfd25d19d0646082ffd,,,,,,,,,,,,,,1,,,,,,,,,,,,,,,,,,,,,,,,,,,,,,,,,,,,,,,,,,,,,,,,,,,,,,,,,3,pulmones,,,,,544.1304,546.2128,1,1,1.5367,,0,60,60,2,1,REAL,FAKE,,,,,,,,,,,,,,,,,
,,,,,,,,,674fa4a78b9d8a734154456f,spanish,13 or older,"no, only English or Spanish",no,2025-08-13_19h22.04.400,empathy_intonation_perc,2024.2.4,Win32,59.88023952,674fa4a78b9d8a734154456f,687ed1b7e638a4cbf2f02089,689d1dfd25d19d0646082ffd,,,,,,,,,,,,,,1,,,,,,,,,,,,,,,,,,,,,,,,,,,,,,,,,,,,,,,,,,,,,,,,,,,,,,,,,57,tacaño,,,,,546.214,547.9961,0,0,1.2334,,0,61,61,56,1,REAL,FAKE,,,,,,,,,,,,,,,,,
,,,,,,,,,674fa4a78b9d8a734154456f,spanish,13 or older,"no, only English or Spanish",no,2025-08-13_19h22.04.400,empathy_intonation_perc,2024.2.4,Win32,59.88023952,674fa4a78b9d8a734154456f,687ed1b7e638a4cbf2f02089,689d1dfd25d19d0646082ffd,,,,,,,,,,,,,,1,,,,,,,,,,,,,,,,,,,,,,,,,,,,,,,,,,,,,,,,,,,,,,,,,,,,,,,,,56,musgo,,,,,547.9973,549.6962,0,0,1.1505,,0,62,62,55,1,REAL,FAKE,,,,,,,,,,,,,,,,,
,,,,,,,,,674fa4a78b9d8a734154456f,spanish,13 or older,"no, only English or Spanish",no,2025-08-13_19h22.04.400,empathy_intonation_perc,2024.2.4,Win32,59.88023952,674fa4a78b9d8a734154456f,687ed1b7e638a4cbf2f02089,689d1dfd25d19d0646082ffd,,,,,,,,,,,,,,0,,,,,,,,,,,,,,,,,,,,,,,,,,,,,,,,,,,,,,,,,,,,,,,,,,,,,,,,,33,pauca,,,,,549.6972,550.9967,0,1,0.7605,,0,63,63,32,1,REAL,FAKE,,,,,,,,,,,,,,,,,
,,,,,,,,,674fa4a78b9d8a734154456f,spanish,13 or older,"no, only English or Spanish",no,2025-08-13_19h22.04.400,empathy_intonation_perc,2024.2.4,Win32,59.88023952,674fa4a78b9d8a734154456f,687ed1b7e638a4cbf2f02089,689d1dfd25d19d0646082ffd,,,,,,,,,,,,,,1,,,,,,,,,,,,,,,,,,,,,,,,,,,,,,,,,,,,,,,,,,,,,,,,,,,,,,,,,48,ladrón,,,,,550.998,552.5627,1,1,1.0169,,0,64,64,47,1,REAL,FAKE,,,,,,,,,,,,,,,,,
,,,,,,,,,674fa4a78b9d8a734154456f,spanish,13 or older,"no, only English or Spanish",no,2025-08-13_19h22.04.400,empathy_intonation_perc,2024.2.4,Win32,59.88023952,674fa4a78b9d8a734154456f,687ed1b7e638a4cbf2f02089,689d1dfd25d19d0646082ffd,,,,,,,,,,,,,,0,,,,,,,,,,,,,,,,,,,,,,,,,,,,,,,,,,,,,,,,,,,,,,,,,,,,,,,,,10,antar,,,,,552.5637,554.0961,0,1,0.9924,,0,65,65,9,1,REAL,FAKE,,,,,,,,,,,,,,,,,
,,,,,,,,,674fa4a78b9d8a734154456f,spanish,13 or older,"no, only English or Spanish",no,2025-08-13_19h22.04.400,empathy_intonation_perc,2024.2.4,Win32,59.88023952,674fa4a78b9d8a734154456f,687ed1b7e638a4cbf2f02089,689d1dfd25d19d0646082ffd,,,,,,,,,,,,,,0,,,,,,,,,,,,,,,,,,,,,,,,,,,,,,,,,,,,,,,,,,,,,,,,,,,,,,,,,79,tropaje,,,,,554.0973,555.646,0,1,1.0008,,0,66,66,78,1,REAL,FAKE,,,,,,,,,,,,,,,,,
,,,,,,,,,674fa4a78b9d8a734154456f,spanish,13 or older,"no, only English or Spanish",no,2025-08-13_19h22.04.400,empathy_intonation_perc,2024.2.4,Win32,59.88023952,674fa4a78b9d8a734154456f,687ed1b7e638a4cbf2f02089,689d1dfd25d19d0646082ffd,,,,,,,,,,,,,,1,,,,,,,,,,,,,,,,,,,,,,,,,,,,,,,,,,,,,,,,,,,,,,,,,,,,,,,,,75,yacer,,,,,555.6472,556.929,0,0,0.735,,0,67,67,74,1,REAL,FAKE,,,,,,,,,,,,,,,,,
,,,,,,,,,674fa4a78b9d8a734154456f,spanish,13 or older,"no, only English or Spanish",no,2025-08-13_19h22.04.400,empathy_intonation_perc,2024.2.4,Win32,59.88023952,674fa4a78b9d8a734154456f,687ed1b7e638a4cbf2f02089,689d1dfd25d19d0646082ffd,,,,,,,,,,,,,,0,,,,,,,,,,,,,,,,,,,,,,,,,,,,,,,,,,,,,,,,,,,,,,,,,,,,,,,,,17,floroso,,,,,556.93,558.0622,1,0,0.5942,,0,68,68,16,1,REAL,FAKE,,,,,,,,,,,,,,,,,
,,,,,,,,,674fa4a78b9d8a734154456f,spanish,13 or older,"no, only English or Spanish",no,2025-08-13_19h22.04.400,empathy_intonation_perc,2024.2.4,Win32,59.88023952,674fa4a78b9d8a734154456f,687ed1b7e638a4cbf2f02089,689d1dfd25d19d0646082ffd,,,,,,,,,,,,,,1,,,,,,,,,,,,,,,,,,,,,,,,,,,,,,,,,,,,,,,,,,,,,,,,,,,,,,,,,24,látigo,,,,,558.0637,559.7458,0,0,1.1531,,0,69,69,23,1,REAL,FAKE,,,,,,,,,,,,,,,,,
,,,,,,,,,674fa4a78b9d8a734154456f,spanish,13 or older,"no, only English or Spanish",no,2025-08-13_19h22.04.400,empathy_intonation_perc,2024.2.4,Win32,59.88023952,674fa4a78b9d8a734154456f,687ed1b7e638a4cbf2f02089,689d1dfd25d19d0646082ffd,,,,,,,,,,,,,,1,,,,,,,,,,,,,,,,,,,,,,,,,,,,,,,,,,,,,,,,,,,,,,,,,,,,,,,,,60,matar,,,,,559.7464,562.0791,0,0,1.7837,,0,70,70,59,1,REAL,FAKE,,,,,,,,,,,,,,,,,
,,,,,,,,,674fa4a78b9d8a734154456f,spanish,13 or older,"no, only English or Spanish",no,2025-08-13_19h22.04.400,empathy_intonation_perc,2024.2.4,Win32,59.88023952,674fa4a78b9d8a734154456f,687ed1b7e638a4cbf2f02089,689d1dfd25d19d0646082ffd,,,,,,,,,,,,,,1,,,,,,,,,,,,,,,,,,,,,,,,,,,,,,,,,,,,,,,,,,,,,,,,,,,,,,,,,80,hormiga,,,,,562.0805,563.3626,1,1,0.7345,,0,71,71,79,1,REAL,FAKE,,,,,,,,,,,,,,,,,
,,,,,,,,,674fa4a78b9d8a734154456f,spanish,13 or older,"no, only English or Spanish",no,2025-08-13_19h22.04.400,empathy_intonation_perc,2024.2.4,Win32,59.88023952,674fa4a78b9d8a734154456f,687ed1b7e638a4cbf2f02089,689d1dfd25d19d0646082ffd,,,,,,,,,,,,,,0,,,,,,,,,,,,,,,,,,,,,,,,,,,,,,,,,,,,,,,,,,,,,,,,,,,,,,,,,30,alardio,,,,,563.364,564.679,1,0,0.7671,,0,72,72,29,1,REAL,FAKE,,,,,,,,,,,,,,,,,
,,,,,,,,,674fa4a78b9d8a734154456f,spanish,13 or older,"no, only English or Spanish",no,2025-08-13_19h22.04.400,empathy_intonation_perc,2024.2.4,Win32,59.88023952,674fa4a78b9d8a734154456f,687ed1b7e638a4cbf2f02089,689d1dfd25d19d0646082ffd,,,,,,,,,,,,,,1,,,,,,,,,,,,,,,,,,,,,,,,,,,,,,,,,,,,,,,,,,,,,,,,,,,,,,,,,85,laúd,,,,,564.6801,566.213,1,1,0.9959,,0,73,73,84,1,REAL,FAKE,,,,,,,,,,,,,,,,,
,,,,,,,,,674fa4a78b9d8a734154456f,spanish,13 or older,"no, only English or Spanish",no,2025-08-13_19h22.04.400,empathy_intonation_perc,2024.2.4,Win32,59.88023952,674fa4a78b9d8a734154456f,687ed1b7e638a4cbf2f02089,689d1dfd25d19d0646082ffd,,,,,,,,,,,,,,1,,,,,,,,,,,,,,,,,,,,,,,,,,,,,,,,,,,,,,,,,,,,,,,,,,,,,,,,,55,nevar,,,,,566.2143,567.5791,0,0,0.8213,,0,74,74,54,1,REAL,FAKE,,,,,,,,,,,,,,,,,
,,,,,,,,,674fa4a78b9d8a734154456f,spanish,13 or older,"no, only English or Spanish",no,2025-08-13_19h22.04.400,empathy_intonation_perc,2024.2.4,Win32,59.88023952,674fa4a78b9d8a734154456f,687ed1b7e638a4cbf2f02089,689d1dfd25d19d0646082ffd,,,,,,,,,,,,,,1,,,,,,,,,,,,,,,,,,,,,,,,,,,,,,,,,,,,,,,,,,,,,,,,,,,,,,,,,49,ganar,,,,,567.5799,568.7622,0,0,0.6429,,0,75,75,48,1,REAL,FAKE,,,,,,,,,,,,,,,,,
,,,,,,,,,674fa4a78b9d8a734154456f,spanish,13 or older,"no, only English or Spanish",no,2025-08-13_19h22.04.400,empathy_intonation_perc,2024.2.4,Win32,59.88023952,674fa4a78b9d8a734154456f,687ed1b7e638a4cbf2f02089,689d1dfd25d19d0646082ffd,,,,,,,,,,,,,,1,,,,,,,,,,,,,,,,,,,,,,,,,,,,,,,,,,,,,,,,,,,,,,,,,,,,,,,,,51,candado,,,,,568.7635,570.1125,1,1,0.8003,,0,76,76,50,1,REAL,FAKE,,,,,,,,,,,,,,,,,
,,,,,,,,,674fa4a78b9d8a734154456f,spanish,13 or older,"no, only English or Spanish",no,2025-08-13_19h22.04.400,empathy_intonation_perc,2024.2.4,Win32,59.88023952,674fa4a78b9d8a734154456f,687ed1b7e638a4cbf2f02089,689d1dfd25d19d0646082ffd,,,,,,,,,,,,,,1,,,,,,,,,,,,,,,,,,,,,,,,,,,,,,,,,,,,,,,,,,,,,,,,,,,,,,,,,59,besar,,,,,570.1137,571.5288,0,0,0.8755,,0,77,77,58,1,REAL,FAKE,,,,,,,,,,,,,,,,,
,,,,,,,,,674fa4a78b9d8a734154456f,spanish,13 or older,"no, only English or Spanish",no,2025-08-13_19h22.04.400,empathy_intonation_perc,2024.2.4,Win32,59.88023952,674fa4a78b9d8a734154456f,687ed1b7e638a4cbf2f02089,689d1dfd25d19d0646082ffd,,,,,,,,,,,,,,0,,,,,,,,,,,,,,,,,,,,,,,,,,,,,,,,,,,,,,,,,,,,,,,,,,,,,,,,,16,abracer,,,,,571.5298,573.0622,0,1,0.9847,,0,78,78,15,1,REAL,FAKE,,,,,,,,,,,,,,,,,
,,,,,,,,,674fa4a78b9d8a734154456f,spanish,13 or older,"no, only English or Spanish",no,2025-08-13_19h22.04.400,empathy_intonation_perc,2024.2.4,Win32,59.88023952,674fa4a78b9d8a734154456f,687ed1b7e638a4cbf2f02089,689d1dfd25d19d0646082ffd,,,,,,,,,,,,,,1,,,,,,,,,,,,,,,,,,,,,,,,,,,,,,,,,,,,,,,,,,,,,,,,,,,,,,,,,89,prisa,,,,,573.0631,574.312,1,1,0.7098,,0,79,79,88,1,REAL,FAKE,,,,,,,,,,,,,,,,,
,,,,,,,,,674fa4a78b9d8a734154456f,spanish,13 or older,"no, only English or Spanish",no,2025-08-13_19h22.04.400,empathy_intonation_perc,2024.2.4,Win32,59.88023952,674fa4a78b9d8a734154456f,687ed1b7e638a4cbf2f02089,689d1dfd25d19d0646082ffd,,,,,,,,,,,,,,0,,,,,,,,,,,,,,,,,,,,,,,,,,,,,,,,,,,,,,,,,,,,,,,,,,,,,,,,,23,lampera,,,,,574.3133,575.5959,1,0,0.7336,,0,80,80,22,1,REAL,FAKE,,,,,,,,,,,,,,,,,
,,,,,,,,,674fa4a78b9d8a734154456f,spanish,13 or older,"no, only English or Spanish",no,2025-08-13_19h22.04.400,empathy_intonation_perc,2024.2.4,Win32,59.88023952,674fa4a78b9d8a734154456f,687ed1b7e638a4cbf2f02089,689d1dfd25d19d0646082ffd,,,,,,,,,,,,,,0,,,,,,,,,,,,,,,,,,,,,,,,,,,,,,,,,,,,,,,,,,,,,,,,,,,,,,,,,35,rompido,,,,,575.5973,576.8454,1,0,0.7002,,0,81,81,34,1,REAL,FAKE,,,,,,,,,,,,,,,,,
,,,,,,,,,674fa4a78b9d8a734154456f,spanish,13 or older,"no, only English or Spanish",no,2025-08-13_19h22.04.400,empathy_intonation_perc,2024.2.4,Win32,59.88023952,674fa4a78b9d8a734154456f,687ed1b7e638a4cbf2f02089,689d1dfd25d19d0646082ffd,,,,,,,,,,,,,,0,,,,,,,,,,,,,,,,,,,,,,,,,,,,,,,,,,,,,,,,,,,,,,,,,,,,,,,,,1,terzo,,,,,576.8461,578.029,1,0,0.6401,,0,82,82,0,1,REAL,FAKE,,,,,,,,,,,,,,,,,
,,,,,,,,,674fa4a78b9d8a734154456f,spanish,13 or older,"no, only English or Spanish",no,2025-08-13_19h22.04.400,empathy_intonation_perc,2024.2.4,Win32,59.88023952,674fa4a78b9d8a734154456f,687ed1b7e638a4cbf2f02089,689d1dfd25d19d0646082ffd,,,,,,,,,,,,,,0,,,,,,,,,,,,,,,,,,,,,,,,,,,,,,,,,,,,,,,,,,,,,,,,,,,,,,,,,47,cartinar,,,,,578.03,579.2789,1,0,0.7003,,0,83,83,46,1,REAL,FAKE,,,,,,,,,,,,,,,,,
,,,,,,,,,674fa4a78b9d8a734154456f,spanish,13 or older,"no, only English or Spanish",no,2025-08-13_19h22.04.400,empathy_intonation_perc,2024.2.4,Win32,59.88023952,674fa4a78b9d8a734154456f,687ed1b7e638a4cbf2f02089,689d1dfd25d19d0646082ffd,,,,,,,,,,,,,,1,,,,,,,,,,,,,,,,,,,,,,,,,,,,,,,,,,,,,,,,,,,,,,,,,,,,,,,,,9,hacha,,,,,579.2804,580.6118,0,0,0.794,,0,84,84,8,1,REAL,FAKE,,,,,,,,,,,,,,,,,
,,,,,,,,,674fa4a78b9d8a734154456f,spanish,13 or older,"no, only English or Spanish",no,2025-08-13_19h22.04.400,empathy_intonation_perc,2024.2.4,Win32,59.88023952,674fa4a78b9d8a734154456f,687ed1b7e638a4cbf2f02089,689d1dfd25d19d0646082ffd,,,,,,,,,,,,,,0,,,,,,,,,,,,,,,,,,,,,,,,,,,,,,,,,,,,,,,,,,,,,,,,,,,,,,,,,27,acutación,,,,,580.6131,582.0451,0,1,0.8916,,0,85,85,26,1,REAL,FAKE,,,,,,,,,,,,,,,,,
,,,,,,,,,674fa4a78b9d8a734154456f,spanish,13 or older,"no, only English or Spanish",no,2025-08-13_19h22.04.400,empathy_intonation_perc,2024.2.4,Win32,59.88023952,674fa4a78b9d8a734154456f,687ed1b7e638a4cbf2f02089,689d1dfd25d19d0646082ffd,,,,,,,,,,,,,,0,,,,,,,,,,,,,,,,,,,,,,,,,,,,,,,,,,,,,,,,,,,,,,,,,,,,,,,,,58,plaudir,,,,,582.0465,584.1617,1,0,1.5767,,0,86,86,57,1,REAL,FAKE,,,,,,,,,,,,,,,,,
,,,,,,,,,674fa4a78b9d8a734154456f,spanish,13 or older,"no, only English or Spanish",no,2025-08-13_19h22.04.400,empathy_intonation_perc,2024.2.4,Win32,59.88023952,674fa4a78b9d8a734154456f,687ed1b7e638a4cbf2f02089,689d1dfd25d19d0646082ffd,,,,,,,,,,,,,,1,,,,,,,,,,,,,,,,,,,,,,,,,,,,,,,,,,,,,,,,,,,,,,,,,,,,,,,,,15,regar,,,,,584.1629,585.5952,0,0,0.8939,,0,87,87,14,1,REAL,FAKE,,,,,,,,,,,,,,,,,
,,,,,,,,,674fa4a78b9d8a734154456f,spanish,13 or older,"no, only English or Spanish",no,2025-08-13_19h22.04.400,empathy_intonation_perc,2024.2.4,Win32,59.88023952,674fa4a78b9d8a734154456f,687ed1b7e638a4cbf2f02089,689d1dfd25d19d0646082ffd,,,,,,,,,,,,,,1,,,,,,,,,,,,,,,,,,,,,,,,,,,,,,,,,,,,,,,,,,,,,,,,,,,,,,,,,46,martillo,,,,,585.5963,586.7785,1,1,0.6444,,0,88,88,45,1,REAL,FAKE,,,,,,,,,,,,,,,,,
,,,,,,,,,674fa4a78b9d8a734154456f,spanish,13 or older,"no, only English or Spanish",no,2025-08-13_19h22.04.400,empathy_intonation_perc,2024.2.4,Win32,59.88023952,674fa4a78b9d8a734154456f,687ed1b7e638a4cbf2f02089,689d1dfd25d19d0646082ffd,,,,,,,,,,,,,,0,,,,,,,,,,,,,,,,,,,,,,,,,,,,,,,,,,,,,,,,,,,,,,,,,,,,,,,,,82,empirador,,,,,586.7798,588.2954,1,0,0.9666,,0,89,89,81,1,REAL,FAKE,,,,,,,,,,,,,,,,,
,,,,,,,,,674fa4a78b9d8a734154456f,spanish,13 or older,"no, only English or Spanish",no,2025-08-13_19h22.04.400,empathy_intonation_perc,2024.2.4,Win32,59.88023952,674fa4a78b9d8a734154456f,687ed1b7e638a4cbf2f02089,689d1dfd25d19d0646082ffd,,,,,,,,,,,,,,0,,,,,,,,,,,,,,,,,,,,,,,,,,,,,,,,,,,,,,,,,,,,,,,,,,,,,,,,,50,flamida,,,,,588.2967,589.9455,0,1,1.112,,0,90,90,49,1,REAL,FAKE,,,,,,,,,,,,,,,,,
,,,,,,,,,674fa4a78b9d8a734154456f,spanish,13 or older,"no, only English or Spanish",no,2025-08-13_19h22.04.400,empathy_intonation_perc,2024.2.4,Win32,59.88023952,674fa4a78b9d8a734154456f,687ed1b7e638a4cbf2f02089,689d1dfd25d19d0646082ffd,,,,,,,,,,,,,,1,,,,,,,,,,,,,,,,,,,,,,,,,,,,,,,,,,,,,,,,,,,,,,,,,,,,,,,,,34,aviso,,,,,589.9468,591.2453,0,0,0.7509,,0,91,91,33,1,REAL,FAKE,,,,,,,,,,,,,,,,,
,,,,,,,,,674fa4a78b9d8a734154456f,spanish,13 or older,"no, only English or Spanish",no,2025-08-13_19h22.04.400,empathy_intonation_perc,2024.2.4,Win32,59.88023952,674fa4a78b9d8a734154456f,687ed1b7e638a4cbf2f02089,689d1dfd25d19d0646082ffd,,,,,,,,,,,,,,,,,,,,,,,,,,,,,,,,,,,,,,,,,,,,,,,,,,,,,,,,,,,,,,,,,,,,,,,,,,,,,,,,,,,,,,,,,,591.2457,595.3957,,,,,,,,,,,,,,,
,,,,,,,,,674fa4a78b9d8a734154456f,spanish,13 or older,"no, only English or Spanish",no,2025-08-13_19h22.04.400,empathy_intonation_perc,2024.2.4,Win32,59.88023952,674fa4a78b9d8a734154456f,687ed1b7e638a4cbf2f02089,689d1dfd25d19d0646082ffd,,,,,,,,,,,,,1,,,,,,,,,,,,,,,,,,,,,,,,,,,,,,,,,,,,,,,,,,,,,,,,,,,,,,,,,,,,,,,,,,,,,,,,,,,,,,,595.4043,601.062,slightly agree,0,0,0,0,1,I can easily tell if someone else wants to enter a conversation.,1,0,1,0,,
,,,,,,,,,674fa4a78b9d8a734154456f,spanish,13 or older,"no, only English or Spanish",no,2025-08-13_19h22.04.400,empathy_intonation_perc,2024.2.4,Win32,59.88023952,674fa4a78b9d8a734154456f,687ed1b7e638a4cbf2f02089,689d1dfd25d19d0646082ffd,,,,,,,,,,,,,2,,,,,,,,,,,,,,,,,,,,,,,,,,,,,,,,,,,,,,,,,,,,,,,,,,,,,,,,,,,,,,,,,,,,,,,,,,,,,,,601.0643,602.4284,slightly agree,0,1,1,1,1,I prefer animals to humans.,0,1,0,0,,
,,,,,,,,,674fa4a78b9d8a734154456f,spanish,13 or older,"no, only English or Spanish",no,2025-08-13_19h22.04.400,empathy_intonation_perc,2024.2.4,Win32,59.88023952,674fa4a78b9d8a734154456f,687ed1b7e638a4cbf2f02089,689d1dfd25d19d0646082ffd,,,,,,,,,,,,,3,,,,,,,,,,,,,,,,,,,,,,,,,,,,,,,,,,,,,,,,,,,,,,,,,,,,,,,,,,,,,,,,,,,,,,,,,,,,,,,602.4305,606.1452,strongly disagree,0,2,2,2,1,I try to keep up with the current trends and fashions.,0,1,0,0,,
,,,,,,,,,674fa4a78b9d8a734154456f,spanish,13 or older,"no, only English or Spanish",no,2025-08-13_19h22.04.400,empathy_intonation_perc,2024.2.4,Win32,59.88023952,674fa4a78b9d8a734154456f,687ed1b7e638a4cbf2f02089,689d1dfd25d19d0646082ffd,,,,,,,,,,,,,4,,,,,,,,,,,,,,,,,,,,,,,,,,,,,,,,,,,,,,,,,,,,,,,,,,,,,,,,,,,,,,,,,,,,,,,,,,,,,,,606.1476,609.6283,slightly disagree,0,3,3,3,1,"I find it difficult to explain to others things that I understand easily,   when they don't understand it first time.",1,0,0,1,,
,,,,,,,,,674fa4a78b9d8a734154456f,spanish,13 or older,"no, only English or Spanish",no,2025-08-13_19h22.04.400,empathy_intonation_perc,2024.2.4,Win32,59.88023952,674fa4a78b9d8a734154456f,687ed1b7e638a4cbf2f02089,689d1dfd25d19d0646082ffd,,,,,,,,,,,,,5,,,,,,,,,,,,,,,,,,,,,,,,,,,,,,,,,,,,,,,,,,,,,,,,,,,,,,,,,,,,,,,,,,,,,,,,,,,,,,,609.6298,612.8283,strongly agree,0,4,4,4,1,I dream most nights.,0,1,0,0,,
,,,,,,,,,674fa4a78b9d8a734154456f,spanish,13 or older,"no, only English or Spanish",no,2025-08-13_19h22.04.400,empathy_intonation_perc,2024.2.4,Win32,59.88023952,674fa4a78b9d8a734154456f,687ed1b7e638a4cbf2f02089,689d1dfd25d19d0646082ffd,,,,,,,,,,,,,6,,,,,,,,,,,,,,,,,,,,,,,,,,,,,,,,,,,,,,,,,,,,,,,,,,,,,,,,,,,,,,,,,,,,,,,,,,,,,,,612.8306,614.562,strongly agree,0,5,5,5,1,I really enjoy caring for other people.,1,0,1,0,,
,,,,,,,,,674fa4a78b9d8a734154456f,spanish,13 or older,"no, only English or Spanish",no,2025-08-13_19h22.04.400,empathy_intonation_perc,2024.2.4,Win32,59.88023952,674fa4a78b9d8a734154456f,687ed1b7e638a4cbf2f02089,689d1dfd25d19d0646082ffd,,,,,,,,,,,,,7,,,,,,,,,,,,,,,,,,,,,,,,,,,,,,,,,,,,,,,,,,,,,,,,,,,,,,,,,,,,,,,,,,,,,,,,,,,,,,,614.5642,617.245,slightly disagree,0,6,6,6,1,I try to solve my own problems rather than discussing them with others.,0,1,0,0,,
,,,,,,,,,674fa4a78b9d8a734154456f,spanish,13 or older,"no, only English or Spanish",no,2025-08-13_19h22.04.400,empathy_intonation_perc,2024.2.4,Win32,59.88023952,674fa4a78b9d8a734154456f,687ed1b7e638a4cbf2f02089,689d1dfd25d19d0646082ffd,,,,,,,,,,,,,8,,,,,,,,,,,,,,,,,,,,,,,,,,,,,,,,,,,,,,,,,,,,,,,,,,,,,,,,,,,,,,,,,,,,,,,,,,,,,,,617.2466,619.9787,slightly agree,0,7,7,7,1,I find it hard to know what to do in a social situation.,1,0,0,1,,
,,,,,,,,,674fa4a78b9d8a734154456f,spanish,13 or older,"no, only English or Spanish",no,2025-08-13_19h22.04.400,empathy_intonation_perc,2024.2.4,Win32,59.88023952,674fa4a78b9d8a734154456f,687ed1b7e638a4cbf2f02089,689d1dfd25d19d0646082ffd,,,,,,,,,,,,,9,,,,,,,,,,,,,,,,,,,,,,,,,,,,,,,,,,,,,,,,,,,,,,,,,,,,,,,,,,,,,,,,,,,,,,,,,,,,,,,619.9801,624.6282,strongly disagree,0,8,8,8,1,I am at my best first thing in the morning.,0,1,0,0,,
,,,,,,,,,674fa4a78b9d8a734154456f,spanish,13 or older,"no, only English or Spanish",no,2025-08-13_19h22.04.400,empathy_intonation_perc,2024.2.4,Win32,59.88023952,674fa4a78b9d8a734154456f,687ed1b7e638a4cbf2f02089,689d1dfd25d19d0646082ffd,,,,,,,,,,,,,10,,,,,,,,,,,,,,,,,,,,,,,,,,,,,,,,,,,,,,,,,,,,,,,,,,,,,,,,,,,,,,,,,,,,,,,,,,,,,,,624.6304,629.3946,strongly disagree,0,9,9,9,1,People often tell me that I went too far in driving my point home in a discussion.,1,0,0,1,,
