instructions_exposure.started,instructions_exposure.stopped,instructions_exposure_loop.thisRepN,instructions_exposure_loop.thisTrialN,instructions_exposure_loop.thisN,instructions_exposure_loop.thisIndex,instructions_exposure_loop.ran,instructions_text,continue_text,participant_id,"What variety of Spanish are you most familiar with? (e.g., Peruvian, Spanish, Mexican)",At what age did you begin learning Spanish?,Are you proficient in any languages other than English/Spanish?,"Are you familiar with Caribbean (e.g., Caribbean, Puerto Rican) or Galician Spanish?",date,expName,psychopyVersion,OS,frameRate,id,study_id,session,trial_exposure.started,trial_exposure.stopped,key_resp_exposure.keys,key_resp_exposure.corr,key_resp_exposure.rt,key_resp_exposure.duration,key_resp.keys,exposure_loop.thisRepN,exposure_loop.thisTrialN,exposure_loop.thisN,exposure_loop.thisIndex,exposure_loop.ran,item_num,correct_response,question,path,duration,instructions_2afc.started,instructions_2afc.stopped,instructions_2afc_loop.thisRepN,instructions_2afc_loop.thisTrialN,instructions_2afc_loop.thisN,instructions_2afc_loop.thisIndex,instructions_2afc_loop.ran,practice_2afc.started,practice_2afc.stopped,key_resp_2afc_practice.keys,key_resp_2afc_practice.corr,key_resp_2afc_practice.rt,key_resp_2afc_practice.duration,trials_2afc_practice_loop.thisRepN,trials_2afc_practice_loop.thisTrialN,trials_2afc_practice_loop.thisN,trials_2afc_practice_loop.thisIndex,trials_2afc_practice_loop.ran,check_2afc.started,check_2afc.stopped,trial_2afc.started,trial_2afc.stopped,key_resp_2afc_trial.keys,key_resp_2afc_trial.corr,key_resp_2afc_trial.rt,key_resp_2afc_trial.duration,trials_2afc_loop.thisRepN,trials_2afc_loop.thisTrialN,trials_2afc_loop.thisN,trials_2afc_loop.thisIndex,trials_2afc_loop.ran,target,variety,instructions_lextale.started,instructions_lextale.stopped,instructions_lextale_loop.thisRepN,instructions_lextale_loop.thisTrialN,instructions_lextale_loop.thisN,instructions_lextale_loop.thisIndex,instructions_lextale_loop.ran,practice_lextale.started,practice_lextale.stopped,key_resp_lextale_practice.keys,key_resp_lextale_practice.corr,key_resp_lextale_practice.rt,key_resp_lextale_practice.duration,practice_feedback_lextale.started,practice_feedback_lextale.stopped,trials_lextale_practice_loop.thisRepN,trials_lextale_practice_loop.thisTrialN,trials_lextale_practice_loop.thisN,trials_lextale_practice_loop.thisIndex,trials_lextale_practice_loop.ran,stim,word,prac_button_real,prac_button_false,check_lextale.started,check_lextale.stopped,trial_lextale.started,trial_lextale.stopped,key_resp_lextale_trial.keys,key_resp_lextale_trial.corr,key_resp_lextale_trial.rt,key_resp_lextale_trial.duration,trials_lextale_loop.thisRepN,trials_lextale_loop.thisTrialN,trials_lextale_loop.thisN,trials_lextale_loop.thisIndex,trials_lextale_loop.ran,button_real,button_false,instructions_eq.started,instructions_eq.stopped,trial_eq.started,trial_eq.stopped,slider_eq_trial.response,trials_eq_loop.thisRepN,trials_eq_loop.thisTrialN,trials_eq_loop.thisN,trials_eq_loop.thisIndex,trials_eq_loop.ran,item,is_test_item,is_distractor,is_agree_score,is_disagree_score,end_exp.started,end_exp.stopped
0.0204,7.6683,0,0,0,0,1,"In the following task, you are going to hear a series of conversations.", (press the space bar to continue),6756889918e4d36105a501ca,spanish,13 or older,"no, only English or Spanish",yes,2025-07-23_19h34.48.272,empathy_intonation_perc,2024.2.4,Win32,60.24096386,6756889918e4d36105a501ca,687ed1b7e638a4cbf2f02089,6881711ad2b8a867c97234bf,,,,,,,,,,,,,,,,,,,,,,,,,,,,,,,,,,,,,,,,,,,,,,,,,,,,,,,,,,,,,,,,,,,,,,,,,,,,,,,,,,,,,,,,,,,,,,,,,,,,,,,,,,
7.6693,10.2165,0,1,1,1,1,It is okay if you don't not 100% understand them!, (press the space bar to continue),6756889918e4d36105a501ca,spanish,13 or older,"no, only English or Spanish",yes,2025-07-23_19h34.48.272,empathy_intonation_perc,2024.2.4,Win32,60.24096386,6756889918e4d36105a501ca,687ed1b7e638a4cbf2f02089,6881711ad2b8a867c97234bf,,,,,,,,,,,,,,,,,,,,,,,,,,,,,,,,,,,,,,,,,,,,,,,,,,,,,,,,,,,,,,,,,,,,,,,,,,,,,,,,,,,,,,,,,,,,,,,,,,,,,,,,,,
10.2194,49.5581,0,2,2,2,1,"After, you will read a sentence about the conversation and decide if it's true or false.", (press the space bar to continue),6756889918e4d36105a501ca,spanish,13 or older,"no, only English or Spanish",yes,2025-07-23_19h34.48.272,empathy_intonation_perc,2024.2.4,Win32,60.24096386,6756889918e4d36105a501ca,687ed1b7e638a4cbf2f02089,6881711ad2b8a867c97234bf,,,,,,,,,,,,,,,,,,,,,,,,,,,,,,,,,,,,,,,,,,,,,,,,,,,,,,,,,,,,,,,,,,,,,,,,,,,,,,,,,,,,,,,,,,,,,,,,,,,,,,,,,,
49.5608,52.2188,0,3,3,3,1,"If it's true, press '1' (True) and if it's false press '0' (False).", (press the space bar to continue),6756889918e4d36105a501ca,spanish,13 or older,"no, only English or Spanish",yes,2025-07-23_19h34.48.272,empathy_intonation_perc,2024.2.4,Win32,60.24096386,6756889918e4d36105a501ca,687ed1b7e638a4cbf2f02089,6881711ad2b8a867c97234bf,,,,,,,,,,,,,,,,,,,,,,,,,,,,,,,,,,,,,,,,,,,,,,,,,,,,,,,,,,,,,,,,,,,,,,,,,,,,,,,,,,,,,,,,,,,,,,,,,,,,,,,,,,
,,,,,,,,,6756889918e4d36105a501ca,spanish,13 or older,"no, only English or Spanish",yes,2025-07-23_19h34.48.272,empathy_intonation_perc,2024.2.4,Win32,60.24096386,6756889918e4d36105a501ca,687ed1b7e638a4cbf2f02089,6881711ad2b8a867c97234bf,52.2268,119.9063,1,1,7.6179,,,0,0,0,1,1,2,1,The mom asked the daughter if she already went to the supermarket.,./stim/exposure_wavs/dr_stimuli_convo.wav,60,,,,,,,,,,,,,,,,,,,,,,,,,,,,,,,,,,,,,,,,,,,,,,,,,,,,,,,,,,,,,,,,,,,,,,,,,,,,,,,,,,,,,,,,,
,,,,,,,,,6756889918e4d36105a501ca,spanish,13 or older,"no, only English or Spanish",yes,2025-07-23_19h34.48.272,empathy_intonation_perc,2024.2.4,Win32,60.24096386,6756889918e4d36105a501ca,687ed1b7e638a4cbf2f02089,6881711ad2b8a867c97234bf,119.9092,158.8712,0,1,2.932,,,0,1,1,2,1,3,0,The mom already has rice.,./stim/exposure_wavs/pr_stimuli_convo.wav,36,,,,,,,,,,,,,,,,,,,,,,,,,,,,,,,,,,,,,,,,,,,,,,,,,,,,,,,,,,,,,,,,,,,,,,,,,,,,,,,,,,,,,,,,,
,,,,,,,,,6756889918e4d36105a501ca,spanish,13 or older,"no, only English or Spanish",yes,2025-07-23_19h34.48.272,empathy_intonation_perc,2024.2.4,Win32,60.24096386,6756889918e4d36105a501ca,687ed1b7e638a4cbf2f02089,6881711ad2b8a867c97234bf,158.8739,213.1711,0,0,7.269,,,0,2,2,0,1,1,1,The son asked the mom if Aunt Marina is okay.,./stim/exposure_wavs/ga_stimuli_convo.wav,47,,,,,,,,,,,,,,,,,,,,,,,,,,,,,,,,,,,,,,,,,,,,,,,,,,,,,,,,,,,,,,,,,,,,,,,,,,,,,,,,,,,,,,,,,
,,,,,,,"In the following task you are going to hear a series of utterances. 

  You will decide if the utterances sound like questions or not using your keyboard.", (press the spacebar to continue),6756889918e4d36105a501ca,spanish,13 or older,"no, only English or Spanish",yes,2025-07-23_19h34.48.272,empathy_intonation_perc,2024.2.4,Win32,60.24096386,6756889918e4d36105a501ca,687ed1b7e638a4cbf2f02089,6881711ad2b8a867c97234bf,,,,,,,,,,,,,,,,,,213.1773,232.4528,0,0,0,0,1,,,,,,,,,,,,,,,,,,,,,,,,,,,,,,,,,,,,,,,,,,,,,,,,,,,,,,,,,,,,,,,,,,,,,,,,,,,,,,,,,,
,,,,,,,"If you believe the utterance is a question, type '1' (for 'yes') and if you do not 
  believe it is a question type '0' (for 'no').

  Let's practice a bit...", (press the spacebar to continue),6756889918e4d36105a501ca,spanish,13 or older,"no, only English or Spanish",yes,2025-07-23_19h34.48.272,empathy_intonation_perc,2024.2.4,Win32,60.24096386,6756889918e4d36105a501ca,687ed1b7e638a4cbf2f02089,6881711ad2b8a867c97234bf,,,,,,,,,,,,,,,,,,232.4551,240.0538,0,1,1,1,1,,,,,,,,,,,,,,,,,,,,,,,,,,,,,,,,,,,,,,,,,,,,,,,,,,,,,,,,,,,,,,,,,,,,,,,,,,,,,,,,,,
,,,,,,,,,6756889918e4d36105a501ca,spanish,13 or older,"no, only English or Spanish",yes,2025-07-23_19h34.48.272,empathy_intonation_perc,2024.2.4,Win32,60.24096386,6756889918e4d36105a501ca,687ed1b7e638a4cbf2f02089,6881711ad2b8a867c97234bf,,,,,,,,,,,,,,0,,./stim/wavs/cuban_statement_filler_Cocinabas-por-la-noche.wav,,,,,,,,,240.0659,246.8876,0,1,6.2995,,0,0,0,4,1,,,,,,,,,,,,,,,,,,,,,,,,,,,,,,,,,,,,,,,,,,,,,,,,,,,,,,,,,,,,,,,,,,,,,,,
,,,,,,,,,6756889918e4d36105a501ca,spanish,13 or older,"no, only English or Spanish",yes,2025-07-23_19h34.48.272,empathy_intonation_perc,2024.2.4,Win32,60.24096386,6756889918e4d36105a501ca,687ed1b7e638a4cbf2f02089,6881711ad2b8a867c97234bf,,,,,,,,,,,,,,1,,./stim/wavs/chilean_question_filler_Mi-padre-cantaba-bien.wav,,,,,,,,,246.8886,250.2651,1,1,2.836,,0,1,1,2,1,,,,,,,,,,,,,,,,,,,,,,,,,,,,,,,,,,,,,,,,,,,,,,,,,,,,,,,,,,,,,,,,,,,,,,,
,,,,,,,,,6756889918e4d36105a501ca,spanish,13 or older,"no, only English or Spanish",yes,2025-07-23_19h34.48.272,empathy_intonation_perc,2024.2.4,Win32,60.24096386,6756889918e4d36105a501ca,687ed1b7e638a4cbf2f02089,6881711ad2b8a867c97234bf,,,,,,,,,,,,,,0,,./stim/wavs/peruvian_statement_filler_El-nino-habla-con-su-madre.wav,,,,,,,,,250.2662,253.3807,0,1,2.5717,,0,2,2,6,1,,,,,,,,,,,,,,,,,,,,,,,,,,,,,,,,,,,,,,,,,,,,,,,,,,,,,,,,,,,,,,,,,,,,,,,
,,,,,,,,,6756889918e4d36105a501ca,spanish,13 or older,"no, only English or Spanish",yes,2025-07-23_19h34.48.272,empathy_intonation_perc,2024.2.4,Win32,60.24096386,6756889918e4d36105a501ca,687ed1b7e638a4cbf2f02089,6881711ad2b8a867c97234bf,,,,,,,,,,,,,,1,,./stim/wavs/mexican_question_filler_Felipe-no-tiene-contrasena.wav,,,,,,,,,253.382,256.7688,1,1,2.8793,,0,3,3,3,1,,,,,,,,,,,,,,,,,,,,,,,,,,,,,,,,,,,,,,,,,,,,,,,,,,,,,,,,,,,,,,,,,,,,,,,
,,,,,,,,,6756889918e4d36105a501ca,spanish,13 or older,"no, only English or Spanish",yes,2025-07-23_19h34.48.272,empathy_intonation_perc,2024.2.4,Win32,60.24096386,6756889918e4d36105a501ca,687ed1b7e638a4cbf2f02089,6881711ad2b8a867c97234bf,,,,,,,,,,,,,,1,,./stim/wavs/argentine_question_filler_Mi-vecino-habla-mucho.wav,,,,,,,,,256.77,258.9003,1,1,1.6124,,0,4,4,1,1,,,,,,,,,,,,,,,,,,,,,,,,,,,,,,,,,,,,,,,,,,,,,,,,,,,,,,,,,,,,,,,,,,,,,,,
,,,,,,,,,6756889918e4d36105a501ca,spanish,13 or older,"no, only English or Spanish",yes,2025-07-23_19h34.48.272,empathy_intonation_perc,2024.2.4,Win32,60.24096386,6756889918e4d36105a501ca,687ed1b7e638a4cbf2f02089,6881711ad2b8a867c97234bf,,,,,,,,,,,,,,0,,./stim/wavs/andalusian_statement_filler_Alberto-nunca-se-afeita.wav,,,,,,,,,258.901,261.8832,0,1,2.4502,,0,5,5,5,1,,,,,,,,,,,,,,,,,,,,,,,,,,,,,,,,,,,,,,,,,,,,,,,,,,,,,,,,,,,,,,,,,,,,,,,
,,,,,,,,,6756889918e4d36105a501ca,spanish,13 or older,"no, only English or Spanish",yes,2025-07-23_19h34.48.272,empathy_intonation_perc,2024.2.4,Win32,60.24096386,6756889918e4d36105a501ca,687ed1b7e638a4cbf2f02089,6881711ad2b8a867c97234bf,,,,,,,,,,,,,,1,,./stim/wavs/castilian_question_filler_Mi-esposo-conoce-al-chico.wav,,,,,,,,,261.8842,264.5444,1,1,2.1387,,0,6,6,0,1,,,,,,,,,,,,,,,,,,,,,,,,,,,,,,,,,,,,,,,,,,,,,,,,,,,,,,,,,,,,,,,,,,,,,,,
,,,,,,,,,6756889918e4d36105a501ca,spanish,13 or older,"no, only English or Spanish",yes,2025-07-23_19h34.48.272,empathy_intonation_perc,2024.2.4,Win32,60.24096386,6756889918e4d36105a501ca,687ed1b7e638a4cbf2f02089,6881711ad2b8a867c97234bf,,,,,,,,,,,,,,0,,./stim/wavs/puertorican_statement_filler_La-nina-pinta-con-su-amiga.wav,,,,,,,,,264.5464,267.0272,0,1,1.9584,,0,7,7,7,1,,,,,,,,,,,,,,,,,,,,,,,,,,,,,,,,,,,,,,,,,,,,,,,,,,,,,,,,,,,,,,,,,,,,,,,
,,,,,,,,,6756889918e4d36105a501ca,spanish,13 or older,"no, only English or Spanish",yes,2025-07-23_19h34.48.272,empathy_intonation_perc,2024.2.4,Win32,60.24096386,6756889918e4d36105a501ca,687ed1b7e638a4cbf2f02089,6881711ad2b8a867c97234bf,,,,,,,,,,,,,,,,,,,,,,,,,,,,,,,,,,,,267.0291,323.5008,,,,,,,,,,,,,,,,,,,,,,,,,,,,,,,,,,,,,,,,,,,,,,,,,,,,,,,,,,,,,,,,,,,,,
,,,,,,,,,6756889918e4d36105a501ca,spanish,13 or older,"no, only English or Spanish",yes,2025-07-23_19h34.48.272,empathy_intonation_perc,2024.2.4,Win32,60.24096386,6756889918e4d36105a501ca,687ed1b7e638a4cbf2f02089,6881711ad2b8a867c97234bf,,,,,,,,,,,,,48,0,,./stim/wavs/castilian_match_declarative-broad-focus_Maria-bebe-el-vino.wav,,,,,,,,,,,,,,,,,,,,,,323.5085,326.1715,0,1,2.1478,,0,0,0,47,1,0,castilian,,,,,,,,,,,,,,,,,,,,,,,,,,,,,,,,,,,,,,,,,,,,,,,,,,,,,,,,
,,,,,,,,,6756889918e4d36105a501ca,spanish,13 or older,"no, only English or Spanish",yes,2025-07-23_19h34.48.272,empathy_intonation_perc,2024.2.4,Win32,60.24096386,6756889918e4d36105a501ca,687ed1b7e638a4cbf2f02089,6881711ad2b8a867c97234bf,,,,,,,,,,,,,82,0,,./stim/wavs/mexican_mismatch_declarative-broad-focus_Mi-novio-viene-del-lago.wav,,,,,,,,,,,,,,,,,,,,,,326.1723,328.3483,0,1,1.6514,,0,1,1,81,1,0,mexican,,,,,,,,,,,,,,,,,,,,,,,,,,,,,,,,,,,,,,,,,,,,,,,,,,,,,,,,
,,,,,,,,,6756889918e4d36105a501ca,spanish,13 or older,"no, only English or Spanish",yes,2025-07-23_19h34.48.272,empathy_intonation_perc,2024.2.4,Win32,60.24096386,6756889918e4d36105a501ca,687ed1b7e638a4cbf2f02089,6881711ad2b8a867c97234bf,,,,,,,,,,,,,55,0,,./stim/wavs/cuban_match_declarative-broad-focus_Mariano-habla-del-tiempo.wav,,,,,,,,,,,,,,,,,,,,,,328.3505,330.7867,0,1,1.9173,,0,2,2,54,1,0,cuban,,,,,,,,,,,,,,,,,,,,,,,,,,,,,,,,,,,,,,,,,,,,,,,,,,,,,,,,
,,,,,,,,,6756889918e4d36105a501ca,spanish,13 or older,"no, only English or Spanish",yes,2025-07-23_19h34.48.272,empathy_intonation_perc,2024.2.4,Win32,60.24096386,6756889918e4d36105a501ca,687ed1b7e638a4cbf2f02089,6881711ad2b8a867c97234bf,,,,,,,,,,,,,7,1,,./stim/wavs/cuban_match_interrogative-total-yn_Ana-lleva-el-abrigo.wav,,,,,,,,,,,,,,,,,,,,,,330.7875,332.7526,1,1,1.4492,,0,3,3,6,1,1,cuban,,,,,,,,,,,,,,,,,,,,,,,,,,,,,,,,,,,,,,,,,,,,,,,,,,,,,,,,
,,,,,,,,,6756889918e4d36105a501ca,spanish,13 or older,"no, only English or Spanish",yes,2025-07-23_19h34.48.272,empathy_intonation_perc,2024.2.4,Win32,60.24096386,6756889918e4d36105a501ca,687ed1b7e638a4cbf2f02089,6881711ad2b8a867c97234bf,,,,,,,,,,,,,28,1,,./stim/wavs/castilian_mismatch_interrogative-total-yn_Mi-novio-viene-del-lago.wav,,,,,,,,,,,,,,,,,,,,,,332.7536,335.0356,1,1,1.7505,,0,4,4,27,1,0,castilian,,,,,,,,,,,,,,,,,,,,,,,,,,,,,,,,,,,,,,,,,,,,,,,,,,,,,,,,
,,,,,,,,,6756889918e4d36105a501ca,spanish,13 or older,"no, only English or Spanish",yes,2025-07-23_19h34.48.272,empathy_intonation_perc,2024.2.4,Win32,60.24096386,6756889918e4d36105a501ca,687ed1b7e638a4cbf2f02089,6881711ad2b8a867c97234bf,,,,,,,,,,,,,4,1,,./stim/wavs/castilian_match_interrogative-total-yn_Maria-bebe-el-vino.wav,,,,,,,,,,,,,,,,,,,,,,335.0364,337.0149,1,1,1.4624,,0,5,5,3,1,0,castilian,,,,,,,,,,,,,,,,,,,,,,,,,,,,,,,,,,,,,,,,,,,,,,,,,,,,,,,,
,,,,,,,,,6756889918e4d36105a501ca,spanish,13 or older,"no, only English or Spanish",yes,2025-07-23_19h34.48.272,empathy_intonation_perc,2024.2.4,Win32,60.24096386,6756889918e4d36105a501ca,687ed1b7e638a4cbf2f02089,6881711ad2b8a867c97234bf,,,,,,,,,,,,,59,0,,./stim/wavs/mexican_match_declarative-broad-focus_David-leia-el-libro.wav,,,,,,,,,,,,,,,,,,,,,,337.0158,338.9477,0,1,1.4077,,0,6,6,58,1,0,mexican,,,,,,,,,,,,,,,,,,,,,,,,,,,,,,,,,,,,,,,,,,,,,,,,,,,,,,,,
,,,,,,,,,6756889918e4d36105a501ca,spanish,13 or older,"no, only English or Spanish",yes,2025-07-23_19h34.48.272,empathy_intonation_perc,2024.2.4,Win32,60.24096386,6756889918e4d36105a501ca,687ed1b7e638a4cbf2f02089,6881711ad2b8a867c97234bf,,,,,,,,,,,,,69,0,,./stim/wavs/castilian_mismatch_declarative-broad-focus_El-nino-oye-el-rio.wav,,,,,,,,,,,,,,,,,,,,,,338.9485,341.1343,0,1,1.679,,0,7,7,68,1,0,castilian,,,,,,,,,,,,,,,,,,,,,,,,,,,,,,,,,,,,,,,,,,,,,,,,,,,,,,,,
,,,,,,,,,6756889918e4d36105a501ca,spanish,13 or older,"no, only English or Spanish",yes,2025-07-23_19h34.48.272,empathy_intonation_perc,2024.2.4,Win32,60.24096386,6756889918e4d36105a501ca,687ed1b7e638a4cbf2f02089,6881711ad2b8a867c97234bf,,,,,,,,,,,,,15,1,,./stim/wavs/mexican_match_interrogative-total-yn_David-leia-el-libro.wav,,,,,,,,,,,,,,,,,,,,,,341.1355,343.0791,1,1,1.4174,,0,8,8,14,1,0,mexican,,,,,,,,,,,,,,,,,,,,,,,,,,,,,,,,,,,,,,,,,,,,,,,,,,,,,,,,
,,,,,,,,,6756889918e4d36105a501ca,spanish,13 or older,"no, only English or Spanish",yes,2025-07-23_19h34.48.272,empathy_intonation_perc,2024.2.4,Win32,60.24096386,6756889918e4d36105a501ca,687ed1b7e638a4cbf2f02089,6881711ad2b8a867c97234bf,,,,,,,,,,,,,75,0,,./stim/wavs/cuban_mismatch_declarative-broad-focus_El-hombre-mira-la-luna.wav,,,,,,,,,,,,,,,,,,,,,,343.0807,345.0502,0,1,1.4335,,0,9,9,74,1,0,cuban,,,,,,,,,,,,,,,,,,,,,,,,,,,,,,,,,,,,,,,,,,,,,,,,,,,,,,,,
,,,,,,,,,6756889918e4d36105a501ca,spanish,13 or older,"no, only English or Spanish",yes,2025-07-23_19h34.48.272,empathy_intonation_perc,2024.2.4,Win32,60.24096386,6756889918e4d36105a501ca,687ed1b7e638a4cbf2f02089,6881711ad2b8a867c97234bf,,,,,,,,,,,,,88,0,,./stim/wavs/puertorican_mismatch_declarative-broad-focus_La-nina-lava-el-plato.wav,,,,,,,,,,,,,,,,,,,,,,345.051,347.1282,0,1,1.5346,,0,10,10,87,1,0,puertorican,,,,,,,,,,,,,,,,,,,,,,,,,,,,,,,,,,,,,,,,,,,,,,,,,,,,,,,,
,,,,,,,,,6756889918e4d36105a501ca,spanish,13 or older,"no, only English or Spanish",yes,2025-07-23_19h34.48.272,empathy_intonation_perc,2024.2.4,Win32,60.24096386,6756889918e4d36105a501ca,687ed1b7e638a4cbf2f02089,6881711ad2b8a867c97234bf,,,,,,,,,,,,,74,0,,./stim/wavs/cuban_mismatch_declarative-broad-focus_El-bebe-comia-muy-bien.wav,,,,,,,,,,,,,,,,,,,,,,347.1304,349.0664,0,1,1.4181,,0,11,11,73,1,0,cuban,,,,,,,,,,,,,,,,,,,,,,,,,,,,,,,,,,,,,,,,,,,,,,,,,,,,,,,,
,,,,,,,,,6756889918e4d36105a501ca,spanish,13 or older,"no, only English or Spanish",yes,2025-07-23_19h34.48.272,empathy_intonation_perc,2024.2.4,Win32,60.24096386,6756889918e4d36105a501ca,687ed1b7e638a4cbf2f02089,6881711ad2b8a867c97234bf,,,,,,,,,,,,,51,0,,./stim/wavs/cuban_match_declarative-broad-focus_Ana-lleva-el-abrigo.wav,,,,,,,,,,,,,,,,,,,,,,349.0674,351.1111,1,0,1.5074,,0,12,12,50,1,0,cuban,,,,,,,,,,,,,,,,,,,,,,,,,,,,,,,,,,,,,,,,,,,,,,,,,,,,,,,,
,,,,,,,,,6756889918e4d36105a501ca,spanish,13 or older,"no, only English or Spanish",yes,2025-07-23_19h34.48.272,empathy_intonation_perc,2024.2.4,Win32,60.24096386,6756889918e4d36105a501ca,687ed1b7e638a4cbf2f02089,6881711ad2b8a867c97234bf,,,,,,,,,,,,,13,1,,./stim/wavs/mexican_match_interrogative-total-yn_Ana-lleva-el-abrigo.wav,,,,,,,,,,,,,,,,,,,,,,351.1125,353.0458,1,1,1.4117,,0,13,13,12,1,0,mexican,,,,,,,,,,,,,,,,,,,,,,,,,,,,,,,,,,,,,,,,,,,,,,,,,,,,,,,,
,,,,,,,,,6756889918e4d36105a501ca,spanish,13 or older,"no, only English or Spanish",yes,2025-07-23_19h34.48.272,empathy_intonation_perc,2024.2.4,Win32,60.24096386,6756889918e4d36105a501ca,687ed1b7e638a4cbf2f02089,6881711ad2b8a867c97234bf,,,,,,,,,,,,,76,0,,./stim/wavs/cuban_mismatch_declarative-broad-focus_La-nina-lava-el-plato.wav,,,,,,,,,,,,,,,,,,,,,,353.0466,355.3771,0,1,1.7977,,0,14,14,75,1,0,cuban,,,,,,,,,,,,,,,,,,,,,,,,,,,,,,,,,,,,,,,,,,,,,,,,,,,,,,,,
,,,,,,,,,6756889918e4d36105a501ca,spanish,13 or older,"no, only English or Spanish",yes,2025-07-23_19h34.48.272,empathy_intonation_perc,2024.2.4,Win32,60.24096386,6756889918e4d36105a501ca,687ed1b7e638a4cbf2f02089,6881711ad2b8a867c97234bf,,,,,,,,,,,,,38,1,,./stim/wavs/mexican_mismatch_interrogative-total-yn_Mi-novio-viene-del-lago.wav,,,,,,,,,,,,,,,,,,,,,,355.3787,357.4311,1,1,1.5461,,0,15,15,37,1,0,mexican,,,,,,,,,,,,,,,,,,,,,,,,,,,,,,,,,,,,,,,,,,,,,,,,,,,,,,,,
,,,,,,,,,6756889918e4d36105a501ca,spanish,13 or older,"no, only English or Spanish",yes,2025-07-23_19h34.48.272,empathy_intonation_perc,2024.2.4,Win32,60.24096386,6756889918e4d36105a501ca,687ed1b7e638a4cbf2f02089,6881711ad2b8a867c97234bf,,,,,,,,,,,,,77,0,,./stim/wavs/cuban_mismatch_declarative-broad-focus_Mi-novio-viene-del-lago.wav,,,,,,,,,,,,,,,,,,,,,,357.4318,359.5809,0,1,1.6326,,0,16,16,76,1,0,cuban,,,,,,,,,,,,,,,,,,,,,,,,,,,,,,,,,,,,,,,,,,,,,,,,,,,,,,,,
,,,,,,,,,6756889918e4d36105a501ca,spanish,13 or older,"no, only English or Spanish",yes,2025-07-23_19h34.48.272,empathy_intonation_perc,2024.2.4,Win32,60.24096386,6756889918e4d36105a501ca,687ed1b7e638a4cbf2f02089,6881711ad2b8a867c97234bf,,,,,,,,,,,,,62,0,,./stim/wavs/mexican_match_declarative-broad-focus_Marta-abre-el-regalo.wav,,,,,,,,,,,,,,,,,,,,,,359.5819,361.4912,0,1,1.3764,,0,17,17,61,1,0,mexican,,,,,,,,,,,,,,,,,,,,,,,,,,,,,,,,,,,,,,,,,,,,,,,,,,,,,,,,
,,,,,,,,,6756889918e4d36105a501ca,spanish,13 or older,"no, only English or Spanish",yes,2025-07-23_19h34.48.272,empathy_intonation_perc,2024.2.4,Win32,60.24096386,6756889918e4d36105a501ca,687ed1b7e638a4cbf2f02089,6881711ad2b8a867c97234bf,,,,,,,,,,,,,79,0,,./stim/wavs/mexican_mismatch_declarative-broad-focus_El-bebe-comia-muy-bien.wav,,,,,,,,,,,,,,,,,,,,,,361.4924,363.6761,1,0,1.6634,,0,18,18,78,1,0,mexican,,,,,,,,,,,,,,,,,,,,,,,,,,,,,,,,,,,,,,,,,,,,,,,,,,,,,,,,
,,,,,,,,,6756889918e4d36105a501ca,spanish,13 or older,"no, only English or Spanish",yes,2025-07-23_19h34.48.272,empathy_intonation_perc,2024.2.4,Win32,60.24096386,6756889918e4d36105a501ca,687ed1b7e638a4cbf2f02089,6881711ad2b8a867c97234bf,,,,,,,,,,,,,25,1,,./stim/wavs/castilian_mismatch_interrogative-total-yn_La-maestra-vive-en-Paris.wav,,,,,,,,,,,,,,,,,,,,,,363.6773,365.9467,1,1,1.7633,,0,19,19,24,1,0,castilian,,,,,,,,,,,,,,,,,,,,,,,,,,,,,,,,,,,,,,,,,,,,,,,,,,,,,,,,
,,,,,,,,,6756889918e4d36105a501ca,spanish,13 or older,"no, only English or Spanish",yes,2025-07-23_19h34.48.272,empathy_intonation_perc,2024.2.4,Win32,60.24096386,6756889918e4d36105a501ca,687ed1b7e638a4cbf2f02089,6881711ad2b8a867c97234bf,,,,,,,,,,,,,1,1,,./stim/wavs/castilian_match_interrogative-total-yn_David-leia-el-libro.wav,,,,,,,,,,,,,,,,,,,,,,365.9481,368.0464,1,1,1.5836,,0,20,20,0,1,0,castilian,,,,,,,,,,,,,,,,,,,,,,,,,,,,,,,,,,,,,,,,,,,,,,,,,,,,,,,,
,,,,,,,,,6756889918e4d36105a501ca,spanish,13 or older,"no, only English or Spanish",yes,2025-07-23_19h34.48.272,empathy_intonation_perc,2024.2.4,Win32,60.24096386,6756889918e4d36105a501ca,687ed1b7e638a4cbf2f02089,6881711ad2b8a867c97234bf,,,,,,,,,,,,,50,0,,./stim/wavs/castilian_match_declarative-broad-focus_Marta-abre-el-regalo.wav,,,,,,,,,,,,,,,,,,,,,,368.0475,370.279,1,0,1.7126,,0,21,21,49,1,0,castilian,,,,,,,,,,,,,,,,,,,,,,,,,,,,,,,,,,,,,,,,,,,,,,,,,,,,,,,,
,,,,,,,,,6756889918e4d36105a501ca,spanish,13 or older,"no, only English or Spanish",yes,2025-07-23_19h34.48.272,empathy_intonation_perc,2024.2.4,Win32,60.24096386,6756889918e4d36105a501ca,687ed1b7e638a4cbf2f02089,6881711ad2b8a867c97234bf,,,,,,,,,,,,,46,0,,./stim/wavs/castilian_match_declarative-broad-focus_Emilio-ama-la-marcha.wav,,,,,,,,,,,,,,,,,,,,,,370.28,372.609,0,1,1.7975,,0,22,22,45,1,0,castilian,,,,,,,,,,,,,,,,,,,,,,,,,,,,,,,,,,,,,,,,,,,,,,,,,,,,,,,,
,,,,,,,,,6756889918e4d36105a501ca,spanish,13 or older,"no, only English or Spanish",yes,2025-07-23_19h34.48.272,empathy_intonation_perc,2024.2.4,Win32,60.24096386,6756889918e4d36105a501ca,687ed1b7e638a4cbf2f02089,6881711ad2b8a867c97234bf,,,,,,,,,,,,,53,0,,./stim/wavs/cuban_match_declarative-broad-focus_Manuela-vende-el-carro.wav,,,,,,,,,,,,,,,,,,,,,,372.6101,374.8275,0,1,1.6998,,0,23,23,52,1,0,cuban,,,,,,,,,,,,,,,,,,,,,,,,,,,,,,,,,,,,,,,,,,,,,,,,,,,,,,,,
,,,,,,,,,6756889918e4d36105a501ca,spanish,13 or older,"no, only English or Spanish",yes,2025-07-23_19h34.48.272,empathy_intonation_perc,2024.2.4,Win32,60.24096386,6756889918e4d36105a501ca,687ed1b7e638a4cbf2f02089,6881711ad2b8a867c97234bf,,,,,,,,,,,,,36,1,,./stim/wavs/mexican_mismatch_interrogative-total-yn_El-nino-oye-el-rio.wav,,,,,,,,,,,,,,,,,,,,,,374.8283,377.0279,1,1,1.6684,,0,24,24,35,1,0,mexican,,,,,,,,,,,,,,,,,,,,,,,,,,,,,,,,,,,,,,,,,,,,,,,,,,,,,,,,
,,,,,,,,,6756889918e4d36105a501ca,spanish,13 or older,"no, only English or Spanish",yes,2025-07-23_19h34.48.272,empathy_intonation_perc,2024.2.4,Win32,60.24096386,6756889918e4d36105a501ca,687ed1b7e638a4cbf2f02089,6881711ad2b8a867c97234bf,,,,,,,,,,,,,11,1,,./stim/wavs/cuban_match_interrogative-total-yn_Mariano-habla-del-tiempo.wav,,,,,,,,,,,,,,,,,,,,,,377.0292,379.2727,1,1,1.7051,,0,25,25,10,1,1,cuban,,,,,,,,,,,,,,,,,,,,,,,,,,,,,,,,,,,,,,,,,,,,,,,,,,,,,,,,
,,,,,,,,,6756889918e4d36105a501ca,spanish,13 or older,"no, only English or Spanish",yes,2025-07-23_19h34.48.272,empathy_intonation_perc,2024.2.4,Win32,60.24096386,6756889918e4d36105a501ca,687ed1b7e638a4cbf2f02089,6881711ad2b8a867c97234bf,,,,,,,,,,,,,34,1,,./stim/wavs/cuban_mismatch_interrogative-total-yn_Mi-tia-odia-la-lluvia.wav,,,,,,,,,,,,,,,,,,,,,,379.2737,381.3253,0,0,1.5287,,0,26,26,33,1,1,cuban,,,,,,,,,,,,,,,,,,,,,,,,,,,,,,,,,,,,,,,,,,,,,,,,,,,,,,,,
,,,,,,,,,6756889918e4d36105a501ca,spanish,13 or older,"no, only English or Spanish",yes,2025-07-23_19h34.48.272,empathy_intonation_perc,2024.2.4,Win32,60.24096386,6756889918e4d36105a501ca,687ed1b7e638a4cbf2f02089,6881711ad2b8a867c97234bf,,,,,,,,,,,,,40,1,,./stim/wavs/puertorican_mismatch_interrogative-total-yn_El-hombre-mira-la-luna.wav,,,,,,,,,,,,,,,,,,,,,,381.3266,383.3208,1,1,1.4608,,0,27,27,39,1,1,puertorican,,,,,,,,,,,,,,,,,,,,,,,,,,,,,,,,,,,,,,,,,,,,,,,,,,,,,,,,
,,,,,,,,,6756889918e4d36105a501ca,spanish,13 or older,"no, only English or Spanish",yes,2025-07-23_19h34.48.272,empathy_intonation_perc,2024.2.4,Win32,60.24096386,6756889918e4d36105a501ca,687ed1b7e638a4cbf2f02089,6881711ad2b8a867c97234bf,,,,,,,,,,,,,3,1,,./stim/wavs/castilian_match_interrogative-total-yn_Manuela-vende-el-carro.wav,,,,,,,,,,,,,,,,,,,,,,383.3224,385.5589,1,1,1.7156,,0,28,28,2,1,0,castilian,,,,,,,,,,,,,,,,,,,,,,,,,,,,,,,,,,,,,,,,,,,,,,,,,,,,,,,,
,,,,,,,,,6756889918e4d36105a501ca,spanish,13 or older,"no, only English or Spanish",yes,2025-07-23_19h34.48.272,empathy_intonation_perc,2024.2.4,Win32,60.24096386,6756889918e4d36105a501ca,687ed1b7e638a4cbf2f02089,6881711ad2b8a867c97234bf,,,,,,,,,,,,,33,1,,./stim/wavs/cuban_mismatch_interrogative-total-yn_Mi-novio-viene-del-lago.wav,,,,,,,,,,,,,,,,,,,,,,385.5596,387.5912,0,0,1.5124,,0,29,29,32,1,1,cuban,,,,,,,,,,,,,,,,,,,,,,,,,,,,,,,,,,,,,,,,,,,,,,,,,,,,,,,,
,,,,,,,,,6756889918e4d36105a501ca,spanish,13 or older,"no, only English or Spanish",yes,2025-07-23_19h34.48.272,empathy_intonation_perc,2024.2.4,Win32,60.24096386,6756889918e4d36105a501ca,687ed1b7e638a4cbf2f02089,6881711ad2b8a867c97234bf,,,,,,,,,,,,,30,1,,./stim/wavs/cuban_mismatch_interrogative-total-yn_El-hombre-mira-la-luna.wav,,,,,,,,,,,,,,,,,,,,,,387.5924,389.6211,0,0,1.4898,,0,30,30,29,1,1,cuban,,,,,,,,,,,,,,,,,,,,,,,,,,,,,,,,,,,,,,,,,,,,,,,,,,,,,,,,
,,,,,,,,,6756889918e4d36105a501ca,spanish,13 or older,"no, only English or Spanish",yes,2025-07-23_19h34.48.272,empathy_intonation_perc,2024.2.4,Win32,60.24096386,6756889918e4d36105a501ca,687ed1b7e638a4cbf2f02089,6881711ad2b8a867c97234bf,,,,,,,,,,,,,14,1,,./stim/wavs/mexican_match_interrogative-total-yn_Daniel-iba-a-Bolivia.wav,,,,,,,,,,,,,,,,,,,,,,389.6218,391.6081,1,1,1.4799,,0,31,31,13,1,0,mexican,,,,,,,,,,,,,,,,,,,,,,,,,,,,,,,,,,,,,,,,,,,,,,,,,,,,,,,,
,,,,,,,,,6756889918e4d36105a501ca,spanish,13 or older,"no, only English or Spanish",yes,2025-07-23_19h34.48.272,empathy_intonation_perc,2024.2.4,Win32,60.24096386,6756889918e4d36105a501ca,687ed1b7e638a4cbf2f02089,6881711ad2b8a867c97234bf,,,,,,,,,,,,,64,0,,./stim/wavs/puertorican_match_declarative-broad-focus_Daniel-iba-a-Bolivia.wav,,,,,,,,,,,,,,,,,,,,,,391.6089,393.5185,1,0,1.373,,0,32,32,63,1,0,puertorican,,,,,,,,,,,,,,,,,,,,,,,,,,,,,,,,,,,,,,,,,,,,,,,,,,,,,,,,
,,,,,,,,,6756889918e4d36105a501ca,spanish,13 or older,"no, only English or Spanish",yes,2025-07-23_19h34.48.272,empathy_intonation_perc,2024.2.4,Win32,60.24096386,6756889918e4d36105a501ca,687ed1b7e638a4cbf2f02089,6881711ad2b8a867c97234bf,,,,,,,,,,,,,21,1,,./stim/wavs/puertorican_match_interrogative-total-yn_David-leia-el-libro.wav,,,,,,,,,,,,,,,,,,,,,,393.5201,395.5521,1,1,1.5072,,0,33,33,20,1,1,puertorican,,,,,,,,,,,,,,,,,,,,,,,,,,,,,,,,,,,,,,,,,,,,,,,,,,,,,,,,
,,,,,,,,,6756889918e4d36105a501ca,spanish,13 or older,"no, only English or Spanish",yes,2025-07-23_19h34.48.272,empathy_intonation_perc,2024.2.4,Win32,60.24096386,6756889918e4d36105a501ca,687ed1b7e638a4cbf2f02089,6881711ad2b8a867c97234bf,,,,,,,,,,,,,29,1,,./stim/wavs/castilian_mismatch_interrogative-total-yn_Mi-tia-odia-la-lluvia.wav,,,,,,,,,,,,,,,,,,,,,,395.5543,397.7575,1,1,1.679,,0,34,34,28,1,0,castilian,,,,,,,,,,,,,,,,,,,,,,,,,,,,,,,,,,,,,,,,,,,,,,,,,,,,,,,,
,,,,,,,,,6756889918e4d36105a501ca,spanish,13 or older,"no, only English or Spanish",yes,2025-07-23_19h34.48.272,empathy_intonation_perc,2024.2.4,Win32,60.24096386,6756889918e4d36105a501ca,687ed1b7e638a4cbf2f02089,6881711ad2b8a867c97234bf,,,,,,,,,,,,,63,0,,./stim/wavs/puertorican_match_declarative-broad-focus_Ana-lleva-el-abrigo.wav,,,,,,,,,,,,,,,,,,,,,,397.7588,399.6842,0,1,1.3976,,0,35,35,62,1,0,puertorican,,,,,,,,,,,,,,,,,,,,,,,,,,,,,,,,,,,,,,,,,,,,,,,,,,,,,,,,
,,,,,,,,,6756889918e4d36105a501ca,spanish,13 or older,"no, only English or Spanish",yes,2025-07-23_19h34.48.272,empathy_intonation_perc,2024.2.4,Win32,60.24096386,6756889918e4d36105a501ca,687ed1b7e638a4cbf2f02089,6881711ad2b8a867c97234bf,,,,,,,,,,,,,60,0,,./stim/wavs/mexican_match_declarative-broad-focus_Emilio-ama-la-marcha.wav,,,,,,,,,,,,,,,,,,,,,,399.6867,401.8006,0,1,1.5977,,0,36,36,59,1,0,mexican,,,,,,,,,,,,,,,,,,,,,,,,,,,,,,,,,,,,,,,,,,,,,,,,,,,,,,,,
,,,,,,,,,6756889918e4d36105a501ca,spanish,13 or older,"no, only English or Spanish",yes,2025-07-23_19h34.48.272,empathy_intonation_perc,2024.2.4,Win32,60.24096386,6756889918e4d36105a501ca,687ed1b7e638a4cbf2f02089,6881711ad2b8a867c97234bf,,,,,,,,,,,,,6,1,,./stim/wavs/castilian_match_interrogative-total-yn_Marta-abre-el-regalo.wav,,,,,,,,,,,,,,,,,,,,,,401.8031,403.9054,0,0,1.598,,0,37,37,5,1,0,castilian,,,,,,,,,,,,,,,,,,,,,,,,,,,,,,,,,,,,,,,,,,,,,,,,,,,,,,,,
,,,,,,,,,6756889918e4d36105a501ca,spanish,13 or older,"no, only English or Spanish",yes,2025-07-23_19h34.48.272,empathy_intonation_perc,2024.2.4,Win32,60.24096386,6756889918e4d36105a501ca,687ed1b7e638a4cbf2f02089,6881711ad2b8a867c97234bf,,,,,,,,,,,,,57,0,,./stim/wavs/mexican_match_declarative-broad-focus_Ana-lleva-el-abrigo.wav,,,,,,,,,,,,,,,,,,,,,,403.9063,406.0713,0,1,1.6334,,0,38,38,56,1,0,mexican,,,,,,,,,,,,,,,,,,,,,,,,,,,,,,,,,,,,,,,,,,,,,,,,,,,,,,,,
,,,,,,,,,6756889918e4d36105a501ca,spanish,13 or older,"no, only English or Spanish",yes,2025-07-23_19h34.48.272,empathy_intonation_perc,2024.2.4,Win32,60.24096386,6756889918e4d36105a501ca,687ed1b7e638a4cbf2f02089,6881711ad2b8a867c97234bf,,,,,,,,,,,,,45,0,,./stim/wavs/castilian_match_declarative-broad-focus_David-leia-el-libro.wav,,,,,,,,,,,,,,,,,,,,,,406.0723,408.6877,1,0,2.085,,0,39,39,44,1,0,castilian,,,,,,,,,,,,,,,,,,,,,,,,,,,,,,,,,,,,,,,,,,,,,,,,,,,,,,,,
,,,,,,,,,6756889918e4d36105a501ca,spanish,13 or older,"no, only English or Spanish",yes,2025-07-23_19h34.48.272,empathy_intonation_perc,2024.2.4,Win32,60.24096386,6756889918e4d36105a501ca,687ed1b7e638a4cbf2f02089,6881711ad2b8a867c97234bf,,,,,,,,,,,,,47,0,,./stim/wavs/castilian_match_declarative-broad-focus_Manuela-vende-el-carro.wav,,,,,,,,,,,,,,,,,,,,,,408.6883,411.021,1,0,1.8003,,0,40,40,46,1,0,castilian,,,,,,,,,,,,,,,,,,,,,,,,,,,,,,,,,,,,,,,,,,,,,,,,,,,,,,,,
,,,,,,,,,6756889918e4d36105a501ca,spanish,13 or older,"no, only English or Spanish",yes,2025-07-23_19h34.48.272,empathy_intonation_perc,2024.2.4,Win32,60.24096386,6756889918e4d36105a501ca,687ed1b7e638a4cbf2f02089,6881711ad2b8a867c97234bf,,,,,,,,,,,,,66,0,,./stim/wavs/puertorican_match_declarative-broad-focus_Emilio-ama-la-marcha.wav,,,,,,,,,,,,,,,,,,,,,,411.0219,413.1041,0,1,1.5507,,0,41,41,65,1,0,puertorican,,,,,,,,,,,,,,,,,,,,,,,,,,,,,,,,,,,,,,,,,,,,,,,,,,,,,,,,
,,,,,,,,,6756889918e4d36105a501ca,spanish,13 or older,"no, only English or Spanish",yes,2025-07-23_19h34.48.272,empathy_intonation_perc,2024.2.4,Win32,60.24096386,6756889918e4d36105a501ca,687ed1b7e638a4cbf2f02089,6881711ad2b8a867c97234bf,,,,,,,,,,,,,78,0,,./stim/wavs/cuban_mismatch_declarative-broad-focus_Mi-tia-odia-la-lluvia.wav,,,,,,,,,,,,,,,,,,,,,,413.1051,415.4695,1,0,1.8329,,0,42,42,77,1,0,cuban,,,,,,,,,,,,,,,,,,,,,,,,,,,,,,,,,,,,,,,,,,,,,,,,,,,,,,,,
,,,,,,,,,6756889918e4d36105a501ca,spanish,13 or older,"no, only English or Spanish",yes,2025-07-23_19h34.48.272,empathy_intonation_perc,2024.2.4,Win32,60.24096386,6756889918e4d36105a501ca,687ed1b7e638a4cbf2f02089,6881711ad2b8a867c97234bf,,,,,,,,,,,,,83,0,,./stim/wavs/mexican_mismatch_declarative-broad-focus_Mi-tia-odia-la-lluvia.wav,,,,,,,,,,,,,,,,,,,,,,415.4706,417.3824,0,1,1.3839,,0,43,43,82,1,0,mexican,,,,,,,,,,,,,,,,,,,,,,,,,,,,,,,,,,,,,,,,,,,,,,,,,,,,,,,,
,,,,,,,,,6756889918e4d36105a501ca,spanish,13 or older,"no, only English or Spanish",yes,2025-07-23_19h34.48.272,empathy_intonation_perc,2024.2.4,Win32,60.24096386,6756889918e4d36105a501ca,687ed1b7e638a4cbf2f02089,6881711ad2b8a867c97234bf,,,,,,,,,,,,,84,0,,./stim/wavs/puertorican_mismatch_declarative-broad-focus_El-bebe-comia-muy-bien.wav,,,,,,,,,,,,,,,,,,,,,,417.3836,419.5857,0,1,1.6973,,0,44,44,83,1,0,puertorican,,,,,,,,,,,,,,,,,,,,,,,,,,,,,,,,,,,,,,,,,,,,,,,,,,,,,,,,
,,,,,,,,,6756889918e4d36105a501ca,spanish,13 or older,"no, only English or Spanish",yes,2025-07-23_19h34.48.272,empathy_intonation_perc,2024.2.4,Win32,60.24096386,6756889918e4d36105a501ca,687ed1b7e638a4cbf2f02089,6881711ad2b8a867c97234bf,,,,,,,,,,,,,42,1,,./stim/wavs/puertorican_mismatch_interrogative-total-yn_La-maestra-vive-en-Paris.wav,,,,,,,,,,,,,,,,,,,,,,419.5866,421.7812,1,1,1.6562,,0,45,45,41,1,1,puertorican,,,,,,,,,,,,,,,,,,,,,,,,,,,,,,,,,,,,,,,,,,,,,,,,,,,,,,,,
,,,,,,,,,6756889918e4d36105a501ca,spanish,13 or older,"no, only English or Spanish",yes,2025-07-23_19h34.48.272,empathy_intonation_perc,2024.2.4,Win32,60.24096386,6756889918e4d36105a501ca,687ed1b7e638a4cbf2f02089,6881711ad2b8a867c97234bf,,,,,,,,,,,,,16,1,,./stim/wavs/mexican_match_interrogative-total-yn_Emilio-ama-la-marcha.wav,,,,,,,,,,,,,,,,,,,,,,421.7821,423.9522,1,1,1.6341,,0,46,46,15,1,0,mexican,,,,,,,,,,,,,,,,,,,,,,,,,,,,,,,,,,,,,,,,,,,,,,,,,,,,,,,,
,,,,,,,,,6756889918e4d36105a501ca,spanish,13 or older,"no, only English or Spanish",yes,2025-07-23_19h34.48.272,empathy_intonation_perc,2024.2.4,Win32,60.24096386,6756889918e4d36105a501ca,687ed1b7e638a4cbf2f02089,6881711ad2b8a867c97234bf,,,,,,,,,,,,,8,1,,./stim/wavs/cuban_match_interrogative-total-yn_Daniel-iba-a-Bolivia.wav,,,,,,,,,,,,,,,,,,,,,,423.9531,425.9123,1,1,1.4347,,0,47,47,7,1,1,cuban,,,,,,,,,,,,,,,,,,,,,,,,,,,,,,,,,,,,,,,,,,,,,,,,,,,,,,,,
,,,,,,,,,6756889918e4d36105a501ca,spanish,13 or older,"no, only English or Spanish",yes,2025-07-23_19h34.48.272,empathy_intonation_perc,2024.2.4,Win32,60.24096386,6756889918e4d36105a501ca,687ed1b7e638a4cbf2f02089,6881711ad2b8a867c97234bf,,,,,,,,,,,,,44,1,,./stim/wavs/puertorican_mismatch_interrogative-total-yn_Mi-madre-come-la-fruta.wav,,,,,,,,,,,,,,,,,,,,,,425.9147,427.9495,0,0,1.5158,,0,48,48,43,1,1,puertorican,,,,,,,,,,,,,,,,,,,,,,,,,,,,,,,,,,,,,,,,,,,,,,,,,,,,,,,,
,,,,,,,,,6756889918e4d36105a501ca,spanish,13 or older,"no, only English or Spanish",yes,2025-07-23_19h34.48.272,empathy_intonation_perc,2024.2.4,Win32,60.24096386,6756889918e4d36105a501ca,687ed1b7e638a4cbf2f02089,6881711ad2b8a867c97234bf,,,,,,,,,,,,,72,0,,./stim/wavs/castilian_mismatch_declarative-broad-focus_Mi-novio-viene-del-lago.wav,,,,,,,,,,,,,,,,,,,,,,427.9499,430.1617,1,0,1.6673,,0,49,49,71,1,0,castilian,,,,,,,,,,,,,,,,,,,,,,,,,,,,,,,,,,,,,,,,,,,,,,,,,,,,,,,,
,,,,,,,,,6756889918e4d36105a501ca,spanish,13 or older,"no, only English or Spanish",yes,2025-07-23_19h34.48.272,empathy_intonation_perc,2024.2.4,Win32,60.24096386,6756889918e4d36105a501ca,687ed1b7e638a4cbf2f02089,6881711ad2b8a867c97234bf,,,,,,,,,,,,,26,1,,./stim/wavs/castilian_mismatch_interrogative-total-yn_La-nina-lava-el-plato.wav,,,,,,,,,,,,,,,,,,,,,,430.163,432.3152,1,1,1.6166,,0,50,50,25,1,0,castilian,,,,,,,,,,,,,,,,,,,,,,,,,,,,,,,,,,,,,,,,,,,,,,,,,,,,,,,,
,,,,,,,,,6756889918e4d36105a501ca,spanish,13 or older,"no, only English or Spanish",yes,2025-07-23_19h34.48.272,empathy_intonation_perc,2024.2.4,Win32,60.24096386,6756889918e4d36105a501ca,687ed1b7e638a4cbf2f02089,6881711ad2b8a867c97234bf,,,,,,,,,,,,,5,1,,./stim/wavs/castilian_match_interrogative-total-yn_Mariano-habla-del-tiempo.wav,,,,,,,,,,,,,,,,,,,,,,432.3164,435.1792,1,1,2.3434,,0,51,51,4,1,0,castilian,,,,,,,,,,,,,,,,,,,,,,,,,,,,,,,,,,,,,,,,,,,,,,,,,,,,,,,,
,,,,,,,,,6756889918e4d36105a501ca,spanish,13 or older,"no, only English or Spanish",yes,2025-07-23_19h34.48.272,empathy_intonation_perc,2024.2.4,Win32,60.24096386,6756889918e4d36105a501ca,687ed1b7e638a4cbf2f02089,6881711ad2b8a867c97234bf,,,,,,,,,,,,,49,0,,./stim/wavs/castilian_match_declarative-broad-focus_Mariano-habla-del-tiempo.wav,,,,,,,,,,,,,,,,,,,,,,435.18,437.3271,1,0,1.6218,,0,52,52,48,1,0,castilian,,,,,,,,,,,,,,,,,,,,,,,,,,,,,,,,,,,,,,,,,,,,,,,,,,,,,,,,
,,,,,,,,,6756889918e4d36105a501ca,spanish,13 or older,"no, only English or Spanish",yes,2025-07-23_19h34.48.272,empathy_intonation_perc,2024.2.4,Win32,60.24096386,6756889918e4d36105a501ca,687ed1b7e638a4cbf2f02089,6881711ad2b8a867c97234bf,,,,,,,,,,,,,24,1,,./stim/wavs/puertorican_match_interrogative-total-yn_Maria-bebe-el-vino.wav,,,,,,,,,,,,,,,,,,,,,,437.3286,439.2634,1,1,1.4001,,0,53,53,23,1,1,puertorican,,,,,,,,,,,,,,,,,,,,,,,,,,,,,,,,,,,,,,,,,,,,,,,,,,,,,,,,
,,,,,,,,,6756889918e4d36105a501ca,spanish,13 or older,"no, only English or Spanish",yes,2025-07-23_19h34.48.272,empathy_intonation_perc,2024.2.4,Win32,60.24096386,6756889918e4d36105a501ca,687ed1b7e638a4cbf2f02089,6881711ad2b8a867c97234bf,,,,,,,,,,,,,70,0,,./stim/wavs/castilian_mismatch_declarative-broad-focus_La-maestra-vive-en-Paris.wav,,,,,,,,,,,,,,,,,,,,,,439.2646,441.5965,1,0,1.7992,,0,54,54,69,1,0,castilian,,,,,,,,,,,,,,,,,,,,,,,,,,,,,,,,,,,,,,,,,,,,,,,,,,,,,,,,
,,,,,,,,,6756889918e4d36105a501ca,spanish,13 or older,"no, only English or Spanish",yes,2025-07-23_19h34.48.272,empathy_intonation_perc,2024.2.4,Win32,60.24096386,6756889918e4d36105a501ca,687ed1b7e638a4cbf2f02089,6881711ad2b8a867c97234bf,,,,,,,,,,,,,85,0,,./stim/wavs/puertorican_mismatch_declarative-broad-focus_El-hombre-mira-la-luna.wav,,,,,,,,,,,,,,,,,,,,,,441.5972,443.8125,0,1,1.6981,,0,55,55,84,1,0,puertorican,,,,,,,,,,,,,,,,,,,,,,,,,,,,,,,,,,,,,,,,,,,,,,,,,,,,,,,,
,,,,,,,,,6756889918e4d36105a501ca,spanish,13 or older,"no, only English or Spanish",yes,2025-07-23_19h34.48.272,empathy_intonation_perc,2024.2.4,Win32,60.24096386,6756889918e4d36105a501ca,687ed1b7e638a4cbf2f02089,6881711ad2b8a867c97234bf,,,,,,,,,,,,,10,1,,./stim/wavs/cuban_match_interrogative-total-yn_Maria-bebe-el-vino.wav,,,,,,,,,,,,,,,,,,,,,,443.8134,445.8921,0,0,1.5583,,0,56,56,9,1,1,cuban,,,,,,,,,,,,,,,,,,,,,,,,,,,,,,,,,,,,,,,,,,,,,,,,,,,,,,,,
,,,,,,,,,6756889918e4d36105a501ca,spanish,13 or older,"no, only English or Spanish",yes,2025-07-23_19h34.48.272,empathy_intonation_perc,2024.2.4,Win32,60.24096386,6756889918e4d36105a501ca,687ed1b7e638a4cbf2f02089,6881711ad2b8a867c97234bf,,,,,,,,,,,,,22,1,,./stim/wavs/puertorican_match_interrogative-total-yn_Emilio-ama-la-marcha.wav,,,,,,,,,,,,,,,,,,,,,,445.8939,447.875,1,1,1.4418,,0,57,57,21,1,1,puertorican,,,,,,,,,,,,,,,,,,,,,,,,,,,,,,,,,,,,,,,,,,,,,,,,,,,,,,,,
,,,,,,,,,6756889918e4d36105a501ca,spanish,13 or older,"no, only English or Spanish",yes,2025-07-23_19h34.48.272,empathy_intonation_perc,2024.2.4,Win32,60.24096386,6756889918e4d36105a501ca,687ed1b7e638a4cbf2f02089,6881711ad2b8a867c97234bf,,,,,,,,,,,,,87,0,,./stim/wavs/puertorican_mismatch_declarative-broad-focus_La-maestra-vive-en-Paris.wav,,,,,,,,,,,,,,,,,,,,,,447.8768,450.0236,1,0,1.6387,,0,58,58,86,1,0,puertorican,,,,,,,,,,,,,,,,,,,,,,,,,,,,,,,,,,,,,,,,,,,,,,,,,,,,,,,,
,,,,,,,,,6756889918e4d36105a501ca,spanish,13 or older,"no, only English or Spanish",yes,2025-07-23_19h34.48.272,empathy_intonation_perc,2024.2.4,Win32,60.24096386,6756889918e4d36105a501ca,687ed1b7e638a4cbf2f02089,6881711ad2b8a867c97234bf,,,,,,,,,,,,,19,1,,./stim/wavs/puertorican_match_interrogative-total-yn_Ana-lleva-el-abrigo.wav,,,,,,,,,,,,,,,,,,,,,,450.0255,451.8243,1,1,1.2679,,0,59,59,18,1,1,puertorican,,,,,,,,,,,,,,,,,,,,,,,,,,,,,,,,,,,,,,,,,,,,,,,,,,,,,,,,
,,,,,,,,,6756889918e4d36105a501ca,spanish,13 or older,"no, only English or Spanish",yes,2025-07-23_19h34.48.272,empathy_intonation_perc,2024.2.4,Win32,60.24096386,6756889918e4d36105a501ca,687ed1b7e638a4cbf2f02089,6881711ad2b8a867c97234bf,,,,,,,,,,,,,67,0,,./stim/wavs/puertorican_match_declarative-broad-focus_Manuela-vende-el-carro.wav,,,,,,,,,,,,,,,,,,,,,,451.8265,453.6949,0,1,1.3462,,0,60,60,66,1,0,puertorican,,,,,,,,,,,,,,,,,,,,,,,,,,,,,,,,,,,,,,,,,,,,,,,,,,,,,,,,
,,,,,,,,,6756889918e4d36105a501ca,spanish,13 or older,"no, only English or Spanish",yes,2025-07-23_19h34.48.272,empathy_intonation_perc,2024.2.4,Win32,60.24096386,6756889918e4d36105a501ca,687ed1b7e638a4cbf2f02089,6881711ad2b8a867c97234bf,,,,,,,,,,,,,68,0,,./stim/wavs/puertorican_match_declarative-broad-focus_Maria-bebe-el-vino.wav,,,,,,,,,,,,,,,,,,,,,,453.6963,455.6569,1,0,1.4183,,0,61,61,67,1,0,puertorican,,,,,,,,,,,,,,,,,,,,,,,,,,,,,,,,,,,,,,,,,,,,,,,,,,,,,,,,
,,,,,,,,,6756889918e4d36105a501ca,spanish,13 or older,"no, only English or Spanish",yes,2025-07-23_19h34.48.272,empathy_intonation_perc,2024.2.4,Win32,60.24096386,6756889918e4d36105a501ca,687ed1b7e638a4cbf2f02089,6881711ad2b8a867c97234bf,,,,,,,,,,,,,12,1,,./stim/wavs/cuban_match_interrogative-total-yn_Marta-abre-el-regalo.wav,,,,,,,,,,,,,,,,,,,,,,455.659,457.7405,0,0,1.5538,,0,62,62,11,1,1,cuban,,,,,,,,,,,,,,,,,,,,,,,,,,,,,,,,,,,,,,,,,,,,,,,,,,,,,,,,
,,,,,,,,,6756889918e4d36105a501ca,spanish,13 or older,"no, only English or Spanish",yes,2025-07-23_19h34.48.272,empathy_intonation_perc,2024.2.4,Win32,60.24096386,6756889918e4d36105a501ca,687ed1b7e638a4cbf2f02089,6881711ad2b8a867c97234bf,,,,,,,,,,,,,20,1,,./stim/wavs/puertorican_match_interrogative-total-yn_Daniel-iba-a-Bolivia.wav,,,,,,,,,,,,,,,,,,,,,,457.7418,460.0402,0,0,1.7639,,0,63,63,19,1,1,puertorican,,,,,,,,,,,,,,,,,,,,,,,,,,,,,,,,,,,,,,,,,,,,,,,,,,,,,,,,
,,,,,,,,,6756889918e4d36105a501ca,spanish,13 or older,"no, only English or Spanish",yes,2025-07-23_19h34.48.272,empathy_intonation_perc,2024.2.4,Win32,60.24096386,6756889918e4d36105a501ca,687ed1b7e638a4cbf2f02089,6881711ad2b8a867c97234bf,,,,,,,,,,,,,81,0,,./stim/wavs/mexican_mismatch_declarative-broad-focus_La-maestra-vive-en-Paris.wav,,,,,,,,,,,,,,,,,,,,,,460.041,462.1935,0,1,1.6176,,0,64,64,80,1,0,mexican,,,,,,,,,,,,,,,,,,,,,,,,,,,,,,,,,,,,,,,,,,,,,,,,,,,,,,,,
,,,,,,,,,6756889918e4d36105a501ca,spanish,13 or older,"no, only English or Spanish",yes,2025-07-23_19h34.48.272,empathy_intonation_perc,2024.2.4,Win32,60.24096386,6756889918e4d36105a501ca,687ed1b7e638a4cbf2f02089,6881711ad2b8a867c97234bf,,,,,,,,,,,,,52,0,,./stim/wavs/cuban_match_declarative-broad-focus_Daniel-iba-a-Bolivia.wav,,,,,,,,,,,,,,,,,,,,,,462.1943,464.5066,1,0,1.7897,,0,65,65,51,1,0,cuban,,,,,,,,,,,,,,,,,,,,,,,,,,,,,,,,,,,,,,,,,,,,,,,,,,,,,,,,
,,,,,,,,,6756889918e4d36105a501ca,spanish,13 or older,"no, only English or Spanish",yes,2025-07-23_19h34.48.272,empathy_intonation_perc,2024.2.4,Win32,60.24096386,6756889918e4d36105a501ca,687ed1b7e638a4cbf2f02089,6881711ad2b8a867c97234bf,,,,,,,,,,,,,73,0,,./stim/wavs/castilian_mismatch_declarative-broad-focus_Mi-tia-odia-la-lluvia.wav,,,,,,,,,,,,,,,,,,,,,,464.5071,466.742,1,0,1.7,,0,66,66,72,1,0,castilian,,,,,,,,,,,,,,,,,,,,,,,,,,,,,,,,,,,,,,,,,,,,,,,,,,,,,,,,
,,,,,,,,,6756889918e4d36105a501ca,spanish,13 or older,"no, only English or Spanish",yes,2025-07-23_19h34.48.272,empathy_intonation_perc,2024.2.4,Win32,60.24096386,6756889918e4d36105a501ca,687ed1b7e638a4cbf2f02089,6881711ad2b8a867c97234bf,,,,,,,,,,,,,56,0,,./stim/wavs/cuban_match_declarative-broad-focus_Marta-abre-el-regalo.wav,,,,,,,,,,,,,,,,,,,,,,466.7426,468.8597,0,1,1.5991,,0,67,67,55,1,0,cuban,,,,,,,,,,,,,,,,,,,,,,,,,,,,,,,,,,,,,,,,,,,,,,,,,,,,,,,,
,,,,,,,,,6756889918e4d36105a501ca,spanish,13 or older,"no, only English or Spanish",yes,2025-07-23_19h34.48.272,empathy_intonation_perc,2024.2.4,Win32,60.24096386,6756889918e4d36105a501ca,687ed1b7e638a4cbf2f02089,6881711ad2b8a867c97234bf,,,,,,,,,,,,,86,0,,./stim/wavs/puertorican_mismatch_declarative-broad-focus_El-nino-oye-el-rio.wav,,,,,,,,,,,,,,,,,,,,,,468.8604,470.7921,0,1,1.4167,,0,68,68,85,1,0,puertorican,,,,,,,,,,,,,,,,,,,,,,,,,,,,,,,,,,,,,,,,,,,,,,,,,,,,,,,,
,,,,,,,,,6756889918e4d36105a501ca,spanish,13 or older,"no, only English or Spanish",yes,2025-07-23_19h34.48.272,empathy_intonation_perc,2024.2.4,Win32,60.24096386,6756889918e4d36105a501ca,687ed1b7e638a4cbf2f02089,6881711ad2b8a867c97234bf,,,,,,,,,,,,,61,0,,./stim/wavs/mexican_match_declarative-broad-focus_Mariano-habla-del-tiempo.wav,,,,,,,,,,,,,,,,,,,,,,470.7933,472.9251,0,1,1.613,,0,69,69,60,1,0,mexican,,,,,,,,,,,,,,,,,,,,,,,,,,,,,,,,,,,,,,,,,,,,,,,,,,,,,,,,
,,,,,,,,,6756889918e4d36105a501ca,spanish,13 or older,"no, only English or Spanish",yes,2025-07-23_19h34.48.272,empathy_intonation_perc,2024.2.4,Win32,60.24096386,6756889918e4d36105a501ca,687ed1b7e638a4cbf2f02089,6881711ad2b8a867c97234bf,,,,,,,,,,,,,2,1,,./stim/wavs/castilian_match_interrogative-total-yn_Emilio-ama-la-marcha.wav,,,,,,,,,,,,,,,,,,,,,,472.9263,475.0077,1,1,1.5496,,0,70,70,1,1,0,castilian,,,,,,,,,,,,,,,,,,,,,,,,,,,,,,,,,,,,,,,,,,,,,,,,,,,,,,,,
,,,,,,,,,6756889918e4d36105a501ca,spanish,13 or older,"no, only English or Spanish",yes,2025-07-23_19h34.48.272,empathy_intonation_perc,2024.2.4,Win32,60.24096386,6756889918e4d36105a501ca,687ed1b7e638a4cbf2f02089,6881711ad2b8a867c97234bf,,,,,,,,,,,,,71,0,,./stim/wavs/castilian_mismatch_declarative-broad-focus_La-nina-lava-el-plato.wav,,,,,,,,,,,,,,,,,,,,,,475.0088,477.1742,1,0,1.6336,,0,71,71,70,1,0,castilian,,,,,,,,,,,,,,,,,,,,,,,,,,,,,,,,,,,,,,,,,,,,,,,,,,,,,,,,
,,,,,,,,,6756889918e4d36105a501ca,spanish,13 or older,"no, only English or Spanish",yes,2025-07-23_19h34.48.272,empathy_intonation_perc,2024.2.4,Win32,60.24096386,6756889918e4d36105a501ca,687ed1b7e638a4cbf2f02089,6881711ad2b8a867c97234bf,,,,,,,,,,,,,18,1,,./stim/wavs/mexican_match_interrogative-total-yn_Marta-abre-el-regalo.wav,,,,,,,,,,,,,,,,,,,,,,477.1753,479.1698,1,1,1.4535,,0,72,72,17,1,0,mexican,,,,,,,,,,,,,,,,,,,,,,,,,,,,,,,,,,,,,,,,,,,,,,,,,,,,,,,,
,,,,,,,,,6756889918e4d36105a501ca,spanish,13 or older,"no, only English or Spanish",yes,2025-07-23_19h34.48.272,empathy_intonation_perc,2024.2.4,Win32,60.24096386,6756889918e4d36105a501ca,687ed1b7e638a4cbf2f02089,6881711ad2b8a867c97234bf,,,,,,,,,,,,,17,1,,./stim/wavs/mexican_match_interrogative-total-yn_Mariano-habla-del-tiempo.wav,,,,,,,,,,,,,,,,,,,,,,479.171,481.2567,1,1,1.5797,,0,73,73,16,1,0,mexican,,,,,,,,,,,,,,,,,,,,,,,,,,,,,,,,,,,,,,,,,,,,,,,,,,,,,,,,
,,,,,,,,,6756889918e4d36105a501ca,spanish,13 or older,"no, only English or Spanish",yes,2025-07-23_19h34.48.272,empathy_intonation_perc,2024.2.4,Win32,60.24096386,6756889918e4d36105a501ca,687ed1b7e638a4cbf2f02089,6881711ad2b8a867c97234bf,,,,,,,,,,,,,27,1,,./stim/wavs/castilian_mismatch_interrogative-total-yn_Mi-madre-come-la-fruta.wav,,,,,,,,,,,,,,,,,,,,,,481.2576,483.6181,1,1,1.8356,,0,74,74,26,1,0,castilian,,,,,,,,,,,,,,,,,,,,,,,,,,,,,,,,,,,,,,,,,,,,,,,,,,,,,,,,
,,,,,,,,,6756889918e4d36105a501ca,spanish,13 or older,"no, only English or Spanish",yes,2025-07-23_19h34.48.272,empathy_intonation_perc,2024.2.4,Win32,60.24096386,6756889918e4d36105a501ca,687ed1b7e638a4cbf2f02089,6881711ad2b8a867c97234bf,,,,,,,,,,,,,58,0,,./stim/wavs/mexican_match_declarative-broad-focus_Daniel-iba-a-Bolivia.wav,,,,,,,,,,,,,,,,,,,,,,483.6194,485.6059,0,1,1.4804,,0,75,75,57,1,0,mexican,,,,,,,,,,,,,,,,,,,,,,,,,,,,,,,,,,,,,,,,,,,,,,,,,,,,,,,,
,,,,,,,,,6756889918e4d36105a501ca,spanish,13 or older,"no, only English or Spanish",yes,2025-07-23_19h34.48.272,empathy_intonation_perc,2024.2.4,Win32,60.24096386,6756889918e4d36105a501ca,687ed1b7e638a4cbf2f02089,6881711ad2b8a867c97234bf,,,,,,,,,,,,,43,1,,./stim/wavs/puertorican_mismatch_interrogative-total-yn_La-nina-lava-el-plato.wav,,,,,,,,,,,,,,,,,,,,,,485.6068,487.5057,0,0,1.3799,,0,76,76,42,1,1,puertorican,,,,,,,,,,,,,,,,,,,,,,,,,,,,,,,,,,,,,,,,,,,,,,,,,,,,,,,,
,,,,,,,,,6756889918e4d36105a501ca,spanish,13 or older,"no, only English or Spanish",yes,2025-07-23_19h34.48.272,empathy_intonation_perc,2024.2.4,Win32,60.24096386,6756889918e4d36105a501ca,687ed1b7e638a4cbf2f02089,6881711ad2b8a867c97234bf,,,,,,,,,,,,,31,1,,./stim/wavs/cuban_mismatch_interrogative-total-yn_El-nino-oye-el-rio.wav,,,,,,,,,,,,,,,,,,,,,,487.5065,489.3002,0,0,1.2632,,0,77,77,30,1,1,cuban,,,,,,,,,,,,,,,,,,,,,,,,,,,,,,,,,,,,,,,,,,,,,,,,,,,,,,,,
,,,,,,,,,6756889918e4d36105a501ca,spanish,13 or older,"no, only English or Spanish",yes,2025-07-23_19h34.48.272,empathy_intonation_perc,2024.2.4,Win32,60.24096386,6756889918e4d36105a501ca,687ed1b7e638a4cbf2f02089,6881711ad2b8a867c97234bf,,,,,,,,,,,,,39,1,,./stim/wavs/mexican_mismatch_interrogative-total-yn_Mi-tia-odia-la-lluvia.wav,,,,,,,,,,,,,,,,,,,,,,489.3023,491.1715,1,1,1.3517,,0,78,78,38,1,0,mexican,,,,,,,,,,,,,,,,,,,,,,,,,,,,,,,,,,,,,,,,,,,,,,,,,,,,,,,,
,,,,,,,,,6756889918e4d36105a501ca,spanish,13 or older,"no, only English or Spanish",yes,2025-07-23_19h34.48.272,empathy_intonation_perc,2024.2.4,Win32,60.24096386,6756889918e4d36105a501ca,687ed1b7e638a4cbf2f02089,6881711ad2b8a867c97234bf,,,,,,,,,,,,,35,1,,./stim/wavs/mexican_mismatch_interrogative-total-yn_El-hombre-mira-la-luna.wav,,,,,,,,,,,,,,,,,,,,,,491.1724,492.8492,1,1,1.1482,,0,79,79,34,1,0,mexican,,,,,,,,,,,,,,,,,,,,,,,,,,,,,,,,,,,,,,,,,,,,,,,,,,,,,,,,
,,,,,,,,,6756889918e4d36105a501ca,spanish,13 or older,"no, only English or Spanish",yes,2025-07-23_19h34.48.272,empathy_intonation_perc,2024.2.4,Win32,60.24096386,6756889918e4d36105a501ca,687ed1b7e638a4cbf2f02089,6881711ad2b8a867c97234bf,,,,,,,,,,,,,41,1,,./stim/wavs/puertorican_mismatch_interrogative-total-yn_El-nino-oye-el-rio.wav,,,,,,,,,,,,,,,,,,,,,,492.8509,494.9823,0,0,1.6212,,0,80,80,40,1,1,puertorican,,,,,,,,,,,,,,,,,,,,,,,,,,,,,,,,,,,,,,,,,,,,,,,,,,,,,,,,
,,,,,,,,,6756889918e4d36105a501ca,spanish,13 or older,"no, only English or Spanish",yes,2025-07-23_19h34.48.272,empathy_intonation_perc,2024.2.4,Win32,60.24096386,6756889918e4d36105a501ca,687ed1b7e638a4cbf2f02089,6881711ad2b8a867c97234bf,,,,,,,,,,,,,37,1,,./stim/wavs/mexican_mismatch_interrogative-total-yn_La-maestra-vive-en-Paris.wav,,,,,,,,,,,,,,,,,,,,,,494.9839,497.3024,1,1,1.7819,,0,81,81,36,1,0,mexican,,,,,,,,,,,,,,,,,,,,,,,,,,,,,,,,,,,,,,,,,,,,,,,,,,,,,,,,
,,,,,,,,,6756889918e4d36105a501ca,spanish,13 or older,"no, only English or Spanish",yes,2025-07-23_19h34.48.272,empathy_intonation_perc,2024.2.4,Win32,60.24096386,6756889918e4d36105a501ca,687ed1b7e638a4cbf2f02089,6881711ad2b8a867c97234bf,,,,,,,,,,,,,9,1,,./stim/wavs/cuban_match_interrogative-total-yn_Manuela-vende-el-carro.wav,,,,,,,,,,,,,,,,,,,,,,497.3036,498.6981,0,0,0.8571,,0,82,82,8,1,1,cuban,,,,,,,,,,,,,,,,,,,,,,,,,,,,,,,,,,,,,,,,,,,,,,,,,,,,,,,,
,,,,,,,,,6756889918e4d36105a501ca,spanish,13 or older,"no, only English or Spanish",yes,2025-07-23_19h34.48.272,empathy_intonation_perc,2024.2.4,Win32,60.24096386,6756889918e4d36105a501ca,687ed1b7e638a4cbf2f02089,6881711ad2b8a867c97234bf,,,,,,,,,,,,,65,0,,./stim/wavs/puertorican_match_declarative-broad-focus_David-leia-el-libro.wav,,,,,,,,,,,,,,,,,,,,,,498.7002,500.6528,0,1,1.446,,0,83,83,64,1,0,puertorican,,,,,,,,,,,,,,,,,,,,,,,,,,,,,,,,,,,,,,,,,,,,,,,,,,,,,,,,
,,,,,,,,,6756889918e4d36105a501ca,spanish,13 or older,"no, only English or Spanish",yes,2025-07-23_19h34.48.272,empathy_intonation_perc,2024.2.4,Win32,60.24096386,6756889918e4d36105a501ca,687ed1b7e638a4cbf2f02089,6881711ad2b8a867c97234bf,,,,,,,,,,,,,32,1,,./stim/wavs/cuban_mismatch_interrogative-total-yn_Mi-madre-come-la-fruta.wav,,,,,,,,,,,,,,,,,,,,,,500.6537,502.8019,0,0,1.6167,,0,84,84,31,1,1,cuban,,,,,,,,,,,,,,,,,,,,,,,,,,,,,,,,,,,,,,,,,,,,,,,,,,,,,,,,
,,,,,,,,,6756889918e4d36105a501ca,spanish,13 or older,"no, only English or Spanish",yes,2025-07-23_19h34.48.272,empathy_intonation_perc,2024.2.4,Win32,60.24096386,6756889918e4d36105a501ca,687ed1b7e638a4cbf2f02089,6881711ad2b8a867c97234bf,,,,,,,,,,,,,23,1,,./stim/wavs/puertorican_match_interrogative-total-yn_Manuela-vende-el-carro.wav,,,,,,,,,,,,,,,,,,,,,,502.8025,504.6187,1,1,1.296,,0,85,85,22,1,1,puertorican,,,,,,,,,,,,,,,,,,,,,,,,,,,,,,,,,,,,,,,,,,,,,,,,,,,,,,,,
,,,,,,,,,6756889918e4d36105a501ca,spanish,13 or older,"no, only English or Spanish",yes,2025-07-23_19h34.48.272,empathy_intonation_perc,2024.2.4,Win32,60.24096386,6756889918e4d36105a501ca,687ed1b7e638a4cbf2f02089,6881711ad2b8a867c97234bf,,,,,,,,,,,,,54,0,,./stim/wavs/cuban_match_declarative-broad-focus_Maria-bebe-el-vino.wav,,,,,,,,,,,,,,,,,,,,,,504.6193,506.8844,0,1,1.7332,,0,86,86,53,1,0,cuban,,,,,,,,,,,,,,,,,,,,,,,,,,,,,,,,,,,,,,,,,,,,,,,,,,,,,,,,
,,,,,,,,,6756889918e4d36105a501ca,spanish,13 or older,"no, only English or Spanish",yes,2025-07-23_19h34.48.272,empathy_intonation_perc,2024.2.4,Win32,60.24096386,6756889918e4d36105a501ca,687ed1b7e638a4cbf2f02089,6881711ad2b8a867c97234bf,,,,,,,,,,,,,80,0,,./stim/wavs/mexican_mismatch_declarative-broad-focus_El-hombre-mira-la-luna.wav,,,,,,,,,,,,,,,,,,,,,,506.8853,509.1346,0,1,1.7323,,0,87,87,79,1,0,mexican,,,,,,,,,,,,,,,,,,,,,,,,,,,,,,,,,,,,,,,,,,,,,,,,,,,,,,,,
,,,,,,,"Great! Now we will move on. The next task consists of about 60 trials, in each of which you will see a string of letters. 
  
  Your task is to decide whether this is a real Spanish word or not.", (press the spacebar to continue),6756889918e4d36105a501ca,spanish,13 or older,"no, only English or Spanish",yes,2025-07-23_19h34.48.272,empathy_intonation_perc,2024.2.4,Win32,60.24096386,6756889918e4d36105a501ca,687ed1b7e638a4cbf2f02089,6881711ad2b8a867c97234bf,,,,,,,,,,,,,,,,,,,,,,,,,,,,,,,,,,,,,,,,,,,,,,,,,,,509.1545,519.3763,0,0,0,0,1,,,,,,,,,,,,,,,,,,,,,,,,,,,,,,,,,,,,,,,,,,,,,,,,,
,,,,,,,"If you think it is an existing Spanish word, you type '1' (for 'REAL'), and if you think it is not an existing Spanish word, you type '0' (for 'FAKE').", (press the spacebar to continue),6756889918e4d36105a501ca,spanish,13 or older,"no, only English or Spanish",yes,2025-07-23_19h34.48.272,empathy_intonation_perc,2024.2.4,Win32,60.24096386,6756889918e4d36105a501ca,687ed1b7e638a4cbf2f02089,6881711ad2b8a867c97234bf,,,,,,,,,,,,,,,,,,,,,,,,,,,,,,,,,,,,,,,,,,,,,,,,,,,519.3816,525.5259,0,1,1,1,1,,,,,,,,,,,,,,,,,,,,,,,,,,,,,,,,,,,,,,,,,,,,,,,,,
,,,,,,,"If you are sure that the word exists, even though you don’t know its exact meaning, you may still respond '1' (REAL). 
  
  But if you are not sure if it is an existing word, you should respond '0' (FAKE).
  
  Let's do a practice round...", (press the spacebar to continue),6756889918e4d36105a501ca,spanish,13 or older,"no, only English or Spanish",yes,2025-07-23_19h34.48.272,empathy_intonation_perc,2024.2.4,Win32,60.24096386,6756889918e4d36105a501ca,687ed1b7e638a4cbf2f02089,6881711ad2b8a867c97234bf,,,,,,,,,,,,,,,,,,,,,,,,,,,,,,,,,,,,,,,,,,,,,,,,,,,525.5298,537.3569,0,2,2,2,1,,,,,,,,,,,,,,,,,,,,,,,,,,,,,,,,,,,,,,,,,,,,,,,,,
,,,,,,,,,6756889918e4d36105a501ca,spanish,13 or older,"no, only English or Spanish",yes,2025-07-23_19h34.48.272,empathy_intonation_perc,2024.2.4,Win32,60.24096386,6756889918e4d36105a501ca,687ed1b7e638a4cbf2f02089,6881711ad2b8a867c97234bf,,,,,,,,,,,,,,0,,,,,,,,,,,,,,,,,,,,,,,,,,,,,,,,,,,,,,,,,,,,537.3654,542.2723,1,0,4.38,,542.2727,543.2717,0,0,0,0,1,0,depiste,REAL,FAKE,,,,,,,,,,,,,,,,,,,,,,,,,,,,,,,,
,,,,,,,,,6756889918e4d36105a501ca,spanish,13 or older,"no, only English or Spanish",yes,2025-07-23_19h34.48.272,empathy_intonation_perc,2024.2.4,Win32,60.24096386,6756889918e4d36105a501ca,687ed1b7e638a4cbf2f02089,6881711ad2b8a867c97234bf,,,,,,,,,,,,,,1,,,,,,,,,,,,,,,,,,,,,,,,,,,,,,,,,,,,,,,,,,,,543.378,545.4279,1,1,1.6321,,545.4289,546.4221,0,1,1,1,1,0,sí,REAL,FAKE,,,,,,,,,,,,,,,,,,,,,,,,,,,,,,,,
,,,,,,,,,6756889918e4d36105a501ca,spanish,13 or older,"no, only English or Spanish",yes,2025-07-23_19h34.48.272,empathy_intonation_perc,2024.2.4,Win32,60.24096386,6756889918e4d36105a501ca,687ed1b7e638a4cbf2f02089,6881711ad2b8a867c97234bf,,,,,,,,,,,,,,0,,,,,,,,,,,,,,,,,,,,,,,,,,,,,,,,,,,,,,,,,,,,546.4251,548.4765,1,0,1.5151,,548.4776,549.4754,0,2,2,2,1,0,coné,REAL,FAKE,,,,,,,,,,,,,,,,,,,,,,,,,,,,,,,,
,,,,,,,,,6756889918e4d36105a501ca,spanish,13 or older,"no, only English or Spanish",yes,2025-07-23_19h34.48.272,empathy_intonation_perc,2024.2.4,Win32,60.24096386,6756889918e4d36105a501ca,687ed1b7e638a4cbf2f02089,6881711ad2b8a867c97234bf,,,,,,,,,,,,,,0,,,,,,,,,,,,,,,,,,,,,,,,,,,,,,,,,,,,,,,,,,,,549.4771,551.0892,1,0,1.0741,,551.0892,552.0916,0,3,3,3,1,0,calpar,REAL,FAKE,,,,,,,,,,,,,,,,,,,,,,,,,,,,,,,,
,,,,,,,,,6756889918e4d36105a501ca,spanish,13 or older,"no, only English or Spanish",yes,2025-07-23_19h34.48.272,empathy_intonation_perc,2024.2.4,Win32,60.24096386,6756889918e4d36105a501ca,687ed1b7e638a4cbf2f02089,6881711ad2b8a867c97234bf,,,,,,,,,,,,,,0,,,,,,,,,,,,,,,,,,,,,,,,,,,,,,,,,,,,,,,,,,,,552.0936,553.4554,1,0,0.8198,,553.4554,554.4555,0,4,4,4,1,0,joten,REAL,FAKE,,,,,,,,,,,,,,,,,,,,,,,,,,,,,,,,
,,,,,,,,,6756889918e4d36105a501ca,spanish,13 or older,"no, only English or Spanish",yes,2025-07-23_19h34.48.272,empathy_intonation_perc,2024.2.4,Win32,60.24096386,6756889918e4d36105a501ca,687ed1b7e638a4cbf2f02089,6881711ad2b8a867c97234bf,,,,,,,,,,,,,,1,,,,,,,,,,,,,,,,,,,,,,,,,,,,,,,,,,,,,,,,,,,,554.4571,555.7553,1,1,0.7534,,555.7563,556.7552,0,5,5,5,1,0,sacapuntas,REAL,FAKE,,,,,,,,,,,,,,,,,,,,,,,,,,,,,,,,
,,,,,,,,,6756889918e4d36105a501ca,spanish,13 or older,"no, only English or Spanish",yes,2025-07-23_19h34.48.272,empathy_intonation_perc,2024.2.4,Win32,60.24096386,6756889918e4d36105a501ca,687ed1b7e638a4cbf2f02089,6881711ad2b8a867c97234bf,,,,,,,,,,,,,,0,,,,,,,,,,,,,,,,,,,,,,,,,,,,,,,,,,,,,,,,,,,,556.7574,558.1922,0,1,0.8984,,558.1922,559.1905,0,6,6,6,1,0,priba,REAL,FAKE,,,,,,,,,,,,,,,,,,,,,,,,,,,,,,,,
,,,,,,,,,6756889918e4d36105a501ca,spanish,13 or older,"no, only English or Spanish",yes,2025-07-23_19h34.48.272,empathy_intonation_perc,2024.2.4,Win32,60.24096386,6756889918e4d36105a501ca,687ed1b7e638a4cbf2f02089,6881711ad2b8a867c97234bf,,,,,,,,,,,,,,0,,,,,,,,,,,,,,,,,,,,,,,,,,,,,,,,,,,,,,,,,,,,559.192,560.4877,0,1,0.7543,,560.4878,561.4899,0,7,7,7,1,0,pelasula,REAL,FAKE,,,,,,,,,,,,,,,,,,,,,,,,,,,,,,,,
,,,,,,,,,6756889918e4d36105a501ca,spanish,13 or older,"no, only English or Spanish",yes,2025-07-23_19h34.48.272,empathy_intonation_perc,2024.2.4,Win32,60.24096386,6756889918e4d36105a501ca,687ed1b7e638a4cbf2f02089,6881711ad2b8a867c97234bf,,,,,,,,,,,,,,1,,,,,,,,,,,,,,,,,,,,,,,,,,,,,,,,,,,,,,,,,,,,561.4917,562.9372,1,1,0.9052,,562.9373,563.9403,0,8,8,8,1,0,bien,REAL,FAKE,,,,,,,,,,,,,,,,,,,,,,,,,,,,,,,,
,,,,,,,,,6756889918e4d36105a501ca,spanish,13 or older,"no, only English or Spanish",yes,2025-07-23_19h34.48.272,empathy_intonation_perc,2024.2.4,Win32,60.24096386,6756889918e4d36105a501ca,687ed1b7e638a4cbf2f02089,6881711ad2b8a867c97234bf,,,,,,,,,,,,,,1,,,,,,,,,,,,,,,,,,,,,,,,,,,,,,,,,,,,,,,,,,,,563.942,565.272,0,0,0.7964,,565.273,566.2713,0,9,9,9,1,0,casa,REAL,FAKE,,,,,,,,,,,,,,,,,,,,,,,,,,,,,,,,
,,,,,,,,,6756889918e4d36105a501ca,spanish,13 or older,"no, only English or Spanish",yes,2025-07-23_19h34.48.272,empathy_intonation_perc,2024.2.4,Win32,60.24096386,6756889918e4d36105a501ca,687ed1b7e638a4cbf2f02089,6881711ad2b8a867c97234bf,,,,,,,,,,,,,,0,,,,,,,,,,,,,,,,,,,,,,,,,,,,,,,,,,,,,,,,,,,,566.2727,567.8063,0,1,0.9981,,567.8074,568.8011,0,10,10,10,1,0,lejo,REAL,FAKE,,,,,,,,,,,,,,,,,,,,,,,,,,,,,,,,
,,,,,,,,,6756889918e4d36105a501ca,spanish,13 or older,"no, only English or Spanish",yes,2025-07-23_19h34.48.272,empathy_intonation_perc,2024.2.4,Win32,60.24096386,6756889918e4d36105a501ca,687ed1b7e638a4cbf2f02089,6881711ad2b8a867c97234bf,,,,,,,,,,,,,,0,,,,,,,,,,,,,,,,,,,,,,,,,,,,,,,,,,,,,,,,,,,,568.804,570.2861,1,0,0.9588,,570.2876,571.2883,0,11,11,11,1,0,pretantas,REAL,FAKE,,,,,,,,,,,,,,,,,,,,,,,,,,,,,,,,
,,,,,,,,,6756889918e4d36105a501ca,spanish,13 or older,"no, only English or Spanish",yes,2025-07-23_19h34.48.272,empathy_intonation_perc,2024.2.4,Win32,60.24096386,6756889918e4d36105a501ca,687ed1b7e638a4cbf2f02089,6881711ad2b8a867c97234bf,,,,,,,,,,,,,,,,,,,,,,,,,,,,,,,,,,,,,,,,,,,,,,,,,,,,,,,,,,,,,,,,,,,,,,,,,,,571.289,572.8861,,,,,,,,,,,,,,,,,,,,,,,,,,,,,,
,,,,,,,,,6756889918e4d36105a501ca,spanish,13 or older,"no, only English or Spanish",yes,2025-07-23_19h34.48.272,empathy_intonation_perc,2024.2.4,Win32,60.24096386,6756889918e4d36105a501ca,687ed1b7e638a4cbf2f02089,6881711ad2b8a867c97234bf,,,,,,,,,,,,,,1,,,,,,,,,,,,,,,,,,,,,,,,,,,,,,,,,,,,,,,,,,,,,,,,,,,,,,,,,9,hacha,,,,,572.8925,574.7723,0,0,1.3489,,0,0,0,8,1,REAL,FAKE,,,,,,,,,,,,,,,,,
,,,,,,,,,6756889918e4d36105a501ca,spanish,13 or older,"no, only English or Spanish",yes,2025-07-23_19h34.48.272,empathy_intonation_perc,2024.2.4,Win32,60.24096386,6756889918e4d36105a501ca,687ed1b7e638a4cbf2f02089,6881711ad2b8a867c97234bf,,,,,,,,,,,,,,1,,,,,,,,,,,,,,,,,,,,,,,,,,,,,,,,,,,,,,,,,,,,,,,,,,,,,,,,,28,merodear,,,,,574.7739,576.5378,0,0,1.2319,,0,1,1,27,1,REAL,FAKE,,,,,,,,,,,,,,,,,
,,,,,,,,,6756889918e4d36105a501ca,spanish,13 or older,"no, only English or Spanish",yes,2025-07-23_19h34.48.272,empathy_intonation_perc,2024.2.4,Win32,60.24096386,6756889918e4d36105a501ca,687ed1b7e638a4cbf2f02089,6881711ad2b8a867c97234bf,,,,,,,,,,,,,,0,,,,,,,,,,,,,,,,,,,,,,,,,,,,,,,,,,,,,,,,,,,,,,,,,,,,,,,,,4,batillón,,,,,576.5395,578.2704,1,0,1.1983,,0,2,2,3,1,REAL,FAKE,,,,,,,,,,,,,,,,,
,,,,,,,,,6756889918e4d36105a501ca,spanish,13 or older,"no, only English or Spanish",yes,2025-07-23_19h34.48.272,empathy_intonation_perc,2024.2.4,Win32,60.24096386,6756889918e4d36105a501ca,687ed1b7e638a4cbf2f02089,6881711ad2b8a867c97234bf,,,,,,,,,,,,,,0,,,,,,,,,,,,,,,,,,,,,,,,,,,,,,,,,,,,,,,,,,,,,,,,,,,,,,,,,79,tropaje,,,,,578.2713,580.0702,1,0,1.2653,,0,3,3,78,1,REAL,FAKE,,,,,,,,,,,,,,,,,
,,,,,,,,,6756889918e4d36105a501ca,spanish,13 or older,"no, only English or Spanish",yes,2025-07-23_19h34.48.272,empathy_intonation_perc,2024.2.4,Win32,60.24096386,6756889918e4d36105a501ca,687ed1b7e638a4cbf2f02089,6881711ad2b8a867c97234bf,,,,,,,,,,,,,,1,,,,,,,,,,,,,,,,,,,,,,,,,,,,,,,,,,,,,,,,,,,,,,,,,,,,,,,,,48,ladrón,,,,,580.0719,581.6531,1,1,1.0482,,0,4,4,47,1,REAL,FAKE,,,,,,,,,,,,,,,,,
,,,,,,,,,6756889918e4d36105a501ca,spanish,13 or older,"no, only English or Spanish",yes,2025-07-23_19h34.48.272,empathy_intonation_perc,2024.2.4,Win32,60.24096386,6756889918e4d36105a501ca,687ed1b7e638a4cbf2f02089,6881711ad2b8a867c97234bf,,,,,,,,,,,,,,0,,,,,,,,,,,,,,,,,,,,,,,,,,,,,,,,,,,,,,,,,,,,,,,,,,,,,,,,,47,cartinar,,,,,581.6546,583.232,0,1,1.0363,,0,5,5,46,1,REAL,FAKE,,,,,,,,,,,,,,,,,
,,,,,,,,,6756889918e4d36105a501ca,spanish,13 or older,"no, only English or Spanish",yes,2025-07-23_19h34.48.272,empathy_intonation_perc,2024.2.4,Win32,60.24096386,6756889918e4d36105a501ca,687ed1b7e638a4cbf2f02089,6881711ad2b8a867c97234bf,,,,,,,,,,,,,,0,,,,,,,,,,,,,,,,,,,,,,,,,,,,,,,,,,,,,,,,,,,,,,,,,,,,,,,,,66,hacido,,,,,583.2343,584.683,0,1,0.9289,,0,6,6,65,1,REAL,FAKE,,,,,,,,,,,,,,,,,
,,,,,,,,,6756889918e4d36105a501ca,spanish,13 or older,"no, only English or Spanish",yes,2025-07-23_19h34.48.272,empathy_intonation_perc,2024.2.4,Win32,60.24096386,6756889918e4d36105a501ca,687ed1b7e638a4cbf2f02089,6881711ad2b8a867c97234bf,,,,,,,,,,,,,,0,,,,,,,,,,,,,,,,,,,,,,,,,,,,,,,,,,,,,,,,,,,,,,,,,,,,,,,,,70,temblo,,,,,584.6848,586.0031,1,0,0.7983,,0,7,7,69,1,REAL,FAKE,,,,,,,,,,,,,,,,,
,,,,,,,,,6756889918e4d36105a501ca,spanish,13 or older,"no, only English or Spanish",yes,2025-07-23_19h34.48.272,empathy_intonation_perc,2024.2.4,Win32,60.24096386,6756889918e4d36105a501ca,687ed1b7e638a4cbf2f02089,6881711ad2b8a867c97234bf,,,,,,,,,,,,,,0,,,,,,,,,,,,,,,,,,,,,,,,,,,,,,,,,,,,,,,,,,,,,,,,,,,,,,,,,18,arsa,,,,,586.005,587.466,1,0,0.9281,,0,8,8,17,1,REAL,FAKE,,,,,,,,,,,,,,,,,
,,,,,,,,,6756889918e4d36105a501ca,spanish,13 or older,"no, only English or Spanish",yes,2025-07-23_19h34.48.272,empathy_intonation_perc,2024.2.4,Win32,60.24096386,6756889918e4d36105a501ca,687ed1b7e638a4cbf2f02089,6881711ad2b8a867c97234bf,,,,,,,,,,,,,,1,,,,,,,,,,,,,,,,,,,,,,,,,,,,,,,,,,,,,,,,,,,,,,,,,,,,,,,,,24,látigo,,,,,587.4682,588.7189,1,1,0.7314,,0,9,9,23,1,REAL,FAKE,,,,,,,,,,,,,,,,,
,,,,,,,,,6756889918e4d36105a501ca,spanish,13 or older,"no, only English or Spanish",yes,2025-07-23_19h34.48.272,empathy_intonation_perc,2024.2.4,Win32,60.24096386,6756889918e4d36105a501ca,687ed1b7e638a4cbf2f02089,6881711ad2b8a867c97234bf,,,,,,,,,,,,,,0,,,,,,,,,,,,,,,,,,,,,,,,,,,,,,,,,,,,,,,,,,,,,,,,,,,,,,,,,35,rompido,,,,,588.7203,590.0352,0,1,0.7813,,0,10,10,34,1,REAL,FAKE,,,,,,,,,,,,,,,,,
,,,,,,,,,6756889918e4d36105a501ca,spanish,13 or older,"no, only English or Spanish",yes,2025-07-23_19h34.48.272,empathy_intonation_perc,2024.2.4,Win32,60.24096386,6756889918e4d36105a501ca,687ed1b7e638a4cbf2f02089,6881711ad2b8a867c97234bf,,,,,,,,,,,,,,1,,,,,,,,,,,,,,,,,,,,,,,,,,,,,,,,,,,,,,,,,,,,,,,,,,,,,,,,,43,canela,,,,,590.0365,591.7351,0,0,1.1652,,0,11,11,42,1,REAL,FAKE,,,,,,,,,,,,,,,,,
,,,,,,,,,6756889918e4d36105a501ca,spanish,13 or older,"no, only English or Spanish",yes,2025-07-23_19h34.48.272,empathy_intonation_perc,2024.2.4,Win32,60.24096386,6756889918e4d36105a501ca,687ed1b7e638a4cbf2f02089,6881711ad2b8a867c97234bf,,,,,,,,,,,,,,1,,,,,,,,,,,,,,,,,,,,,,,,,,,,,,,,,,,,,,,,,,,,,,,,,,,,,,,,,44,cuchara,,,,,591.7368,593.1352,1,1,0.865,,0,12,12,43,1,REAL,FAKE,,,,,,,,,,,,,,,,,
,,,,,,,,,6756889918e4d36105a501ca,spanish,13 or older,"no, only English or Spanish",yes,2025-07-23_19h34.48.272,empathy_intonation_perc,2024.2.4,Win32,60.24096386,6756889918e4d36105a501ca,687ed1b7e638a4cbf2f02089,6881711ad2b8a867c97234bf,,,,,,,,,,,,,,1,,,,,,,,,,,,,,,,,,,,,,,,,,,,,,,,,,,,,,,,,,,,,,,,,,,,,,,,,38,estornudar,,,,,593.137,594.98,0,0,1.2982,,0,13,13,37,1,REAL,FAKE,,,,,,,,,,,,,,,,,
,,,,,,,,,6756889918e4d36105a501ca,spanish,13 or older,"no, only English or Spanish",yes,2025-07-23_19h34.48.272,empathy_intonation_perc,2024.2.4,Win32,60.24096386,6756889918e4d36105a501ca,687ed1b7e638a4cbf2f02089,6881711ad2b8a867c97234bf,,,,,,,,,,,,,,1,,,,,,,,,,,,,,,,,,,,,,,,,,,,,,,,,,,,,,,,,,,,,,,,,,,,,,,,,34,aviso,,,,,594.9817,596.4836,0,0,0.9804,,0,14,14,33,1,REAL,FAKE,,,,,,,,,,,,,,,,,
,,,,,,,,,6756889918e4d36105a501ca,spanish,13 or older,"no, only English or Spanish",yes,2025-07-23_19h34.48.272,empathy_intonation_perc,2024.2.4,Win32,60.24096386,6756889918e4d36105a501ca,687ed1b7e638a4cbf2f02089,6881711ad2b8a867c97234bf,,,,,,,,,,,,,,1,,,,,,,,,,,,,,,,,,,,,,,,,,,,,,,,,,,,,,,,,,,,,,,,,,,,,,,,,90,clavel,,,,,596.4851,597.6985,1,1,0.6802,,0,15,15,89,1,REAL,FAKE,,,,,,,,,,,,,,,,,
,,,,,,,,,6756889918e4d36105a501ca,spanish,13 or older,"no, only English or Spanish",yes,2025-07-23_19h34.48.272,empathy_intonation_perc,2024.2.4,Win32,60.24096386,6756889918e4d36105a501ca,687ed1b7e638a4cbf2f02089,6881711ad2b8a867c97234bf,,,,,,,,,,,,,,1,,,,,,,,,,,,,,,,,,,,,,,,,,,,,,,,,,,,,,,,,,,,,,,,,,,,,,,,,20,ávido,,,,,597.6997,598.8629,1,1,0.6169,,0,16,16,19,1,REAL,FAKE,,,,,,,,,,,,,,,,,
,,,,,,,,,6756889918e4d36105a501ca,spanish,13 or older,"no, only English or Spanish",yes,2025-07-23_19h34.48.272,empathy_intonation_perc,2024.2.4,Win32,60.24096386,6756889918e4d36105a501ca,687ed1b7e638a4cbf2f02089,6881711ad2b8a867c97234bf,,,,,,,,,,,,,,1,,,,,,,,,,,,,,,,,,,,,,,,,,,,,,,,,,,,,,,,,,,,,,,,,,,,,,,,,39,torpe,,,,,598.8649,600.1833,0,0,0.7984,,0,17,17,38,1,REAL,FAKE,,,,,,,,,,,,,,,,,
,,,,,,,,,6756889918e4d36105a501ca,spanish,13 or older,"no, only English or Spanish",yes,2025-07-23_19h34.48.272,empathy_intonation_perc,2024.2.4,Win32,60.24096386,6756889918e4d36105a501ca,687ed1b7e638a4cbf2f02089,6881711ad2b8a867c97234bf,,,,,,,,,,,,,,0,,,,,,,,,,,,,,,,,,,,,,,,,,,,,,,,,,,,,,,,,,,,,,,,,,,,,,,,,23,lampera,,,,,600.1851,601.7498,0,1,1.0324,,0,18,18,22,1,REAL,FAKE,,,,,,,,,,,,,,,,,
,,,,,,,,,6756889918e4d36105a501ca,spanish,13 or older,"no, only English or Spanish",yes,2025-07-23_19h34.48.272,empathy_intonation_perc,2024.2.4,Win32,60.24096386,6756889918e4d36105a501ca,687ed1b7e638a4cbf2f02089,6881711ad2b8a867c97234bf,,,,,,,,,,,,,,1,,,,,,,,,,,,,,,,,,,,,,,,,,,,,,,,,,,,,,,,,,,,,,,,,,,,,,,,,11,cenefa,,,,,601.7513,603.415,0,0,1.1304,,0,19,19,10,1,REAL,FAKE,,,,,,,,,,,,,,,,,
,,,,,,,,,6756889918e4d36105a501ca,spanish,13 or older,"no, only English or Spanish",yes,2025-07-23_19h34.48.272,empathy_intonation_perc,2024.2.4,Win32,60.24096386,6756889918e4d36105a501ca,687ed1b7e638a4cbf2f02089,6881711ad2b8a867c97234bf,,,,,,,,,,,,,,1,,,,,,,,,,,,,,,,,,,,,,,,,,,,,,,,,,,,,,,,,,,,,,,,,,,,,,,,,31,pandilla,,,,,603.4165,604.7471,1,1,0.7963,,0,20,20,30,1,REAL,FAKE,,,,,,,,,,,,,,,,,
,,,,,,,,,6756889918e4d36105a501ca,spanish,13 or older,"no, only English or Spanish",yes,2025-07-23_19h34.48.272,empathy_intonation_perc,2024.2.4,Win32,60.24096386,6756889918e4d36105a501ca,687ed1b7e638a4cbf2f02089,6881711ad2b8a867c97234bf,,,,,,,,,,,,,,0,,,,,,,,,,,,,,,,,,,,,,,,,,,,,,,,,,,,,,,,,,,,,,,,,,,,,,,,,30,alardio,,,,,604.7478,605.7823,1,0,0.4986,,0,21,21,29,1,REAL,FAKE,,,,,,,,,,,,,,,,,
,,,,,,,,,6756889918e4d36105a501ca,spanish,13 or older,"no, only English or Spanish",yes,2025-07-23_19h34.48.272,empathy_intonation_perc,2024.2.4,Win32,60.24096386,6756889918e4d36105a501ca,687ed1b7e638a4cbf2f02089,6881711ad2b8a867c97234bf,,,,,,,,,,,,,,1,,,,,,,,,,,,,,,,,,,,,,,,,,,,,,,,,,,,,,,,,,,,,,,,,,,,,,,,,89,prisa,,,,,605.7841,606.9113,0,0,0.5933,,0,22,22,88,1,REAL,FAKE,,,,,,,,,,,,,,,,,
,,,,,,,,,6756889918e4d36105a501ca,spanish,13 or older,"no, only English or Spanish",yes,2025-07-23_19h34.48.272,empathy_intonation_perc,2024.2.4,Win32,60.24096386,6756889918e4d36105a501ca,687ed1b7e638a4cbf2f02089,6881711ad2b8a867c97234bf,,,,,,,,,,,,,,0,,,,,,,,,,,,,,,,,,,,,,,,,,,,,,,,,,,,,,,,,,,,,,,,,,,,,,,,,16,abracer,,,,,606.9121,607.9488,0,1,0.5147,,0,23,23,15,1,REAL,FAKE,,,,,,,,,,,,,,,,,
,,,,,,,,,6756889918e4d36105a501ca,spanish,13 or older,"no, only English or Spanish",yes,2025-07-23_19h34.48.272,empathy_intonation_perc,2024.2.4,Win32,60.24096386,6756889918e4d36105a501ca,687ed1b7e638a4cbf2f02089,6881711ad2b8a867c97234bf,,,,,,,,,,,,,,0,,,,,,,,,,,,,,,,,,,,,,,,,,,,,,,,,,,,,,,,,,,,,,,,,,,,,,,,,92,click the 0 key.,,,,,607.9506,611.5437,0,1,3.0513,,0,24,24,91,1,REAL,FAKE,,,,,,,,,,,,,,,,,
,,,,,,,,,6756889918e4d36105a501ca,spanish,13 or older,"no, only English or Spanish",yes,2025-07-23_19h34.48.272,empathy_intonation_perc,2024.2.4,Win32,60.24096386,6756889918e4d36105a501ca,687ed1b7e638a4cbf2f02089,6881711ad2b8a867c97234bf,,,,,,,,,,,,,,1,,,,,,,,,,,,,,,,,,,,,,,,,,,,,,,,,,,,,,,,,,,,,,,,,,,,,,,,,81,pozo,,,,,611.5462,613.0975,0,0,1.0147,,0,25,25,80,1,REAL,FAKE,,,,,,,,,,,,,,,,,
,,,,,,,,,6756889918e4d36105a501ca,spanish,13 or older,"no, only English or Spanish",yes,2025-07-23_19h34.48.272,empathy_intonation_perc,2024.2.4,Win32,60.24096386,6756889918e4d36105a501ca,687ed1b7e638a4cbf2f02089,6881711ad2b8a867c97234bf,,,,,,,,,,,,,,1,,,,,,,,,,,,,,,,,,,,,,,,,,,,,,,,,,,,,,,,,,,,,,,,,,,,,,,,,55,nevar,,,,,613.0987,614.429,1,1,0.7971,,0,26,26,54,1,REAL,FAKE,,,,,,,,,,,,,,,,,
,,,,,,,,,6756889918e4d36105a501ca,spanish,13 or older,"no, only English or Spanish",yes,2025-07-23_19h34.48.272,empathy_intonation_perc,2024.2.4,Win32,60.24096386,6756889918e4d36105a501ca,687ed1b7e638a4cbf2f02089,6881711ad2b8a867c97234bf,,,,,,,,,,,,,,1,,,,,,,,,,,,,,,,,,,,,,,,,,,,,,,,,,,,,,,,,,,,,,,,,,,,,,,,,62,flaco,,,,,614.4302,615.8747,0,0,0.9051,,0,27,27,61,1,REAL,FAKE,,,,,,,,,,,,,,,,,
,,,,,,,,,6756889918e4d36105a501ca,spanish,13 or older,"no, only English or Spanish",yes,2025-07-23_19h34.48.272,empathy_intonation_perc,2024.2.4,Win32,60.24096386,6756889918e4d36105a501ca,687ed1b7e638a4cbf2f02089,6881711ad2b8a867c97234bf,,,,,,,,,,,,,,1,,,,,,,,,,,,,,,,,,,,,,,,,,,,,,,,,,,,,,,,,,,,,,,,,,,,,,,,,68,alegre,,,,,615.8767,617.4134,0,0,0.9991,,0,28,28,67,1,REAL,FAKE,,,,,,,,,,,,,,,,,
,,,,,,,,,6756889918e4d36105a501ca,spanish,13 or older,"no, only English or Spanish",yes,2025-07-23_19h34.48.272,empathy_intonation_perc,2024.2.4,Win32,60.24096386,6756889918e4d36105a501ca,687ed1b7e638a4cbf2f02089,6881711ad2b8a867c97234bf,,,,,,,,,,,,,,0,,,,,,,,,,,,,,,,,,,,,,,,,,,,,,,,,,,,,,,,,,,,,,,,,,,,,,,,,29,decar,,,,,617.4153,618.5464,0,1,0.5981,,0,29,29,28,1,REAL,FAKE,,,,,,,,,,,,,,,,,
,,,,,,,,,6756889918e4d36105a501ca,spanish,13 or older,"no, only English or Spanish",yes,2025-07-23_19h34.48.272,empathy_intonation_perc,2024.2.4,Win32,60.24096386,6756889918e4d36105a501ca,687ed1b7e638a4cbf2f02089,6881711ad2b8a867c97234bf,,,,,,,,,,,,,,0,,,,,,,,,,,,,,,,,,,,,,,,,,,,,,,,,,,,,,,,,,,,,,,,,,,,,,,,,82,empirador,,,,,618.5482,619.8786,0,1,0.7976,,0,30,30,81,1,REAL,FAKE,,,,,,,,,,,,,,,,,
,,,,,,,,,6756889918e4d36105a501ca,spanish,13 or older,"no, only English or Spanish",yes,2025-07-23_19h34.48.272,empathy_intonation_perc,2024.2.4,Win32,60.24096386,6756889918e4d36105a501ca,687ed1b7e638a4cbf2f02089,6881711ad2b8a867c97234bf,,,,,,,,,,,,,,0,,,,,,,,,,,,,,,,,,,,,,,,,,,,,,,,,,,,,,,,,,,,,,,,,,,,,,,,,33,pauca,,,,,619.8806,621.2286,1,0,0.8155,,0,31,31,32,1,REAL,FAKE,,,,,,,,,,,,,,,,,
,,,,,,,,,6756889918e4d36105a501ca,spanish,13 or older,"no, only English or Spanish",yes,2025-07-23_19h34.48.272,empathy_intonation_perc,2024.2.4,Win32,60.24096386,6756889918e4d36105a501ca,687ed1b7e638a4cbf2f02089,6881711ad2b8a867c97234bf,,,,,,,,,,,,,,1,,,,,,,,,,,,,,,,,,,,,,,,,,,,,,,,,,,,,,,,,,,,,,,,,,,,,,,,,67,cabello,,,,,621.2301,622.4072,1,1,0.6332,,0,32,32,66,1,REAL,FAKE,,,,,,,,,,,,,,,,,
,,,,,,,,,6756889918e4d36105a501ca,spanish,13 or older,"no, only English or Spanish",yes,2025-07-23_19h34.48.272,empathy_intonation_perc,2024.2.4,Win32,60.24096386,6756889918e4d36105a501ca,687ed1b7e638a4cbf2f02089,6881711ad2b8a867c97234bf,,,,,,,,,,,,,,1,,,,,,,,,,,,,,,,,,,,,,,,,,,,,,,,,,,,,,,,,,,,,,,,,,,,,,,,,85,laúd,,,,,622.4097,624.1121,1,1,1.1651,,0,33,33,84,1,REAL,FAKE,,,,,,,,,,,,,,,,,
,,,,,,,,,6756889918e4d36105a501ca,spanish,13 or older,"no, only English or Spanish",yes,2025-07-23_19h34.48.272,empathy_intonation_perc,2024.2.4,Win32,60.24096386,6756889918e4d36105a501ca,687ed1b7e638a4cbf2f02089,6881711ad2b8a867c97234bf,,,,,,,,,,,,,,1,,,,,,,,,,,,,,,,,,,,,,,,,,,,,,,,,,,,,,,,,,,,,,,,,,,,,,,,,75,yacer,,,,,624.1136,625.3958,0,0,0.7493,,0,34,34,74,1,REAL,FAKE,,,,,,,,,,,,,,,,,
,,,,,,,,,6756889918e4d36105a501ca,spanish,13 or older,"no, only English or Spanish",yes,2025-07-23_19h34.48.272,empathy_intonation_perc,2024.2.4,Win32,60.24096386,6756889918e4d36105a501ca,687ed1b7e638a4cbf2f02089,6881711ad2b8a867c97234bf,,,,,,,,,,,,,,0,,,,,,,,,,,,,,,,,,,,,,,,,,,,,,,,,,,,,,,,,,,,,,,,,,,,,,,,,84,escuto,,,,,625.3978,626.8947,1,0,0.9644,,0,35,35,83,1,REAL,FAKE,,,,,,,,,,,,,,,,,
,,,,,,,,,6756889918e4d36105a501ca,spanish,13 or older,"no, only English or Spanish",yes,2025-07-23_19h34.48.272,empathy_intonation_perc,2024.2.4,Win32,60.24096386,6756889918e4d36105a501ca,687ed1b7e638a4cbf2f02089,6881711ad2b8a867c97234bf,,,,,,,,,,,,,,0,,,,,,,,,,,,,,,,,,,,,,,,,,,,,,,,,,,,,,,,,,,,,,,,,,,,,,,,,27,acutación,,,,,626.8972,628.5944,0,1,1.1649,,0,36,36,26,1,REAL,FAKE,,,,,,,,,,,,,,,,,
,,,,,,,,,6756889918e4d36105a501ca,spanish,13 or older,"no, only English or Spanish",yes,2025-07-23_19h34.48.272,empathy_intonation_perc,2024.2.4,Win32,60.24096386,6756889918e4d36105a501ca,687ed1b7e638a4cbf2f02089,6881711ad2b8a867c97234bf,,,,,,,,,,,,,,1,,,,,,,,,,,,,,,,,,,,,,,,,,,,,,,,,,,,,,,,,,,,,,,,,,,,,,,,,12,asesinato,,,,,628.5964,630.4447,1,1,1.3155,,0,37,37,11,1,REAL,FAKE,,,,,,,,,,,,,,,,,
,,,,,,,,,6756889918e4d36105a501ca,spanish,13 or older,"no, only English or Spanish",yes,2025-07-23_19h34.48.272,empathy_intonation_perc,2024.2.4,Win32,60.24096386,6756889918e4d36105a501ca,687ed1b7e638a4cbf2f02089,6881711ad2b8a867c97234bf,,,,,,,,,,,,,,1,,,,,,,,,,,,,,,,,,,,,,,,,,,,,,,,,,,,,,,,,,,,,,,,,,,,,,,,,37,granuja,,,,,630.4464,632.4576,1,1,1.4795,,0,38,38,36,1,REAL,FAKE,,,,,,,,,,,,,,,,,
,,,,,,,,,6756889918e4d36105a501ca,spanish,13 or older,"no, only English or Spanish",yes,2025-07-23_19h34.48.272,empathy_intonation_perc,2024.2.4,Win32,60.24096386,6756889918e4d36105a501ca,687ed1b7e638a4cbf2f02089,6881711ad2b8a867c97234bf,,,,,,,,,,,,,,1,,,,,,,,,,,,,,,,,,,,,,,,,,,,,,,,,,,,,,,,,,,,,,,,,,,,,,,,,46,martillo,,,,,632.4593,633.5886,1,1,0.5877,,0,39,39,45,1,REAL,FAKE,,,,,,,,,,,,,,,,,
,,,,,,,,,6756889918e4d36105a501ca,spanish,13 or older,"no, only English or Spanish",yes,2025-07-23_19h34.48.272,empathy_intonation_perc,2024.2.4,Win32,60.24096386,6756889918e4d36105a501ca,687ed1b7e638a4cbf2f02089,6881711ad2b8a867c97234bf,,,,,,,,,,,,,,1,,,,,,,,,,,,,,,,,,,,,,,,,,,,,,,,,,,,,,,,,,,,,,,,,,,,,,,,,25,bisagra,,,,,633.5909,634.6404,1,1,0.5289,,0,40,40,24,1,REAL,FAKE,,,,,,,,,,,,,,,,,
,,,,,,,,,6756889918e4d36105a501ca,spanish,13 or older,"no, only English or Spanish",yes,2025-07-23_19h34.48.272,empathy_intonation_perc,2024.2.4,Win32,60.24096386,6756889918e4d36105a501ca,687ed1b7e638a4cbf2f02089,6881711ad2b8a867c97234bf,,,,,,,,,,,,,,1,,,,,,,,,,,,,,,,,,,,,,,,,,,,,,,,,,,,,,,,,,,,,,,,,,,,,,,,,13,helar,,,,,634.6423,636.1261,0,0,0.9482,,0,41,41,12,1,REAL,FAKE,,,,,,,,,,,,,,,,,
,,,,,,,,,6756889918e4d36105a501ca,spanish,13 or older,"no, only English or Spanish",yes,2025-07-23_19h34.48.272,empathy_intonation_perc,2024.2.4,Win32,60.24096386,6756889918e4d36105a501ca,687ed1b7e638a4cbf2f02089,6881711ad2b8a867c97234bf,,,,,,,,,,,,,,1,,,,,,,,,,,,,,,,,,,,,,,,,,,,,,,,,,,,,,,,,,,,,,,,,,,,,,,,,91,click the 1 key.,,,,,636.1282,638.0713,1,1,1.4023,,0,42,42,90,1,REAL,FAKE,,,,,,,,,,,,,,,,,
,,,,,,,,,6756889918e4d36105a501ca,spanish,13 or older,"no, only English or Spanish",yes,2025-07-23_19h34.48.272,empathy_intonation_perc,2024.2.4,Win32,60.24096386,6756889918e4d36105a501ca,687ed1b7e638a4cbf2f02089,6881711ad2b8a867c97234bf,,,,,,,,,,,,,,1,,,,,,,,,,,,,,,,,,,,,,,,,,,,,,,,,,,,,,,,,,,,,,,,,,,,,,,,,22,lacayo,,,,,638.0727,639.3091,1,1,0.7154,,0,43,43,21,1,REAL,FAKE,,,,,,,,,,,,,,,,,
,,,,,,,,,6756889918e4d36105a501ca,spanish,13 or older,"no, only English or Spanish",yes,2025-07-23_19h34.48.272,empathy_intonation_perc,2024.2.4,Win32,60.24096386,6756889918e4d36105a501ca,687ed1b7e638a4cbf2f02089,6881711ad2b8a867c97234bf,,,,,,,,,,,,,,1,,,,,,,,,,,,,,,,,,,,,,,,,,,,,,,,,,,,,,,,,,,,,,,,,,,,,,,,,73,hervidor,,,,,639.3108,640.4061,1,1,0.5628,,0,44,44,72,1,REAL,FAKE,,,,,,,,,,,,,,,,,
,,,,,,,,,6756889918e4d36105a501ca,spanish,13 or older,"no, only English or Spanish",yes,2025-07-23_19h34.48.272,empathy_intonation_perc,2024.2.4,Win32,60.24096386,6756889918e4d36105a501ca,687ed1b7e638a4cbf2f02089,6881711ad2b8a867c97234bf,,,,,,,,,,,,,,0,,,,,,,,,,,,,,,,,,,,,,,,,,,,,,,,,,,,,,,,,,,,,,,,,,,,,,,,,32,fatacidad,,,,,640.407,641.6707,1,0,0.7389,,0,45,45,31,1,REAL,FAKE,,,,,,,,,,,,,,,,,
,,,,,,,,,6756889918e4d36105a501ca,spanish,13 or older,"no, only English or Spanish",yes,2025-07-23_19h34.48.272,empathy_intonation_perc,2024.2.4,Win32,60.24096386,6756889918e4d36105a501ca,687ed1b7e638a4cbf2f02089,6881711ad2b8a867c97234bf,,,,,,,,,,,,,,0,,,,,,,,,,,,,,,,,,,,,,,,,,,,,,,,,,,,,,,,,,,,,,,,,,,,,,,,,58,plaudir,,,,,641.6723,642.8725,0,1,0.6629,,0,46,46,57,1,REAL,FAKE,,,,,,,,,,,,,,,,,
,,,,,,,,,6756889918e4d36105a501ca,spanish,13 or older,"no, only English or Spanish",yes,2025-07-23_19h34.48.272,empathy_intonation_perc,2024.2.4,Win32,60.24096386,6756889918e4d36105a501ca,687ed1b7e638a4cbf2f02089,6881711ad2b8a867c97234bf,,,,,,,,,,,,,,1,,,,,,,,,,,,,,,,,,,,,,,,,,,,,,,,,,,,,,,,,,,,,,,,,,,,,,,,,52,camisa,,,,,642.8743,644.0038,0,0,0.5907,,0,47,47,51,1,REAL,FAKE,,,,,,,,,,,,,,,,,
,,,,,,,,,6756889918e4d36105a501ca,spanish,13 or older,"no, only English or Spanish",yes,2025-07-23_19h34.48.272,empathy_intonation_perc,2024.2.4,Win32,60.24096386,6756889918e4d36105a501ca,687ed1b7e638a4cbf2f02089,6881711ad2b8a867c97234bf,,,,,,,,,,,,,,1,,,,,,,,,,,,,,,,,,,,,,,,,,,,,,,,,,,,,,,,,,,,,,,,,,,,,,,,,15,regar,,,,,644.0055,645.2364,1,1,0.6845,,0,48,48,14,1,REAL,FAKE,,,,,,,,,,,,,,,,,
,,,,,,,,,6756889918e4d36105a501ca,spanish,13 or older,"no, only English or Spanish",yes,2025-07-23_19h34.48.272,empathy_intonation_perc,2024.2.4,Win32,60.24096386,6756889918e4d36105a501ca,687ed1b7e638a4cbf2f02089,6881711ad2b8a867c97234bf,,,,,,,,,,,,,,0,,,,,,,,,,,,,,,,,,,,,,,,,,,,,,,,,,,,,,,,,,,,,,,,,,,,,,,,,10,antar,,,,,645.239,646.2857,1,0,0.5208,,0,49,49,9,1,REAL,FAKE,,,,,,,,,,,,,,,,,
,,,,,,,,,6756889918e4d36105a501ca,spanish,13 or older,"no, only English or Spanish",yes,2025-07-23_19h34.48.272,empathy_intonation_perc,2024.2.4,Win32,60.24096386,6756889918e4d36105a501ca,687ed1b7e638a4cbf2f02089,6881711ad2b8a867c97234bf,,,,,,,,,,,,,,1,,,,,,,,,,,,,,,,,,,,,,,,,,,,,,,,,,,,,,,,,,,,,,,,,,,,,,,,,86,barato,,,,,646.2884,647.4415,1,1,0.6326,,0,50,50,85,1,REAL,FAKE,,,,,,,,,,,,,,,,,
,,,,,,,,,6756889918e4d36105a501ca,spanish,13 or older,"no, only English or Spanish",yes,2025-07-23_19h34.48.272,empathy_intonation_perc,2024.2.4,Win32,60.24096386,6756889918e4d36105a501ca,687ed1b7e638a4cbf2f02089,6881711ad2b8a867c97234bf,,,,,,,,,,,,,,0,,,,,,,,,,,,,,,,,,,,,,,,,,,,,,,,,,,,,,,,,,,,,,,,,,,,,,,,,17,floroso,,,,,647.4433,648.3353,0,1,0.3501,,0,51,51,16,1,REAL,FAKE,,,,,,,,,,,,,,,,,
,,,,,,,,,6756889918e4d36105a501ca,spanish,13 or older,"no, only English or Spanish",yes,2025-07-23_19h34.48.272,empathy_intonation_perc,2024.2.4,Win32,60.24096386,6756889918e4d36105a501ca,687ed1b7e638a4cbf2f02089,6881711ad2b8a867c97234bf,,,,,,,,,,,,,,1,,,,,,,,,,,,,,,,,,,,,,,,,,,,,,,,,,,,,,,,,,,,,,,,,,,,,,,,,2,pellizcar,,,,,648.3379,649.3848,0,0,0.5085,,0,52,52,1,1,REAL,FAKE,,,,,,,,,,,,,,,,,
,,,,,,,,,6756889918e4d36105a501ca,spanish,13 or older,"no, only English or Spanish",yes,2025-07-23_19h34.48.272,empathy_intonation_perc,2024.2.4,Win32,60.24096386,6756889918e4d36105a501ca,687ed1b7e638a4cbf2f02089,6881711ad2b8a867c97234bf,,,,,,,,,,,,,,0,,,,,,,,,,,,,,,,,,,,,,,,,,,,,,,,,,,,,,,,,,,,,,,,,,,,,,,,,42,cadallo,,,,,649.3871,650.4402,1,0,0.5318,,0,53,53,41,1,REAL,FAKE,,,,,,,,,,,,,,,,,
,,,,,,,,,6756889918e4d36105a501ca,spanish,13 or older,"no, only English or Spanish",yes,2025-07-23_19h34.48.272,empathy_intonation_perc,2024.2.4,Win32,60.24096386,6756889918e4d36105a501ca,687ed1b7e638a4cbf2f02089,6881711ad2b8a867c97234bf,,,,,,,,,,,,,,1,,,,,,,,,,,,,,,,,,,,,,,,,,,,,,,,,,,,,,,,,,,,,,,,,,,,,,,,,54,fomentar,,,,,650.4419,651.3687,0,0,0.3836,,0,54,54,53,1,REAL,FAKE,,,,,,,,,,,,,,,,,
,,,,,,,,,6756889918e4d36105a501ca,spanish,13 or older,"no, only English or Spanish",yes,2025-07-23_19h34.48.272,empathy_intonation_perc,2024.2.4,Win32,60.24096386,6756889918e4d36105a501ca,687ed1b7e638a4cbf2f02089,6881711ad2b8a867c97234bf,,,,,,,,,,,,,,1,,,,,,,,,,,,,,,,,,,,,,,,,,,,,,,,,,,,,,,,,,,,,,,,,,,,,,,,,78,frondoso,,,,,651.3707,652.3898,0,0,0.4816,,0,55,55,77,1,REAL,FAKE,,,,,,,,,,,,,,,,,
,,,,,,,,,6756889918e4d36105a501ca,spanish,13 or older,"no, only English or Spanish",yes,2025-07-23_19h34.48.272,empathy_intonation_perc,2024.2.4,Win32,60.24096386,6756889918e4d36105a501ca,687ed1b7e638a4cbf2f02089,6881711ad2b8a867c97234bf,,,,,,,,,,,,,,1,,,,,,,,,,,,,,,,,,,,,,,,,,,,,,,,,,,,,,,,,,,,,,,,,,,,,,,,,57,tacaño,,,,,652.3914,653.3727,1,1,0.4489,,0,56,56,56,1,REAL,FAKE,,,,,,,,,,,,,,,,,
,,,,,,,,,6756889918e4d36105a501ca,spanish,13 or older,"no, only English or Spanish",yes,2025-07-23_19h34.48.272,empathy_intonation_perc,2024.2.4,Win32,60.24096386,6756889918e4d36105a501ca,687ed1b7e638a4cbf2f02089,6881711ad2b8a867c97234bf,,,,,,,,,,,,,,0,,,,,,,,,,,,,,,,,,,,,,,,,,,,,,,,,,,,,,,,,,,,,,,,,,,,,,,,,8,cadeña,,,,,653.3742,654.5061,1,0,0.599,,0,57,57,7,1,REAL,FAKE,,,,,,,,,,,,,,,,,
,,,,,,,,,6756889918e4d36105a501ca,spanish,13 or older,"no, only English or Spanish",yes,2025-07-23_19h34.48.272,empathy_intonation_perc,2024.2.4,Win32,60.24096386,6756889918e4d36105a501ca,687ed1b7e638a4cbf2f02089,6881711ad2b8a867c97234bf,,,,,,,,,,,,,,1,,,,,,,,,,,,,,,,,,,,,,,,,,,,,,,,,,,,,,,,,,,,,,,,,,,,,,,,,45,jilguero,,,,,654.5078,655.7682,0,0,0.716,,0,58,58,44,1,REAL,FAKE,,,,,,,,,,,,,,,,,
,,,,,,,,,6756889918e4d36105a501ca,spanish,13 or older,"no, only English or Spanish",yes,2025-07-23_19h34.48.272,empathy_intonation_perc,2024.2.4,Win32,60.24096386,6756889918e4d36105a501ca,687ed1b7e638a4cbf2f02089,6881711ad2b8a867c97234bf,,,,,,,,,,,,,,1,,,,,,,,,,,,,,,,,,,,,,,,,,,,,,,,,,,,,,,,,,,,,,,,,,,,,,,,,36,loro,,,,,655.7699,657.5553,0,0,1.2649,,0,59,59,35,1,REAL,FAKE,,,,,,,,,,,,,,,,,
,,,,,,,,,6756889918e4d36105a501ca,spanish,13 or older,"no, only English or Spanish",yes,2025-07-23_19h34.48.272,empathy_intonation_perc,2024.2.4,Win32,60.24096386,6756889918e4d36105a501ca,687ed1b7e638a4cbf2f02089,6881711ad2b8a867c97234bf,,,,,,,,,,,,,,1,,,,,,,,,,,,,,,,,,,,,,,,,,,,,,,,,,,,,,,,,,,,,,,,,,,,,,,,,6,tergiversar,,,,,657.5572,658.8515,0,0,0.7529,,0,60,60,5,1,REAL,FAKE,,,,,,,,,,,,,,,,,
,,,,,,,,,6756889918e4d36105a501ca,spanish,13 or older,"no, only English or Spanish",yes,2025-07-23_19h34.48.272,empathy_intonation_perc,2024.2.4,Win32,60.24096386,6756889918e4d36105a501ca,687ed1b7e638a4cbf2f02089,6881711ad2b8a867c97234bf,,,,,,,,,,,,,,1,,,,,,,,,,,,,,,,,,,,,,,,,,,,,,,,,,,,,,,,,,,,,,,,,,,,,,,,,3,pulmones,,,,,658.8532,660.4216,0,0,1.0316,,0,61,61,2,1,REAL,FAKE,,,,,,,,,,,,,,,,,
,,,,,,,,,6756889918e4d36105a501ca,spanish,13 or older,"no, only English or Spanish",yes,2025-07-23_19h34.48.272,empathy_intonation_perc,2024.2.4,Win32,60.24096386,6756889918e4d36105a501ca,687ed1b7e638a4cbf2f02089,6881711ad2b8a867c97234bf,,,,,,,,,,,,,,1,,,,,,,,,,,,,,,,,,,,,,,,,,,,,,,,,,,,,,,,,,,,,,,,,,,,,,,,,26,secuestro,,,,,660.4234,661.9709,1,1,1.0152,,0,62,62,25,1,REAL,FAKE,,,,,,,,,,,,,,,,,
,,,,,,,,,6756889918e4d36105a501ca,spanish,13 or older,"no, only English or Spanish",yes,2025-07-23_19h34.48.272,empathy_intonation_perc,2024.2.4,Win32,60.24096386,6756889918e4d36105a501ca,687ed1b7e638a4cbf2f02089,6881711ad2b8a867c97234bf,,,,,,,,,,,,,,0,,,,,,,,,,,,,,,,,,,,,,,,,,,,,,,,,,,,,,,,,,,,,,,,,,,,,,,,,19,brecedad,,,,,661.9721,663.5031,1,0,0.9971,,0,63,63,18,1,REAL,FAKE,,,,,,,,,,,,,,,,,
,,,,,,,,,6756889918e4d36105a501ca,spanish,13 or older,"no, only English or Spanish",yes,2025-07-23_19h34.48.272,empathy_intonation_perc,2024.2.4,Win32,60.24096386,6756889918e4d36105a501ca,687ed1b7e638a4cbf2f02089,6881711ad2b8a867c97234bf,,,,,,,,,,,,,,0,,,,,,,,,,,,,,,,,,,,,,,,,,,,,,,,,,,,,,,,,,,,,,,,,,,,,,,,,21,capillo,,,,,663.5046,664.9154,1,0,0.8677,,0,64,64,20,1,REAL,FAKE,,,,,,,,,,,,,,,,,
,,,,,,,,,6756889918e4d36105a501ca,spanish,13 or older,"no, only English or Spanish",yes,2025-07-23_19h34.48.272,empathy_intonation_perc,2024.2.4,Win32,60.24096386,6756889918e4d36105a501ca,687ed1b7e638a4cbf2f02089,6881711ad2b8a867c97234bf,,,,,,,,,,,,,,1,,,,,,,,,,,,,,,,,,,,,,,,,,,,,,,,,,,,,,,,,,,,,,,,,,,,,,,,,59,besar,,,,,664.9179,666.418,0,0,0.9631,,0,65,65,58,1,REAL,FAKE,,,,,,,,,,,,,,,,,
,,,,,,,,,6756889918e4d36105a501ca,spanish,13 or older,"no, only English or Spanish",yes,2025-07-23_19h34.48.272,empathy_intonation_perc,2024.2.4,Win32,60.24096386,6756889918e4d36105a501ca,687ed1b7e638a4cbf2f02089,6881711ad2b8a867c97234bf,,,,,,,,,,,,,,1,,,,,,,,,,,,,,,,,,,,,,,,,,,,,,,,,,,,,,,,,,,,,,,,,,,,,,,,,5,zapato,,,,,666.4187,667.9482,1,1,0.9871,,0,66,66,4,1,REAL,FAKE,,,,,,,,,,,,,,,,,
,,,,,,,,,6756889918e4d36105a501ca,spanish,13 or older,"no, only English or Spanish",yes,2025-07-23_19h34.48.272,empathy_intonation_perc,2024.2.4,Win32,60.24096386,6756889918e4d36105a501ca,687ed1b7e638a4cbf2f02089,6881711ad2b8a867c97234bf,,,,,,,,,,,,,,1,,,,,,,,,,,,,,,,,,,,,,,,,,,,,,,,,,,,,,,,,,,,,,,,,,,,,,,,,80,hormiga,,,,,667.9507,669.401,0,0,0.9137,,0,67,67,79,1,REAL,FAKE,,,,,,,,,,,,,,,,,
,,,,,,,,,6756889918e4d36105a501ca,spanish,13 or older,"no, only English or Spanish",yes,2025-07-23_19h34.48.272,empathy_intonation_perc,2024.2.4,Win32,60.24096386,6756889918e4d36105a501ca,687ed1b7e638a4cbf2f02089,6881711ad2b8a867c97234bf,,,,,,,,,,,,,,1,,,,,,,,,,,,,,,,,,,,,,,,,,,,,,,,,,,,,,,,,,,,,,,,,,,,,,,,,77,tiburón,,,,,669.402,670.7194,1,1,0.7985,,0,68,68,76,1,REAL,FAKE,,,,,,,,,,,,,,,,,
,,,,,,,,,6756889918e4d36105a501ca,spanish,13 or older,"no, only English or Spanish",yes,2025-07-23_19h34.48.272,empathy_intonation_perc,2024.2.4,Win32,60.24096386,6756889918e4d36105a501ca,687ed1b7e638a4cbf2f02089,6881711ad2b8a867c97234bf,,,,,,,,,,,,,,0,,,,,,,,,,,,,,,,,,,,,,,,,,,,,,,,,,,,,,,,,,,,,,,,,,,,,,,,,63,esposante,,,,,670.7207,672.4489,1,0,1.1873,,0,69,69,62,1,REAL,FAKE,,,,,,,,,,,,,,,,,
,,,,,,,,,6756889918e4d36105a501ca,spanish,13 or older,"no, only English or Spanish",yes,2025-07-23_19h34.48.272,empathy_intonation_perc,2024.2.4,Win32,60.24096386,6756889918e4d36105a501ca,687ed1b7e638a4cbf2f02089,6881711ad2b8a867c97234bf,,,,,,,,,,,,,,1,,,,,,,,,,,,,,,,,,,,,,,,,,,,,,,,,,,,,,,,,,,,,,,,,,,,,,,,,49,ganar,,,,,672.4504,673.7672,0,0,0.7972,,0,70,70,48,1,REAL,FAKE,,,,,,,,,,,,,,,,,
,,,,,,,,,6756889918e4d36105a501ca,spanish,13 or older,"no, only English or Spanish",yes,2025-07-23_19h34.48.272,empathy_intonation_perc,2024.2.4,Win32,60.24096386,6756889918e4d36105a501ca,687ed1b7e638a4cbf2f02089,6881711ad2b8a867c97234bf,,,,,,,,,,,,,,0,,,,,,,,,,,,,,,,,,,,,,,,,,,,,,,,,,,,,,,,,,,,,,,,,,,,,,,,,72,pemición,,,,,673.7684,675.9993,1,0,1.7132,,0,71,71,71,1,REAL,FAKE,,,,,,,,,,,,,,,,,
,,,,,,,,,6756889918e4d36105a501ca,spanish,13 or older,"no, only English or Spanish",yes,2025-07-23_19h34.48.272,empathy_intonation_perc,2024.2.4,Win32,60.24096386,6756889918e4d36105a501ca,687ed1b7e638a4cbf2f02089,6881711ad2b8a867c97234bf,,,,,,,,,,,,,,1,,,,,,,,,,,,,,,,,,,,,,,,,,,,,,,,,,,,,,,,,,,,,,,,,,,,,,,,,7,pésimo,,,,,676.0012,677.3313,1,1,0.7869,,0,72,72,6,1,REAL,FAKE,,,,,,,,,,,,,,,,,
,,,,,,,,,6756889918e4d36105a501ca,spanish,13 or older,"no, only English or Spanish",yes,2025-07-23_19h34.48.272,empathy_intonation_perc,2024.2.4,Win32,60.24096386,6756889918e4d36105a501ca,687ed1b7e638a4cbf2f02089,6881711ad2b8a867c97234bf,,,,,,,,,,,,,,1,,,,,,,,,,,,,,,,,,,,,,,,,,,,,,,,,,,,,,,,,,,,,,,,,,,,,,,,,41,rebuscar,,,,,677.3328,678.7178,0,0,0.8654,,0,73,73,40,1,REAL,FAKE,,,,,,,,,,,,,,,,,
,,,,,,,,,6756889918e4d36105a501ca,spanish,13 or older,"no, only English or Spanish",yes,2025-07-23_19h34.48.272,empathy_intonation_perc,2024.2.4,Win32,60.24096386,6756889918e4d36105a501ca,687ed1b7e638a4cbf2f02089,6881711ad2b8a867c97234bf,,,,,,,,,,,,,,0,,,,,,,,,,,,,,,,,,,,,,,,,,,,,,,,,,,,,,,,,,,,,,,,,,,,,,,,,87,grodo,,,,,678.7195,679.7843,0,1,0.5318,,0,74,74,86,1,REAL,FAKE,,,,,,,,,,,,,,,,,
,,,,,,,,,6756889918e4d36105a501ca,spanish,13 or older,"no, only English or Spanish",yes,2025-07-23_19h34.48.272,empathy_intonation_perc,2024.2.4,Win32,60.24096386,6756889918e4d36105a501ca,687ed1b7e638a4cbf2f02089,6881711ad2b8a867c97234bf,,,,,,,,,,,,,,1,,,,,,,,,,,,,,,,,,,,,,,,,,,,,,,,,,,,,,,,,,,,,,,,,,,,,,,,,83,guante,,,,,679.7858,680.8135,0,0,0.4868,,0,75,75,82,1,REAL,FAKE,,,,,,,,,,,,,,,,,
,,,,,,,,,6756889918e4d36105a501ca,spanish,13 or older,"no, only English or Spanish",yes,2025-07-23_19h34.48.272,empathy_intonation_perc,2024.2.4,Win32,60.24096386,6756889918e4d36105a501ca,687ed1b7e638a4cbf2f02089,6881711ad2b8a867c97234bf,,,,,,,,,,,,,,1,,,,,,,,,,,,,,,,,,,,,,,,,,,,,,,,,,,,,,,,,,,,,,,,,,,,,,,,,40,alfombra,,,,,680.8155,682.1504,0,0,0.7985,,0,76,76,39,1,REAL,FAKE,,,,,,,,,,,,,,,,,
,,,,,,,,,6756889918e4d36105a501ca,spanish,13 or older,"no, only English or Spanish",yes,2025-07-23_19h34.48.272,empathy_intonation_perc,2024.2.4,Win32,60.24096386,6756889918e4d36105a501ca,687ed1b7e638a4cbf2f02089,6881711ad2b8a867c97234bf,,,,,,,,,,,,,,1,,,,,,,,,,,,,,,,,,,,,,,,,,,,,,,,,,,,,,,,,,,,,,,,,,,,,,,,,61,seda,,,,,682.1521,683.5165,0,0,0.8316,,0,77,77,60,1,REAL,FAKE,,,,,,,,,,,,,,,,,
,,,,,,,,,6756889918e4d36105a501ca,spanish,13 or older,"no, only English or Spanish",yes,2025-07-23_19h34.48.272,empathy_intonation_perc,2024.2.4,Win32,60.24096386,6756889918e4d36105a501ca,687ed1b7e638a4cbf2f02089,6881711ad2b8a867c97234bf,,,,,,,,,,,,,,0,,,,,,,,,,,,,,,,,,,,,,,,,,,,,,,,,,,,,,,,,,,,,,,,,,,,,,,,,50,flamida,,,,,683.5173,684.9663,1,0,0.9147,,0,78,78,49,1,REAL,FAKE,,,,,,,,,,,,,,,,,
,,,,,,,,,6756889918e4d36105a501ca,spanish,13 or older,"no, only English or Spanish",yes,2025-07-23_19h34.48.272,empathy_intonation_perc,2024.2.4,Win32,60.24096386,6756889918e4d36105a501ca,687ed1b7e638a4cbf2f02089,6881711ad2b8a867c97234bf,,,,,,,,,,,,,,1,,,,,,,,,,,,,,,,,,,,,,,,,,,,,,,,,,,,,,,,,,,,,,,,,,,,,,,,,71,polvoriento,,,,,684.9681,686.1832,0,0,0.6817,,0,79,79,70,1,REAL,FAKE,,,,,,,,,,,,,,,,,
,,,,,,,,,6756889918e4d36105a501ca,spanish,13 or older,"no, only English or Spanish",yes,2025-07-23_19h34.48.272,empathy_intonation_perc,2024.2.4,Win32,60.24096386,6756889918e4d36105a501ca,687ed1b7e638a4cbf2f02089,6881711ad2b8a867c97234bf,,,,,,,,,,,,,,1,,,,,,,,,,,,,,,,,,,,,,,,,,,,,,,,,,,,,,,,,,,,,,,,,,,,,,,,,65,bizcocho,,,,,686.185,688.412,0,0,1.6903,,0,80,80,64,1,REAL,FAKE,,,,,,,,,,,,,,,,,
,,,,,,,,,6756889918e4d36105a501ca,spanish,13 or older,"no, only English or Spanish",yes,2025-07-23_19h34.48.272,empathy_intonation_perc,2024.2.4,Win32,60.24096386,6756889918e4d36105a501ca,687ed1b7e638a4cbf2f02089,6881711ad2b8a867c97234bf,,,,,,,,,,,,,,1,,,,,,,,,,,,,,,,,,,,,,,,,,,,,,,,,,,,,,,,,,,,,,,,,,,,,,,,,56,musgo,,,,,688.4134,689.6118,0,0,0.6706,,0,81,81,55,1,REAL,FAKE,,,,,,,,,,,,,,,,,
,,,,,,,,,6756889918e4d36105a501ca,spanish,13 or older,"no, only English or Spanish",yes,2025-07-23_19h34.48.272,empathy_intonation_perc,2024.2.4,Win32,60.24096386,6756889918e4d36105a501ca,687ed1b7e638a4cbf2f02089,6881711ad2b8a867c97234bf,,,,,,,,,,,,,,1,,,,,,,,,,,,,,,,,,,,,,,,,,,,,,,,,,,,,,,,,,,,,,,,,,,,,,,,,64,orgulloso,,,,,689.6138,690.7763,1,1,0.6174,,0,82,82,63,1,REAL,FAKE,,,,,,,,,,,,,,,,,
,,,,,,,,,6756889918e4d36105a501ca,spanish,13 or older,"no, only English or Spanish",yes,2025-07-23_19h34.48.272,empathy_intonation_perc,2024.2.4,Win32,60.24096386,6756889918e4d36105a501ca,687ed1b7e638a4cbf2f02089,6881711ad2b8a867c97234bf,,,,,,,,,,,,,,0,,,,,,,,,,,,,,,,,,,,,,,,,,,,,,,,,,,,,,,,,,,,,,,,,,,,,,,,,53,vegada,,,,,690.7788,691.8791,1,0,0.5634,,0,83,83,52,1,REAL,FAKE,,,,,,,,,,,,,,,,,
,,,,,,,,,6756889918e4d36105a501ca,spanish,13 or older,"no, only English or Spanish",yes,2025-07-23_19h34.48.272,empathy_intonation_perc,2024.2.4,Win32,60.24096386,6756889918e4d36105a501ca,687ed1b7e638a4cbf2f02089,6881711ad2b8a867c97234bf,,,,,,,,,,,,,,1,,,,,,,,,,,,,,,,,,,,,,,,,,,,,,,,,,,,,,,,,,,,,,,,,,,,,,,,,14,yunque,,,,,691.88,693.1114,0,0,0.6859,,0,84,84,13,1,REAL,FAKE,,,,,,,,,,,,,,,,,
,,,,,,,,,6756889918e4d36105a501ca,spanish,13 or older,"no, only English or Spanish",yes,2025-07-23_19h34.48.272,empathy_intonation_perc,2024.2.4,Win32,60.24096386,6756889918e4d36105a501ca,687ed1b7e638a4cbf2f02089,6881711ad2b8a867c97234bf,,,,,,,,,,,,,,1,,,,,,,,,,,,,,,,,,,,,,,,,,,,,,,,,,,,,,,,,,,,,,,,,,,,,,,,,69,engatusar,,,,,693.1132,694.4481,1,1,0.8157,,0,85,85,68,1,REAL,FAKE,,,,,,,,,,,,,,,,,
,,,,,,,,,6756889918e4d36105a501ca,spanish,13 or older,"no, only English or Spanish",yes,2025-07-23_19h34.48.272,empathy_intonation_perc,2024.2.4,Win32,60.24096386,6756889918e4d36105a501ca,687ed1b7e638a4cbf2f02089,6881711ad2b8a867c97234bf,,,,,,,,,,,,,,1,,,,,,,,,,,,,,,,,,,,,,,,,,,,,,,,,,,,,,,,,,,,,,,,,,,,,,,,,88,acantilado,,,,,694.4498,695.713,1,1,0.7304,,0,86,86,87,1,REAL,FAKE,,,,,,,,,,,,,,,,,
,,,,,,,,,6756889918e4d36105a501ca,spanish,13 or older,"no, only English or Spanish",yes,2025-07-23_19h34.48.272,empathy_intonation_perc,2024.2.4,Win32,60.24096386,6756889918e4d36105a501ca,687ed1b7e638a4cbf2f02089,6881711ad2b8a867c97234bf,,,,,,,,,,,,,,0,,,,,,,,,,,,,,,,,,,,,,,,,,,,,,,,,,,,,,,,,,,,,,,,,,,,,,,,,74,cintro,,,,,695.7147,697.0458,0,1,0.7968,,0,87,87,73,1,REAL,FAKE,,,,,,,,,,,,,,,,,
,,,,,,,,,6756889918e4d36105a501ca,spanish,13 or older,"no, only English or Spanish",yes,2025-07-23_19h34.48.272,empathy_intonation_perc,2024.2.4,Win32,60.24096386,6756889918e4d36105a501ca,687ed1b7e638a4cbf2f02089,6881711ad2b8a867c97234bf,,,,,,,,,,,,,,1,,,,,,,,,,,,,,,,,,,,,,,,,,,,,,,,,,,,,,,,,,,,,,,,,,,,,,,,,51,candado,,,,,697.0481,698.3424,0,0,0.7528,,0,88,88,50,1,REAL,FAKE,,,,,,,,,,,,,,,,,
,,,,,,,,,6756889918e4d36105a501ca,spanish,13 or older,"no, only English or Spanish",yes,2025-07-23_19h34.48.272,empathy_intonation_perc,2024.2.4,Win32,60.24096386,6756889918e4d36105a501ca,687ed1b7e638a4cbf2f02089,6881711ad2b8a867c97234bf,,,,,,,,,,,,,,1,,,,,,,,,,,,,,,,,,,,,,,,,,,,,,,,,,,,,,,,,,,,,,,,,,,,,,,,,76,atar,,,,,698.3446,699.2937,0,0,0.4123,,0,89,89,75,1,REAL,FAKE,,,,,,,,,,,,,,,,,
,,,,,,,,,6756889918e4d36105a501ca,spanish,13 or older,"no, only English or Spanish",yes,2025-07-23_19h34.48.272,empathy_intonation_perc,2024.2.4,Win32,60.24096386,6756889918e4d36105a501ca,687ed1b7e638a4cbf2f02089,6881711ad2b8a867c97234bf,,,,,,,,,,,,,,1,,,,,,,,,,,,,,,,,,,,,,,,,,,,,,,,,,,,,,,,,,,,,,,,,,,,,,,,,60,matar,,,,,699.2954,700.1748,0,0,0.3588,,0,90,90,59,1,REAL,FAKE,,,,,,,,,,,,,,,,,
,,,,,,,,,6756889918e4d36105a501ca,spanish,13 or older,"no, only English or Spanish",yes,2025-07-23_19h34.48.272,empathy_intonation_perc,2024.2.4,Win32,60.24096386,6756889918e4d36105a501ca,687ed1b7e638a4cbf2f02089,6881711ad2b8a867c97234bf,,,,,,,,,,,,,,0,,,,,,,,,,,,,,,,,,,,,,,,,,,,,,,,,,,,,,,,,,,,,,,,,,,,,,,,,1,terzo,,,,,700.1776,701.21,1,0,0.4856,,0,91,91,0,1,REAL,FAKE,,,,,,,,,,,,,,,,,
,,,,,,,,,6756889918e4d36105a501ca,spanish,13 or older,"no, only English or Spanish",yes,2025-07-23_19h34.48.272,empathy_intonation_perc,2024.2.4,Win32,60.24096386,6756889918e4d36105a501ca,687ed1b7e638a4cbf2f02089,6881711ad2b8a867c97234bf,,,,,,,,,,,,,,,,,,,,,,,,,,,,,,,,,,,,,,,,,,,,,,,,,,,,,,,,,,,,,,,,,,,,,,,,,,,,,,,,,,,,,,,,,,701.2105,710.8618,,,,,,,,,,,,,,,
,,,,,,,,,6756889918e4d36105a501ca,spanish,13 or older,"no, only English or Spanish",yes,2025-07-23_19h34.48.272,empathy_intonation_perc,2024.2.4,Win32,60.24096386,6756889918e4d36105a501ca,687ed1b7e638a4cbf2f02089,6881711ad2b8a867c97234bf,,,,,,,,,,,,,1,,,,,,,,,,,,,,,,,,,,,,,,,,,,,,,,,,,,,,,,,,,,,,,,,,,,,,,,,,,,,,,,,,,,,,,,,,,,,,,710.872,726.9211,slightly agree,0,0,0,0,1,I can easily tell if someone else wants to enter a conversation.,1,0,1,0,,
,,,,,,,,,6756889918e4d36105a501ca,spanish,13 or older,"no, only English or Spanish",yes,2025-07-23_19h34.48.272,empathy_intonation_perc,2024.2.4,Win32,60.24096386,6756889918e4d36105a501ca,687ed1b7e638a4cbf2f02089,6881711ad2b8a867c97234bf,,,,,,,,,,,,,2,,,,,,,,,,,,,,,,,,,,,,,,,,,,,,,,,,,,,,,,,,,,,,,,,,,,,,,,,,,,,,,,,,,,,,,,,,,,,,,726.9235,730.9672,slightly disagree,0,1,1,1,1,I prefer animals to humans.,0,1,0,0,,
,,,,,,,,,6756889918e4d36105a501ca,spanish,13 or older,"no, only English or Spanish",yes,2025-07-23_19h34.48.272,empathy_intonation_perc,2024.2.4,Win32,60.24096386,6756889918e4d36105a501ca,687ed1b7e638a4cbf2f02089,6881711ad2b8a867c97234bf,,,,,,,,,,,,,3,,,,,,,,,,,,,,,,,,,,,,,,,,,,,,,,,,,,,,,,,,,,,,,,,,,,,,,,,,,,,,,,,,,,,,,,,,,,,,,730.9722,734.9683,slightly agree,0,2,2,2,1,I try to keep up with the current trends and fashions.,0,1,0,0,,
,,,,,,,,,6756889918e4d36105a501ca,spanish,13 or older,"no, only English or Spanish",yes,2025-07-23_19h34.48.272,empathy_intonation_perc,2024.2.4,Win32,60.24096386,6756889918e4d36105a501ca,687ed1b7e638a4cbf2f02089,6881711ad2b8a867c97234bf,,,,,,,,,,,,,4,,,,,,,,,,,,,,,,,,,,,,,,,,,,,,,,,,,,,,,,,,,,,,,,,,,,,,,,,,,,,,,,,,,,,,,,,,,,,,,734.9727,739.106,slightly disagree,0,3,3,3,1,"I find it difficult to explain to others things that I understand easily,   when they don't understand it first time.",1,0,0,1,,
,,,,,,,,,6756889918e4d36105a501ca,spanish,13 or older,"no, only English or Spanish",yes,2025-07-23_19h34.48.272,empathy_intonation_perc,2024.2.4,Win32,60.24096386,6756889918e4d36105a501ca,687ed1b7e638a4cbf2f02089,6881711ad2b8a867c97234bf,,,,,,,,,,,,,5,,,,,,,,,,,,,,,,,,,,,,,,,,,,,,,,,,,,,,,,,,,,,,,,,,,,,,,,,,,,,,,,,,,,,,,,,,,,,,,739.1071,744.3495,slightly agree,0,4,4,4,1,I dream most nights.,0,1,0,0,,
,,,,,,,,,6756889918e4d36105a501ca,spanish,13 or older,"no, only English or Spanish",yes,2025-07-23_19h34.48.272,empathy_intonation_perc,2024.2.4,Win32,60.24096386,6756889918e4d36105a501ca,687ed1b7e638a4cbf2f02089,6881711ad2b8a867c97234bf,,,,,,,,,,,,,6,,,,,,,,,,,,,,,,,,,,,,,,,,,,,,,,,,,,,,,,,,,,,,,,,,,,,,,,,,,,,,,,,,,,,,,,,,,,,,,744.3533,748.2139,strongly agree,0,5,5,5,1,I really enjoy caring for other people.,1,0,1,0,,
,,,,,,,,,6756889918e4d36105a501ca,spanish,13 or older,"no, only English or Spanish",yes,2025-07-23_19h34.48.272,empathy_intonation_perc,2024.2.4,Win32,60.24096386,6756889918e4d36105a501ca,687ed1b7e638a4cbf2f02089,6881711ad2b8a867c97234bf,,,,,,,,,,,,,7,,,,,,,,,,,,,,,,,,,,,,,,,,,,,,,,,,,,,,,,,,,,,,,,,,,,,,,,,,,,,,,,,,,,,,,,,,,,,,,748.2169,751.0814,strongly agree,0,6,6,6,1,I try to solve my own problems rather than discussing them with others.,0,1,0,0,,
,,,,,,,,,6756889918e4d36105a501ca,spanish,13 or older,"no, only English or Spanish",yes,2025-07-23_19h34.48.272,empathy_intonation_perc,2024.2.4,Win32,60.24096386,6756889918e4d36105a501ca,687ed1b7e638a4cbf2f02089,6881711ad2b8a867c97234bf,,,,,,,,,,,,,8,,,,,,,,,,,,,,,,,,,,,,,,,,,,,,,,,,,,,,,,,,,,,,,,,,,,,,,,,,,,,,,,,,,,,,,,,,,,,,,751.085,759.295,strongly disagree,0,7,7,7,1,I find it hard to know what to do in a social situation.,1,0,0,1,,
,,,,,,,,,6756889918e4d36105a501ca,spanish,13 or older,"no, only English or Spanish",yes,2025-07-23_19h34.48.272,empathy_intonation_perc,2024.2.4,Win32,60.24096386,6756889918e4d36105a501ca,687ed1b7e638a4cbf2f02089,6881711ad2b8a867c97234bf,,,,,,,,,,,,,9,,,,,,,,,,,,,,,,,,,,,,,,,,,,,,,,,,,,,,,,,,,,,,,,,,,,,,,,,,,,,,,,,,,,,,,,,,,,,,,759.2973,762.7281,slightly agree,0,8,8,8,1,I am at my best first thing in the morning.,0,1,0,0,,
