instructions_exposure.started,instructions_exposure.stopped,instructions_exposure_loop.thisRepN,instructions_exposure_loop.thisTrialN,instructions_exposure_loop.thisN,instructions_exposure_loop.thisIndex,instructions_exposure_loop.ran,instructions_text,continue_text,participant_id,"What variety of Spanish are you most familiar with? (e.g., Peruvian, Spanish, Mexican)",At what age did you begin learning Spanish?,Are you proficient in any languages other than English/Spanish?,"Are you familiar with Caribbean (e.g., Caribbean, Puerto Rican) or Galician Spanish?",date,expName,psychopyVersion,OS,frameRate,id,study_id,session,trial_exposure.started,trial_exposure.stopped,key_resp_exposure.keys,key_resp_exposure.corr,key_resp_exposure.rt,key_resp_exposure.duration,key_resp.keys,exposure_loop.thisRepN,exposure_loop.thisTrialN,exposure_loop.thisN,exposure_loop.thisIndex,exposure_loop.ran,item_num,correct_response,question,path,duration,instructions_2afc.started,instructions_2afc.stopped,instructions_2afc_loop.thisRepN,instructions_2afc_loop.thisTrialN,instructions_2afc_loop.thisN,instructions_2afc_loop.thisIndex,instructions_2afc_loop.ran,practice_2afc.started,practice_2afc.stopped,key_resp_2afc_practice.keys,key_resp_2afc_practice.corr,key_resp_2afc_practice.rt,key_resp_2afc_practice.duration,trials_2afc_practice_loop.thisRepN,trials_2afc_practice_loop.thisTrialN,trials_2afc_practice_loop.thisN,trials_2afc_practice_loop.thisIndex,trials_2afc_practice_loop.ran,check_2afc.started,check_2afc.stopped,trial_2afc.started,trial_2afc.stopped,key_resp_2afc_trial.keys,key_resp_2afc_trial.corr,key_resp_2afc_trial.rt,key_resp_2afc_trial.duration,trials_2afc_loop.thisRepN,trials_2afc_loop.thisTrialN,trials_2afc_loop.thisN,trials_2afc_loop.thisIndex,trials_2afc_loop.ran,target,variety,instructions_lextale.started,instructions_lextale.stopped,instructions_lextale_loop.thisRepN,instructions_lextale_loop.thisTrialN,instructions_lextale_loop.thisN,instructions_lextale_loop.thisIndex,instructions_lextale_loop.ran,practice_lextale.started,practice_lextale.stopped,key_resp_lextale_practice.keys,key_resp_lextale_practice.corr,key_resp_lextale_practice.rt,key_resp_lextale_practice.duration,practice_feedback_lextale.started,practice_feedback_lextale.stopped,trials_lextale_practice_loop.thisRepN,trials_lextale_practice_loop.thisTrialN,trials_lextale_practice_loop.thisN,trials_lextale_practice_loop.thisIndex,trials_lextale_practice_loop.ran,stim,word,prac_button_real,prac_button_false,check_lextale.started,check_lextale.stopped,trial_lextale.started,trial_lextale.stopped,key_resp_lextale_trial.keys,key_resp_lextale_trial.corr,key_resp_lextale_trial.rt,key_resp_lextale_trial.duration,trials_lextale_loop.thisRepN,trials_lextale_loop.thisTrialN,trials_lextale_loop.thisN,trials_lextale_loop.thisIndex,trials_lextale_loop.ran,button_real,button_false,instructions_eq.started,instructions_eq.stopped,trial_eq.started,trial_eq.stopped,slider_eq_trial.response,trials_eq_loop.thisRepN,trials_eq_loop.thisTrialN,trials_eq_loop.thisN,trials_eq_loop.thisIndex,trials_eq_loop.ran,item,is_test_item,is_distractor,is_agree_score,is_disagree_score,end_exp.started,end_exp.stopped
0.0242,2.2458,0,0,0,0,1,"In the following task, you are going to hear a series of conversations.", (press the space bar to continue),675c98d1c5cd2106ffd74570,Spanish,13 or older,"no, only English or Spanish",no,2025-07-23_08h52.14.142,empathy_intonation_perc,2024.2.4,MacIntel,60.24096386,675c98d1c5cd2106ffd74570,687ed1b7e638a4cbf2f02089,6880dac1588816118ed8a384,,,,,,,,,,,,,,,,,,,,,,,,,,,,,,,,,,,,,,,,,,,,,,,,,,,,,,,,,,,,,,,,,,,,,,,,,,,,,,,,,,,,,,,,,,,,,,,,,,,,,,,,,,
2.2463,7.0577,0,1,1,1,1,It is okay if you don't not 100% understand them!, (press the space bar to continue),675c98d1c5cd2106ffd74570,Spanish,13 or older,"no, only English or Spanish",no,2025-07-23_08h52.14.142,empathy_intonation_perc,2024.2.4,MacIntel,60.24096386,675c98d1c5cd2106ffd74570,687ed1b7e638a4cbf2f02089,6880dac1588816118ed8a384,,,,,,,,,,,,,,,,,,,,,,,,,,,,,,,,,,,,,,,,,,,,,,,,,,,,,,,,,,,,,,,,,,,,,,,,,,,,,,,,,,,,,,,,,,,,,,,,,,,,,,,,,,
7.0586,10.057,0,2,2,2,1,"After, you will read a sentence about the conversation and decide if it's true or false.", (press the space bar to continue),675c98d1c5cd2106ffd74570,Spanish,13 or older,"no, only English or Spanish",no,2025-07-23_08h52.14.142,empathy_intonation_perc,2024.2.4,MacIntel,60.24096386,675c98d1c5cd2106ffd74570,687ed1b7e638a4cbf2f02089,6880dac1588816118ed8a384,,,,,,,,,,,,,,,,,,,,,,,,,,,,,,,,,,,,,,,,,,,,,,,,,,,,,,,,,,,,,,,,,,,,,,,,,,,,,,,,,,,,,,,,,,,,,,,,,,,,,,,,,,
10.0579,12.6902,0,3,3,3,1,"If it's true, press '1' (True) and if it's false press '0' (False).", (press the space bar to continue),675c98d1c5cd2106ffd74570,Spanish,13 or older,"no, only English or Spanish",no,2025-07-23_08h52.14.142,empathy_intonation_perc,2024.2.4,MacIntel,60.24096386,675c98d1c5cd2106ffd74570,687ed1b7e638a4cbf2f02089,6880dac1588816118ed8a384,,,,,,,,,,,,,,,,,,,,,,,,,,,,,,,,,,,,,,,,,,,,,,,,,,,,,,,,,,,,,,,,,,,,,,,,,,,,,,,,,,,,,,,,,,,,,,,,,,,,,,,,,,
,,,,,,,,,675c98d1c5cd2106ffd74570,Spanish,13 or older,"no, only English or Spanish",no,2025-07-23_08h52.14.142,empathy_intonation_perc,2024.2.4,MacIntel,60.24096386,675c98d1c5cd2106ffd74570,687ed1b7e638a4cbf2f02089,6880dac1588816118ed8a384,12.698,58.3439,1,0,9.5709,,,0,0,0,2,1,3,0,The mom already has rice.,./stim/exposure_wavs/pr_stimuli_convo.wav,36,,,,,,,,,,,,,,,,,,,,,,,,,,,,,,,,,,,,,,,,,,,,,,,,,,,,,,,,,,,,,,,,,,,,,,,,,,,,,,,,,,,,,,,,,
,,,,,,,,,675c98d1c5cd2106ffd74570,Spanish,13 or older,"no, only English or Spanish",no,2025-07-23_08h52.14.142,empathy_intonation_perc,2024.2.4,MacIntel,60.24096386,675c98d1c5cd2106ffd74570,687ed1b7e638a4cbf2f02089,6880dac1588816118ed8a384,58.3453,129.0253,1,1,10.6136,,,0,1,1,1,1,2,1,The mom asked the daughter if she already went to the supermarket.,./stim/exposure_wavs/dr_stimuli_convo.wav,60,,,,,,,,,,,,,,,,,,,,,,,,,,,,,,,,,,,,,,,,,,,,,,,,,,,,,,,,,,,,,,,,,,,,,,,,,,,,,,,,,,,,,,,,,
,,,,,,,,,675c98d1c5cd2106ffd74570,Spanish,13 or older,"no, only English or Spanish",no,2025-07-23_08h52.14.142,empathy_intonation_perc,2024.2.4,MacIntel,60.24096386,675c98d1c5cd2106ffd74570,687ed1b7e638a4cbf2f02089,6880dac1588816118ed8a384,129.0264,194.6724,1,1,18.6034,,,0,2,2,0,1,1,1,The son asked the mom if Aunt Marina is okay.,./stim/exposure_wavs/ga_stimuli_convo.wav,47,,,,,,,,,,,,,,,,,,,,,,,,,,,,,,,,,,,,,,,,,,,,,,,,,,,,,,,,,,,,,,,,,,,,,,,,,,,,,,,,,,,,,,,,,
,,,,,,,"In the following task you are going to hear a series of utterances. 

  You will decide if the utterances sound like questions or not using your keyboard.", (press the spacebar to continue),675c98d1c5cd2106ffd74570,Spanish,13 or older,"no, only English or Spanish",no,2025-07-23_08h52.14.142,empathy_intonation_perc,2024.2.4,MacIntel,60.24096386,675c98d1c5cd2106ffd74570,687ed1b7e638a4cbf2f02089,6880dac1588816118ed8a384,,,,,,,,,,,,,,,,,,194.6763,215.9002,0,0,0,0,1,,,,,,,,,,,,,,,,,,,,,,,,,,,,,,,,,,,,,,,,,,,,,,,,,,,,,,,,,,,,,,,,,,,,,,,,,,,,,,,,,,
,,,,,,,"If you believe the utterance is a question, type '1' (for 'yes') and if you do not 
  believe it is a question type '0' (for 'no').

  Let's practice a bit...", (press the spacebar to continue),675c98d1c5cd2106ffd74570,Spanish,13 or older,"no, only English or Spanish",no,2025-07-23_08h52.14.142,empathy_intonation_perc,2024.2.4,MacIntel,60.24096386,675c98d1c5cd2106ffd74570,687ed1b7e638a4cbf2f02089,6880dac1588816118ed8a384,,,,,,,,,,,,,,,,,,215.9013,221.2935,0,1,1,1,1,,,,,,,,,,,,,,,,,,,,,,,,,,,,,,,,,,,,,,,,,,,,,,,,,,,,,,,,,,,,,,,,,,,,,,,,,,,,,,,,,,
,,,,,,,,,675c98d1c5cd2106ffd74570,Spanish,13 or older,"no, only English or Spanish",no,2025-07-23_08h52.14.142,empathy_intonation_perc,2024.2.4,MacIntel,60.24096386,675c98d1c5cd2106ffd74570,687ed1b7e638a4cbf2f02089,6880dac1588816118ed8a384,,,,,,,,,,,,,,1,,./stim/wavs/mexican_question_filler_Felipe-no-tiene-contrasena.wav,,,,,,,,,221.2995,224.2074,1,1,2.3804,,0,0,0,3,1,,,,,,,,,,,,,,,,,,,,,,,,,,,,,,,,,,,,,,,,,,,,,,,,,,,,,,,,,,,,,,,,,,,,,,,
,,,,,,,,,675c98d1c5cd2106ffd74570,Spanish,13 or older,"no, only English or Spanish",no,2025-07-23_08h52.14.142,empathy_intonation_perc,2024.2.4,MacIntel,60.24096386,675c98d1c5cd2106ffd74570,687ed1b7e638a4cbf2f02089,6880dac1588816118ed8a384,,,,,,,,,,,,,,0,,./stim/wavs/peruvian_statement_filler_El-nino-habla-con-su-madre.wav,,,,,,,,,224.2079,227.3013,0,1,2.56,,0,1,1,6,1,,,,,,,,,,,,,,,,,,,,,,,,,,,,,,,,,,,,,,,,,,,,,,,,,,,,,,,,,,,,,,,,,,,,,,,
,,,,,,,,,675c98d1c5cd2106ffd74570,Spanish,13 or older,"no, only English or Spanish",no,2025-07-23_08h52.14.142,empathy_intonation_perc,2024.2.4,MacIntel,60.24096386,675c98d1c5cd2106ffd74570,687ed1b7e638a4cbf2f02089,6880dac1588816118ed8a384,,,,,,,,,,,,,,0,,./stim/wavs/andalusian_statement_filler_Alberto-nunca-se-afeita.wav,,,,,,,,,227.3018,230.0284,0,1,2.2045,,0,2,2,5,1,,,,,,,,,,,,,,,,,,,,,,,,,,,,,,,,,,,,,,,,,,,,,,,,,,,,,,,,,,,,,,,,,,,,,,,
,,,,,,,,,675c98d1c5cd2106ffd74570,Spanish,13 or older,"no, only English or Spanish",no,2025-07-23_08h52.14.142,empathy_intonation_perc,2024.2.4,MacIntel,60.24096386,675c98d1c5cd2106ffd74570,687ed1b7e638a4cbf2f02089,6880dac1588816118ed8a384,,,,,,,,,,,,,,1,,./stim/wavs/chilean_question_filler_Mi-padre-cantaba-bien.wav,,,,,,,,,230.0288,232.1447,1,1,1.5985,,0,3,3,2,1,,,,,,,,,,,,,,,,,,,,,,,,,,,,,,,,,,,,,,,,,,,,,,,,,,,,,,,,,,,,,,,,,,,,,,,
,,,,,,,,,675c98d1c5cd2106ffd74570,Spanish,13 or older,"no, only English or Spanish",no,2025-07-23_08h52.14.142,empathy_intonation_perc,2024.2.4,MacIntel,60.24096386,675c98d1c5cd2106ffd74570,687ed1b7e638a4cbf2f02089,6880dac1588816118ed8a384,,,,,,,,,,,,,,0,,./stim/wavs/puertorican_statement_filler_La-nina-pinta-con-su-amiga.wav,,,,,,,,,232.145,234.5765,0,1,1.8983,,0,4,4,7,1,,,,,,,,,,,,,,,,,,,,,,,,,,,,,,,,,,,,,,,,,,,,,,,,,,,,,,,,,,,,,,,,,,,,,,,
,,,,,,,,,675c98d1c5cd2106ffd74570,Spanish,13 or older,"no, only English or Spanish",no,2025-07-23_08h52.14.142,empathy_intonation_perc,2024.2.4,MacIntel,60.24096386,675c98d1c5cd2106ffd74570,687ed1b7e638a4cbf2f02089,6880dac1588816118ed8a384,,,,,,,,,,,,,,1,,./stim/wavs/castilian_question_filler_Mi-esposo-conoce-al-chico.wav,,,,,,,,,234.5769,236.9762,1,1,1.8654,,0,5,5,0,1,,,,,,,,,,,,,,,,,,,,,,,,,,,,,,,,,,,,,,,,,,,,,,,,,,,,,,,,,,,,,,,,,,,,,,,
,,,,,,,,,675c98d1c5cd2106ffd74570,Spanish,13 or older,"no, only English or Spanish",no,2025-07-23_08h52.14.142,empathy_intonation_perc,2024.2.4,MacIntel,60.24096386,675c98d1c5cd2106ffd74570,687ed1b7e638a4cbf2f02089,6880dac1588816118ed8a384,,,,,,,,,,,,,,1,,./stim/wavs/argentine_question_filler_Mi-vecino-habla-mucho.wav,,,,,,,,,236.9766,238.9598,1,1,1.4497,,0,6,6,1,1,,,,,,,,,,,,,,,,,,,,,,,,,,,,,,,,,,,,,,,,,,,,,,,,,,,,,,,,,,,,,,,,,,,,,,,
,,,,,,,,,675c98d1c5cd2106ffd74570,Spanish,13 or older,"no, only English or Spanish",no,2025-07-23_08h52.14.142,empathy_intonation_perc,2024.2.4,MacIntel,60.24096386,675c98d1c5cd2106ffd74570,687ed1b7e638a4cbf2f02089,6880dac1588816118ed8a384,,,,,,,,,,,,,,0,,./stim/wavs/cuban_statement_filler_Cocinabas-por-la-noche.wav,,,,,,,,,238.9602,241.0343,0,1,1.539,,0,7,7,4,1,,,,,,,,,,,,,,,,,,,,,,,,,,,,,,,,,,,,,,,,,,,,,,,,,,,,,,,,,,,,,,,,,,,,,,,
,,,,,,,,,675c98d1c5cd2106ffd74570,Spanish,13 or older,"no, only English or Spanish",no,2025-07-23_08h52.14.142,empathy_intonation_perc,2024.2.4,MacIntel,60.24096386,675c98d1c5cd2106ffd74570,687ed1b7e638a4cbf2f02089,6880dac1588816118ed8a384,,,,,,,,,,,,,,,,,,,,,,,,,,,,,,,,,,,,241.0345,243.2932,,,,,,,,,,,,,,,,,,,,,,,,,,,,,,,,,,,,,,,,,,,,,,,,,,,,,,,,,,,,,,,,,,,,,
,,,,,,,,,675c98d1c5cd2106ffd74570,Spanish,13 or older,"no, only English or Spanish",no,2025-07-23_08h52.14.142,empathy_intonation_perc,2024.2.4,MacIntel,60.24096386,675c98d1c5cd2106ffd74570,687ed1b7e638a4cbf2f02089,6880dac1588816118ed8a384,,,,,,,,,,,,,19,1,,./stim/wavs/puertorican_match_interrogative-total-yn_Ana-lleva-el-abrigo.wav,,,,,,,,,,,,,,,,,,,,,,243.3022,245.7616,1,1,1.9399,,0,0,0,18,1,1,puertorican,,,,,,,,,,,,,,,,,,,,,,,,,,,,,,,,,,,,,,,,,,,,,,,,,,,,,,,,
,,,,,,,,,675c98d1c5cd2106ffd74570,Spanish,13 or older,"no, only English or Spanish",no,2025-07-23_08h52.14.142,empathy_intonation_perc,2024.2.4,MacIntel,60.24096386,675c98d1c5cd2106ffd74570,687ed1b7e638a4cbf2f02089,6880dac1588816118ed8a384,,,,,,,,,,,,,48,0,,./stim/wavs/castilian_match_declarative-broad-focus_Maria-bebe-el-vino.wav,,,,,,,,,,,,,,,,,,,,,,245.762,247.9114,0,1,1.6201,,0,1,1,47,1,0,castilian,,,,,,,,,,,,,,,,,,,,,,,,,,,,,,,,,,,,,,,,,,,,,,,,,,,,,,,,
,,,,,,,,,675c98d1c5cd2106ffd74570,Spanish,13 or older,"no, only English or Spanish",no,2025-07-23_08h52.14.142,empathy_intonation_perc,2024.2.4,MacIntel,60.24096386,675c98d1c5cd2106ffd74570,687ed1b7e638a4cbf2f02089,6880dac1588816118ed8a384,,,,,,,,,,,,,43,1,,./stim/wavs/puertorican_mismatch_interrogative-total-yn_La-nina-lava-el-plato.wav,,,,,,,,,,,,,,,,,,,,,,247.9117,249.9588,0,0,1.5174,,0,2,2,42,1,1,puertorican,,,,,,,,,,,,,,,,,,,,,,,,,,,,,,,,,,,,,,,,,,,,,,,,,,,,,,,,
,,,,,,,,,675c98d1c5cd2106ffd74570,Spanish,13 or older,"no, only English or Spanish",no,2025-07-23_08h52.14.142,empathy_intonation_perc,2024.2.4,MacIntel,60.24096386,675c98d1c5cd2106ffd74570,687ed1b7e638a4cbf2f02089,6880dac1588816118ed8a384,,,,,,,,,,,,,79,0,,./stim/wavs/mexican_mismatch_declarative-broad-focus_El-bebe-comia-muy-bien.wav,,,,,,,,,,,,,,,,,,,,,,249.9591,252.8894,0,1,2.4115,,0,3,3,78,1,0,mexican,,,,,,,,,,,,,,,,,,,,,,,,,,,,,,,,,,,,,,,,,,,,,,,,,,,,,,,,
,,,,,,,,,675c98d1c5cd2106ffd74570,Spanish,13 or older,"no, only English or Spanish",no,2025-07-23_08h52.14.142,empathy_intonation_perc,2024.2.4,MacIntel,60.24096386,675c98d1c5cd2106ffd74570,687ed1b7e638a4cbf2f02089,6880dac1588816118ed8a384,,,,,,,,,,,,,62,0,,./stim/wavs/mexican_match_declarative-broad-focus_Marta-abre-el-regalo.wav,,,,,,,,,,,,,,,,,,,,,,252.8897,254.9026,0,1,1.4969,,0,4,4,61,1,0,mexican,,,,,,,,,,,,,,,,,,,,,,,,,,,,,,,,,,,,,,,,,,,,,,,,,,,,,,,,
,,,,,,,,,675c98d1c5cd2106ffd74570,Spanish,13 or older,"no, only English or Spanish",no,2025-07-23_08h52.14.142,empathy_intonation_perc,2024.2.4,MacIntel,60.24096386,675c98d1c5cd2106ffd74570,687ed1b7e638a4cbf2f02089,6880dac1588816118ed8a384,,,,,,,,,,,,,16,1,,./stim/wavs/mexican_match_interrogative-total-yn_Emilio-ama-la-marcha.wav,,,,,,,,,,,,,,,,,,,,,,254.903,257.0599,1,1,1.637,,0,5,5,15,1,0,mexican,,,,,,,,,,,,,,,,,,,,,,,,,,,,,,,,,,,,,,,,,,,,,,,,,,,,,,,,
,,,,,,,,,675c98d1c5cd2106ffd74570,Spanish,13 or older,"no, only English or Spanish",no,2025-07-23_08h52.14.142,empathy_intonation_perc,2024.2.4,MacIntel,60.24096386,675c98d1c5cd2106ffd74570,687ed1b7e638a4cbf2f02089,6880dac1588816118ed8a384,,,,,,,,,,,,,36,1,,./stim/wavs/mexican_mismatch_interrogative-total-yn_El-nino-oye-el-rio.wav,,,,,,,,,,,,,,,,,,,,,,257.0603,259.1177,1,1,1.5232,,0,6,6,35,1,0,mexican,,,,,,,,,,,,,,,,,,,,,,,,,,,,,,,,,,,,,,,,,,,,,,,,,,,,,,,,
,,,,,,,,,675c98d1c5cd2106ffd74570,Spanish,13 or older,"no, only English or Spanish",no,2025-07-23_08h52.14.142,empathy_intonation_perc,2024.2.4,MacIntel,60.24096386,675c98d1c5cd2106ffd74570,687ed1b7e638a4cbf2f02089,6880dac1588816118ed8a384,,,,,,,,,,,,,85,0,,./stim/wavs/puertorican_mismatch_declarative-broad-focus_El-hombre-mira-la-luna.wav,,,,,,,,,,,,,,,,,,,,,,259.1182,261.2106,0,1,1.5662,,0,7,7,84,1,0,puertorican,,,,,,,,,,,,,,,,,,,,,,,,,,,,,,,,,,,,,,,,,,,,,,,,,,,,,,,,
,,,,,,,,,675c98d1c5cd2106ffd74570,Spanish,13 or older,"no, only English or Spanish",no,2025-07-23_08h52.14.142,empathy_intonation_perc,2024.2.4,MacIntel,60.24096386,675c98d1c5cd2106ffd74570,687ed1b7e638a4cbf2f02089,6880dac1588816118ed8a384,,,,,,,,,,,,,80,0,,./stim/wavs/mexican_mismatch_declarative-broad-focus_El-hombre-mira-la-luna.wav,,,,,,,,,,,,,,,,,,,,,,261.2109,263.2855,0,1,1.5418,,0,8,8,79,1,0,mexican,,,,,,,,,,,,,,,,,,,,,,,,,,,,,,,,,,,,,,,,,,,,,,,,,,,,,,,,
,,,,,,,,,675c98d1c5cd2106ffd74570,Spanish,13 or older,"no, only English or Spanish",no,2025-07-23_08h52.14.142,empathy_intonation_perc,2024.2.4,MacIntel,60.24096386,675c98d1c5cd2106ffd74570,687ed1b7e638a4cbf2f02089,6880dac1588816118ed8a384,,,,,,,,,,,,,50,0,,./stim/wavs/castilian_match_declarative-broad-focus_Marta-abre-el-regalo.wav,,,,,,,,,,,,,,,,,,,,,,263.2859,265.4013,0,1,1.5924,,0,9,9,49,1,0,castilian,,,,,,,,,,,,,,,,,,,,,,,,,,,,,,,,,,,,,,,,,,,,,,,,,,,,,,,,
,,,,,,,,,675c98d1c5cd2106ffd74570,Spanish,13 or older,"no, only English or Spanish",no,2025-07-23_08h52.14.142,empathy_intonation_perc,2024.2.4,MacIntel,60.24096386,675c98d1c5cd2106ffd74570,687ed1b7e638a4cbf2f02089,6880dac1588816118ed8a384,,,,,,,,,,,,,47,0,,./stim/wavs/castilian_match_declarative-broad-focus_Manuela-vende-el-carro.wav,,,,,,,,,,,,,,,,,,,,,,265.4016,267.734,0,1,1.8157,,0,10,10,46,1,0,castilian,,,,,,,,,,,,,,,,,,,,,,,,,,,,,,,,,,,,,,,,,,,,,,,,,,,,,,,,
,,,,,,,,,675c98d1c5cd2106ffd74570,Spanish,13 or older,"no, only English or Spanish",no,2025-07-23_08h52.14.142,empathy_intonation_perc,2024.2.4,MacIntel,60.24096386,675c98d1c5cd2106ffd74570,687ed1b7e638a4cbf2f02089,6880dac1588816118ed8a384,,,,,,,,,,,,,57,0,,./stim/wavs/mexican_match_declarative-broad-focus_Ana-lleva-el-abrigo.wav,,,,,,,,,,,,,,,,,,,,,,267.7342,269.7622,0,1,1.5033,,0,11,11,56,1,0,mexican,,,,,,,,,,,,,,,,,,,,,,,,,,,,,,,,,,,,,,,,,,,,,,,,,,,,,,,,
,,,,,,,,,675c98d1c5cd2106ffd74570,Spanish,13 or older,"no, only English or Spanish",no,2025-07-23_08h52.14.142,empathy_intonation_perc,2024.2.4,MacIntel,60.24096386,675c98d1c5cd2106ffd74570,687ed1b7e638a4cbf2f02089,6880dac1588816118ed8a384,,,,,,,,,,,,,45,0,,./stim/wavs/castilian_match_declarative-broad-focus_David-leia-el-libro.wav,,,,,,,,,,,,,,,,,,,,,,269.7626,272.3015,0,1,2.0004,,0,12,12,44,1,0,castilian,,,,,,,,,,,,,,,,,,,,,,,,,,,,,,,,,,,,,,,,,,,,,,,,,,,,,,,,
,,,,,,,,,675c98d1c5cd2106ffd74570,Spanish,13 or older,"no, only English or Spanish",no,2025-07-23_08h52.14.142,empathy_intonation_perc,2024.2.4,MacIntel,60.24096386,675c98d1c5cd2106ffd74570,687ed1b7e638a4cbf2f02089,6880dac1588816118ed8a384,,,,,,,,,,,,,46,0,,./stim/wavs/castilian_match_declarative-broad-focus_Emilio-ama-la-marcha.wav,,,,,,,,,,,,,,,,,,,,,,272.3018,274.7619,0,1,1.9357,,0,13,13,45,1,0,castilian,,,,,,,,,,,,,,,,,,,,,,,,,,,,,,,,,,,,,,,,,,,,,,,,,,,,,,,,
,,,,,,,,,675c98d1c5cd2106ffd74570,Spanish,13 or older,"no, only English or Spanish",no,2025-07-23_08h52.14.142,empathy_intonation_perc,2024.2.4,MacIntel,60.24096386,675c98d1c5cd2106ffd74570,687ed1b7e638a4cbf2f02089,6880dac1588816118ed8a384,,,,,,,,,,,,,35,1,,./stim/wavs/mexican_mismatch_interrogative-total-yn_El-hombre-mira-la-luna.wav,,,,,,,,,,,,,,,,,,,,,,274.7623,276.6889,1,1,1.3934,,0,14,14,34,1,0,mexican,,,,,,,,,,,,,,,,,,,,,,,,,,,,,,,,,,,,,,,,,,,,,,,,,,,,,,,,
,,,,,,,,,675c98d1c5cd2106ffd74570,Spanish,13 or older,"no, only English or Spanish",no,2025-07-23_08h52.14.142,empathy_intonation_perc,2024.2.4,MacIntel,60.24096386,675c98d1c5cd2106ffd74570,687ed1b7e638a4cbf2f02089,6880dac1588816118ed8a384,,,,,,,,,,,,,76,0,,./stim/wavs/cuban_mismatch_declarative-broad-focus_La-nina-lava-el-plato.wav,,,,,,,,,,,,,,,,,,,,,,276.6894,279.3599,0,1,2.1518,,0,15,15,75,1,0,cuban,,,,,,,,,,,,,,,,,,,,,,,,,,,,,,,,,,,,,,,,,,,,,,,,,,,,,,,,
,,,,,,,,,675c98d1c5cd2106ffd74570,Spanish,13 or older,"no, only English or Spanish",no,2025-07-23_08h52.14.142,empathy_intonation_perc,2024.2.4,MacIntel,60.24096386,675c98d1c5cd2106ffd74570,687ed1b7e638a4cbf2f02089,6880dac1588816118ed8a384,,,,,,,,,,,,,24,1,,./stim/wavs/puertorican_match_interrogative-total-yn_Maria-bebe-el-vino.wav,,,,,,,,,,,,,,,,,,,,,,279.3603,281.4262,0,0,1.532,,0,16,16,23,1,1,puertorican,,,,,,,,,,,,,,,,,,,,,,,,,,,,,,,,,,,,,,,,,,,,,,,,,,,,,,,,
,,,,,,,,,675c98d1c5cd2106ffd74570,Spanish,13 or older,"no, only English or Spanish",no,2025-07-23_08h52.14.142,empathy_intonation_perc,2024.2.4,MacIntel,60.24096386,675c98d1c5cd2106ffd74570,687ed1b7e638a4cbf2f02089,6880dac1588816118ed8a384,,,,,,,,,,,,,52,0,,./stim/wavs/cuban_match_declarative-broad-focus_Daniel-iba-a-Bolivia.wav,,,,,,,,,,,,,,,,,,,,,,281.4266,284.0117,0,1,2.0525,,0,17,17,51,1,0,cuban,,,,,,,,,,,,,,,,,,,,,,,,,,,,,,,,,,,,,,,,,,,,,,,,,,,,,,,,
,,,,,,,,,675c98d1c5cd2106ffd74570,Spanish,13 or older,"no, only English or Spanish",no,2025-07-23_08h52.14.142,empathy_intonation_perc,2024.2.4,MacIntel,60.24096386,675c98d1c5cd2106ffd74570,687ed1b7e638a4cbf2f02089,6880dac1588816118ed8a384,,,,,,,,,,,,,77,0,,./stim/wavs/cuban_mismatch_declarative-broad-focus_Mi-novio-viene-del-lago.wav,,,,,,,,,,,,,,,,,,,,,,284.012,287.4603,0,1,2.9156,,0,18,18,76,1,0,cuban,,,,,,,,,,,,,,,,,,,,,,,,,,,,,,,,,,,,,,,,,,,,,,,,,,,,,,,,
,,,,,,,,,675c98d1c5cd2106ffd74570,Spanish,13 or older,"no, only English or Spanish",no,2025-07-23_08h52.14.142,empathy_intonation_perc,2024.2.4,MacIntel,60.24096386,675c98d1c5cd2106ffd74570,687ed1b7e638a4cbf2f02089,6880dac1588816118ed8a384,,,,,,,,,,,,,30,1,,./stim/wavs/cuban_mismatch_interrogative-total-yn_El-hombre-mira-la-luna.wav,,,,,,,,,,,,,,,,,,,,,,287.4607,289.7096,1,1,1.7169,,0,19,19,29,1,1,cuban,,,,,,,,,,,,,,,,,,,,,,,,,,,,,,,,,,,,,,,,,,,,,,,,,,,,,,,,
,,,,,,,,,675c98d1c5cd2106ffd74570,Spanish,13 or older,"no, only English or Spanish",no,2025-07-23_08h52.14.142,empathy_intonation_perc,2024.2.4,MacIntel,60.24096386,675c98d1c5cd2106ffd74570,687ed1b7e638a4cbf2f02089,6880dac1588816118ed8a384,,,,,,,,,,,,,75,0,,./stim/wavs/cuban_mismatch_declarative-broad-focus_El-hombre-mira-la-luna.wav,,,,,,,,,,,,,,,,,,,,,,289.71,292.179,0,1,1.9374,,0,20,20,74,1,0,cuban,,,,,,,,,,,,,,,,,,,,,,,,,,,,,,,,,,,,,,,,,,,,,,,,,,,,,,,,
,,,,,,,,,675c98d1c5cd2106ffd74570,Spanish,13 or older,"no, only English or Spanish",no,2025-07-23_08h52.14.142,empathy_intonation_perc,2024.2.4,MacIntel,60.24096386,675c98d1c5cd2106ffd74570,687ed1b7e638a4cbf2f02089,6880dac1588816118ed8a384,,,,,,,,,,,,,71,0,,./stim/wavs/castilian_mismatch_declarative-broad-focus_La-nina-lava-el-plato.wav,,,,,,,,,,,,,,,,,,,,,,292.1794,294.8944,0,1,2.1859,,0,21,21,70,1,0,castilian,,,,,,,,,,,,,,,,,,,,,,,,,,,,,,,,,,,,,,,,,,,,,,,,,,,,,,,,
,,,,,,,,,675c98d1c5cd2106ffd74570,Spanish,13 or older,"no, only English or Spanish",no,2025-07-23_08h52.14.142,empathy_intonation_perc,2024.2.4,MacIntel,60.24096386,675c98d1c5cd2106ffd74570,687ed1b7e638a4cbf2f02089,6880dac1588816118ed8a384,,,,,,,,,,,,,10,1,,./stim/wavs/cuban_match_interrogative-total-yn_Maria-bebe-el-vino.wav,,,,,,,,,,,,,,,,,,,,,,294.8947,297.6847,0,0,2.2587,,0,22,22,9,1,1,cuban,,,,,,,,,,,,,,,,,,,,,,,,,,,,,,,,,,,,,,,,,,,,,,,,,,,,,,,,
,,,,,,,,,675c98d1c5cd2106ffd74570,Spanish,13 or older,"no, only English or Spanish",no,2025-07-23_08h52.14.142,empathy_intonation_perc,2024.2.4,MacIntel,60.24096386,675c98d1c5cd2106ffd74570,687ed1b7e638a4cbf2f02089,6880dac1588816118ed8a384,,,,,,,,,,,,,13,1,,./stim/wavs/mexican_match_interrogative-total-yn_Ana-lleva-el-abrigo.wav,,,,,,,,,,,,,,,,,,,,,,297.6851,299.9682,1,1,1.7595,,0,23,23,12,1,0,mexican,,,,,,,,,,,,,,,,,,,,,,,,,,,,,,,,,,,,,,,,,,,,,,,,,,,,,,,,
,,,,,,,,,675c98d1c5cd2106ffd74570,Spanish,13 or older,"no, only English or Spanish",no,2025-07-23_08h52.14.142,empathy_intonation_perc,2024.2.4,MacIntel,60.24096386,675c98d1c5cd2106ffd74570,687ed1b7e638a4cbf2f02089,6880dac1588816118ed8a384,,,,,,,,,,,,,81,0,,./stim/wavs/mexican_mismatch_declarative-broad-focus_La-maestra-vive-en-Paris.wav,,,,,,,,,,,,,,,,,,,,,,299.9685,302.2789,0,1,1.7841,,0,24,24,80,1,0,mexican,,,,,,,,,,,,,,,,,,,,,,,,,,,,,,,,,,,,,,,,,,,,,,,,,,,,,,,,
,,,,,,,,,675c98d1c5cd2106ffd74570,Spanish,13 or older,"no, only English or Spanish",no,2025-07-23_08h52.14.142,empathy_intonation_perc,2024.2.4,MacIntel,60.24096386,675c98d1c5cd2106ffd74570,687ed1b7e638a4cbf2f02089,6880dac1588816118ed8a384,,,,,,,,,,,,,64,0,,./stim/wavs/puertorican_match_declarative-broad-focus_Daniel-iba-a-Bolivia.wav,,,,,,,,,,,,,,,,,,,,,,302.2793,304.2565,0,1,1.4494,,0,25,25,63,1,0,puertorican,,,,,,,,,,,,,,,,,,,,,,,,,,,,,,,,,,,,,,,,,,,,,,,,,,,,,,,,
,,,,,,,,,675c98d1c5cd2106ffd74570,Spanish,13 or older,"no, only English or Spanish",no,2025-07-23_08h52.14.142,empathy_intonation_perc,2024.2.4,MacIntel,60.24096386,675c98d1c5cd2106ffd74570,687ed1b7e638a4cbf2f02089,6880dac1588816118ed8a384,,,,,,,,,,,,,55,0,,./stim/wavs/cuban_match_declarative-broad-focus_Mariano-habla-del-tiempo.wav,,,,,,,,,,,,,,,,,,,,,,304.2569,306.5104,0,1,1.7333,,0,26,26,54,1,0,cuban,,,,,,,,,,,,,,,,,,,,,,,,,,,,,,,,,,,,,,,,,,,,,,,,,,,,,,,,
,,,,,,,,,675c98d1c5cd2106ffd74570,Spanish,13 or older,"no, only English or Spanish",no,2025-07-23_08h52.14.142,empathy_intonation_perc,2024.2.4,MacIntel,60.24096386,675c98d1c5cd2106ffd74570,687ed1b7e638a4cbf2f02089,6880dac1588816118ed8a384,,,,,,,,,,,,,15,1,,./stim/wavs/mexican_match_interrogative-total-yn_David-leia-el-libro.wav,,,,,,,,,,,,,,,,,,,,,,306.5107,308.4609,1,1,1.4162,,0,27,27,14,1,0,mexican,,,,,,,,,,,,,,,,,,,,,,,,,,,,,,,,,,,,,,,,,,,,,,,,,,,,,,,,
,,,,,,,,,675c98d1c5cd2106ffd74570,Spanish,13 or older,"no, only English or Spanish",no,2025-07-23_08h52.14.142,empathy_intonation_perc,2024.2.4,MacIntel,60.24096386,675c98d1c5cd2106ffd74570,687ed1b7e638a4cbf2f02089,6880dac1588816118ed8a384,,,,,,,,,,,,,26,1,,./stim/wavs/castilian_mismatch_interrogative-total-yn_La-nina-lava-el-plato.wav,,,,,,,,,,,,,,,,,,,,,,308.4613,310.5417,1,1,1.5471,,0,28,28,25,1,0,castilian,,,,,,,,,,,,,,,,,,,,,,,,,,,,,,,,,,,,,,,,,,,,,,,,,,,,,,,,
,,,,,,,,,675c98d1c5cd2106ffd74570,Spanish,13 or older,"no, only English or Spanish",no,2025-07-23_08h52.14.142,empathy_intonation_perc,2024.2.4,MacIntel,60.24096386,675c98d1c5cd2106ffd74570,687ed1b7e638a4cbf2f02089,6880dac1588816118ed8a384,,,,,,,,,,,,,60,0,,./stim/wavs/mexican_match_declarative-broad-focus_Emilio-ama-la-marcha.wav,,,,,,,,,,,,,,,,,,,,,,310.5421,312.685,0,1,1.6086,,0,29,29,59,1,0,mexican,,,,,,,,,,,,,,,,,,,,,,,,,,,,,,,,,,,,,,,,,,,,,,,,,,,,,,,,
,,,,,,,,,675c98d1c5cd2106ffd74570,Spanish,13 or older,"no, only English or Spanish",no,2025-07-23_08h52.14.142,empathy_intonation_perc,2024.2.4,MacIntel,60.24096386,675c98d1c5cd2106ffd74570,687ed1b7e638a4cbf2f02089,6880dac1588816118ed8a384,,,,,,,,,,,,,2,1,,./stim/wavs/castilian_match_interrogative-total-yn_Emilio-ama-la-marcha.wav,,,,,,,,,,,,,,,,,,,,,,312.6853,314.8104,1,1,1.5872,,0,30,30,1,1,0,castilian,,,,,,,,,,,,,,,,,,,,,,,,,,,,,,,,,,,,,,,,,,,,,,,,,,,,,,,,
,,,,,,,,,675c98d1c5cd2106ffd74570,Spanish,13 or older,"no, only English or Spanish",no,2025-07-23_08h52.14.142,empathy_intonation_perc,2024.2.4,MacIntel,60.24096386,675c98d1c5cd2106ffd74570,687ed1b7e638a4cbf2f02089,6880dac1588816118ed8a384,,,,,,,,,,,,,25,1,,./stim/wavs/castilian_mismatch_interrogative-total-yn_La-maestra-vive-en-Paris.wav,,,,,,,,,,,,,,,,,,,,,,314.8109,317.142,1,1,1.8015,,0,31,31,24,1,0,castilian,,,,,,,,,,,,,,,,,,,,,,,,,,,,,,,,,,,,,,,,,,,,,,,,,,,,,,,,
,,,,,,,,,675c98d1c5cd2106ffd74570,Spanish,13 or older,"no, only English or Spanish",no,2025-07-23_08h52.14.142,empathy_intonation_perc,2024.2.4,MacIntel,60.24096386,675c98d1c5cd2106ffd74570,687ed1b7e638a4cbf2f02089,6880dac1588816118ed8a384,,,,,,,,,,,,,78,0,,./stim/wavs/cuban_mismatch_declarative-broad-focus_Mi-tia-odia-la-lluvia.wav,,,,,,,,,,,,,,,,,,,,,,317.1423,319.4283,0,1,1.7521,,0,32,32,77,1,0,cuban,,,,,,,,,,,,,,,,,,,,,,,,,,,,,,,,,,,,,,,,,,,,,,,,,,,,,,,,
,,,,,,,,,675c98d1c5cd2106ffd74570,Spanish,13 or older,"no, only English or Spanish",no,2025-07-23_08h52.14.142,empathy_intonation_perc,2024.2.4,MacIntel,60.24096386,675c98d1c5cd2106ffd74570,687ed1b7e638a4cbf2f02089,6880dac1588816118ed8a384,,,,,,,,,,,,,11,1,,./stim/wavs/cuban_match_interrogative-total-yn_Mariano-habla-del-tiempo.wav,,,,,,,,,,,,,,,,,,,,,,319.4287,321.8235,0,0,1.8613,,0,33,33,10,1,1,cuban,,,,,,,,,,,,,,,,,,,,,,,,,,,,,,,,,,,,,,,,,,,,,,,,,,,,,,,,
,,,,,,,,,675c98d1c5cd2106ffd74570,Spanish,13 or older,"no, only English or Spanish",no,2025-07-23_08h52.14.142,empathy_intonation_perc,2024.2.4,MacIntel,60.24096386,675c98d1c5cd2106ffd74570,687ed1b7e638a4cbf2f02089,6880dac1588816118ed8a384,,,,,,,,,,,,,7,1,,./stim/wavs/cuban_match_interrogative-total-yn_Ana-lleva-el-abrigo.wav,,,,,,,,,,,,,,,,,,,,,,321.8239,323.8933,0,0,1.5499,,0,34,34,6,1,1,cuban,,,,,,,,,,,,,,,,,,,,,,,,,,,,,,,,,,,,,,,,,,,,,,,,,,,,,,,,
,,,,,,,,,675c98d1c5cd2106ffd74570,Spanish,13 or older,"no, only English or Spanish",no,2025-07-23_08h52.14.142,empathy_intonation_perc,2024.2.4,MacIntel,60.24096386,675c98d1c5cd2106ffd74570,687ed1b7e638a4cbf2f02089,6880dac1588816118ed8a384,,,,,,,,,,,,,8,1,,./stim/wavs/cuban_match_interrogative-total-yn_Daniel-iba-a-Bolivia.wav,,,,,,,,,,,,,,,,,,,,,,323.8936,326.1276,0,0,1.7159,,0,35,35,7,1,1,cuban,,,,,,,,,,,,,,,,,,,,,,,,,,,,,,,,,,,,,,,,,,,,,,,,,,,,,,,,
,,,,,,,,,675c98d1c5cd2106ffd74570,Spanish,13 or older,"no, only English or Spanish",no,2025-07-23_08h52.14.142,empathy_intonation_perc,2024.2.4,MacIntel,60.24096386,675c98d1c5cd2106ffd74570,687ed1b7e638a4cbf2f02089,6880dac1588816118ed8a384,,,,,,,,,,,,,32,1,,./stim/wavs/cuban_mismatch_interrogative-total-yn_Mi-madre-come-la-fruta.wav,,,,,,,,,,,,,,,,,,,,,,326.1279,328.3628,0,0,1.7113,,0,36,36,31,1,1,cuban,,,,,,,,,,,,,,,,,,,,,,,,,,,,,,,,,,,,,,,,,,,,,,,,,,,,,,,,
,,,,,,,,,675c98d1c5cd2106ffd74570,Spanish,13 or older,"no, only English or Spanish",no,2025-07-23_08h52.14.142,empathy_intonation_perc,2024.2.4,MacIntel,60.24096386,675c98d1c5cd2106ffd74570,687ed1b7e638a4cbf2f02089,6880dac1588816118ed8a384,,,,,,,,,,,,,31,1,,./stim/wavs/cuban_mismatch_interrogative-total-yn_El-nino-oye-el-rio.wav,,,,,,,,,,,,,,,,,,,,,,328.3631,330.2417,0,0,1.3463,,0,37,37,30,1,1,cuban,,,,,,,,,,,,,,,,,,,,,,,,,,,,,,,,,,,,,,,,,,,,,,,,,,,,,,,,
,,,,,,,,,675c98d1c5cd2106ffd74570,Spanish,13 or older,"no, only English or Spanish",no,2025-07-23_08h52.14.142,empathy_intonation_perc,2024.2.4,MacIntel,60.24096386,675c98d1c5cd2106ffd74570,687ed1b7e638a4cbf2f02089,6880dac1588816118ed8a384,,,,,,,,,,,,,59,0,,./stim/wavs/mexican_match_declarative-broad-focus_David-leia-el-libro.wav,,,,,,,,,,,,,,,,,,,,,,330.2421,332.1624,0,1,1.3908,,0,38,38,58,1,0,mexican,,,,,,,,,,,,,,,,,,,,,,,,,,,,,,,,,,,,,,,,,,,,,,,,,,,,,,,,
,,,,,,,,,675c98d1c5cd2106ffd74570,Spanish,13 or older,"no, only English or Spanish",no,2025-07-23_08h52.14.142,empathy_intonation_perc,2024.2.4,MacIntel,60.24096386,675c98d1c5cd2106ffd74570,687ed1b7e638a4cbf2f02089,6880dac1588816118ed8a384,,,,,,,,,,,,,28,1,,./stim/wavs/castilian_mismatch_interrogative-total-yn_Mi-novio-viene-del-lago.wav,,,,,,,,,,,,,,,,,,,,,,332.1627,334.8615,1,1,2.1685,,0,39,39,27,1,0,castilian,,,,,,,,,,,,,,,,,,,,,,,,,,,,,,,,,,,,,,,,,,,,,,,,,,,,,,,,
,,,,,,,,,675c98d1c5cd2106ffd74570,Spanish,13 or older,"no, only English or Spanish",no,2025-07-23_08h52.14.142,empathy_intonation_perc,2024.2.4,MacIntel,60.24096386,675c98d1c5cd2106ffd74570,687ed1b7e638a4cbf2f02089,6880dac1588816118ed8a384,,,,,,,,,,,,,33,1,,./stim/wavs/cuban_mismatch_interrogative-total-yn_Mi-novio-viene-del-lago.wav,,,,,,,,,,,,,,,,,,,,,,334.8618,337.1349,0,0,1.7408,,0,40,40,32,1,1,cuban,,,,,,,,,,,,,,,,,,,,,,,,,,,,,,,,,,,,,,,,,,,,,,,,,,,,,,,,
,,,,,,,,,675c98d1c5cd2106ffd74570,Spanish,13 or older,"no, only English or Spanish",no,2025-07-23_08h52.14.142,empathy_intonation_perc,2024.2.4,MacIntel,60.24096386,675c98d1c5cd2106ffd74570,687ed1b7e638a4cbf2f02089,6880dac1588816118ed8a384,,,,,,,,,,,,,63,0,,./stim/wavs/puertorican_match_declarative-broad-focus_Ana-lleva-el-abrigo.wav,,,,,,,,,,,,,,,,,,,,,,337.1353,339.1259,0,1,1.4659,,0,41,41,62,1,0,puertorican,,,,,,,,,,,,,,,,,,,,,,,,,,,,,,,,,,,,,,,,,,,,,,,,,,,,,,,,
,,,,,,,,,675c98d1c5cd2106ffd74570,Spanish,13 or older,"no, only English or Spanish",no,2025-07-23_08h52.14.142,empathy_intonation_perc,2024.2.4,MacIntel,60.24096386,675c98d1c5cd2106ffd74570,687ed1b7e638a4cbf2f02089,6880dac1588816118ed8a384,,,,,,,,,,,,,61,0,,./stim/wavs/mexican_match_declarative-broad-focus_Mariano-habla-del-tiempo.wav,,,,,,,,,,,,,,,,,,,,,,339.1262,341.4442,0,1,1.7853,,0,42,42,60,1,0,mexican,,,,,,,,,,,,,,,,,,,,,,,,,,,,,,,,,,,,,,,,,,,,,,,,,,,,,,,,
,,,,,,,,,675c98d1c5cd2106ffd74570,Spanish,13 or older,"no, only English or Spanish",no,2025-07-23_08h52.14.142,empathy_intonation_perc,2024.2.4,MacIntel,60.24096386,675c98d1c5cd2106ffd74570,687ed1b7e638a4cbf2f02089,6880dac1588816118ed8a384,,,,,,,,,,,,,37,1,,./stim/wavs/mexican_mismatch_interrogative-total-yn_La-maestra-vive-en-Paris.wav,,,,,,,,,,,,,,,,,,,,,,341.4446,343.9114,1,1,1.9494,,0,43,43,36,1,0,mexican,,,,,,,,,,,,,,,,,,,,,,,,,,,,,,,,,,,,,,,,,,,,,,,,,,,,,,,,
,,,,,,,,,675c98d1c5cd2106ffd74570,Spanish,13 or older,"no, only English or Spanish",no,2025-07-23_08h52.14.142,empathy_intonation_perc,2024.2.4,MacIntel,60.24096386,675c98d1c5cd2106ffd74570,687ed1b7e638a4cbf2f02089,6880dac1588816118ed8a384,,,,,,,,,,,,,58,0,,./stim/wavs/mexican_match_declarative-broad-focus_Daniel-iba-a-Bolivia.wav,,,,,,,,,,,,,,,,,,,,,,343.9117,345.8774,0,1,1.4339,,0,44,44,57,1,0,mexican,,,,,,,,,,,,,,,,,,,,,,,,,,,,,,,,,,,,,,,,,,,,,,,,,,,,,,,,
,,,,,,,,,675c98d1c5cd2106ffd74570,Spanish,13 or older,"no, only English or Spanish",no,2025-07-23_08h52.14.142,empathy_intonation_perc,2024.2.4,MacIntel,60.24096386,675c98d1c5cd2106ffd74570,687ed1b7e638a4cbf2f02089,6880dac1588816118ed8a384,,,,,,,,,,,,,69,0,,./stim/wavs/castilian_mismatch_declarative-broad-focus_El-nino-oye-el-rio.wav,,,,,,,,,,,,,,,,,,,,,,345.8777,348.6519,0,1,2.241,,0,45,45,68,1,0,castilian,,,,,,,,,,,,,,,,,,,,,,,,,,,,,,,,,,,,,,,,,,,,,,,,,,,,,,,,
,,,,,,,,,675c98d1c5cd2106ffd74570,Spanish,13 or older,"no, only English or Spanish",no,2025-07-23_08h52.14.142,empathy_intonation_perc,2024.2.4,MacIntel,60.24096386,675c98d1c5cd2106ffd74570,687ed1b7e638a4cbf2f02089,6880dac1588816118ed8a384,,,,,,,,,,,,,67,0,,./stim/wavs/puertorican_match_declarative-broad-focus_Manuela-vende-el-carro.wav,,,,,,,,,,,,,,,,,,,,,,348.6522,351.0762,0,1,1.899,,0,46,46,66,1,0,puertorican,,,,,,,,,,,,,,,,,,,,,,,,,,,,,,,,,,,,,,,,,,,,,,,,,,,,,,,,
,,,,,,,,,675c98d1c5cd2106ffd74570,Spanish,13 or older,"no, only English or Spanish",no,2025-07-23_08h52.14.142,empathy_intonation_perc,2024.2.4,MacIntel,60.24096386,675c98d1c5cd2106ffd74570,687ed1b7e638a4cbf2f02089,6880dac1588816118ed8a384,,,,,,,,,,,,,5,1,,./stim/wavs/castilian_match_interrogative-total-yn_Mariano-habla-del-tiempo.wav,,,,,,,,,,,,,,,,,,,,,,351.0766,353.6353,1,1,2.0275,,0,47,47,4,1,0,castilian,,,,,,,,,,,,,,,,,,,,,,,,,,,,,,,,,,,,,,,,,,,,,,,,,,,,,,,,
,,,,,,,,,675c98d1c5cd2106ffd74570,Spanish,13 or older,"no, only English or Spanish",no,2025-07-23_08h52.14.142,empathy_intonation_perc,2024.2.4,MacIntel,60.24096386,675c98d1c5cd2106ffd74570,687ed1b7e638a4cbf2f02089,6880dac1588816118ed8a384,,,,,,,,,,,,,3,1,,./stim/wavs/castilian_match_interrogative-total-yn_Manuela-vende-el-carro.wav,,,,,,,,,,,,,,,,,,,,,,353.6357,356.3126,1,1,2.1535,,0,48,48,2,1,0,castilian,,,,,,,,,,,,,,,,,,,,,,,,,,,,,,,,,,,,,,,,,,,,,,,,,,,,,,,,
,,,,,,,,,675c98d1c5cd2106ffd74570,Spanish,13 or older,"no, only English or Spanish",no,2025-07-23_08h52.14.142,empathy_intonation_perc,2024.2.4,MacIntel,60.24096386,675c98d1c5cd2106ffd74570,687ed1b7e638a4cbf2f02089,6880dac1588816118ed8a384,,,,,,,,,,,,,56,0,,./stim/wavs/cuban_match_declarative-broad-focus_Marta-abre-el-regalo.wav,,,,,,,,,,,,,,,,,,,,,,356.3129,359.2547,0,1,2.4098,,0,49,49,55,1,0,cuban,,,,,,,,,,,,,,,,,,,,,,,,,,,,,,,,,,,,,,,,,,,,,,,,,,,,,,,,
,,,,,,,,,675c98d1c5cd2106ffd74570,Spanish,13 or older,"no, only English or Spanish",no,2025-07-23_08h52.14.142,empathy_intonation_perc,2024.2.4,MacIntel,60.24096386,675c98d1c5cd2106ffd74570,687ed1b7e638a4cbf2f02089,6880dac1588816118ed8a384,,,,,,,,,,,,,1,1,,./stim/wavs/castilian_match_interrogative-total-yn_David-leia-el-libro.wav,,,,,,,,,,,,,,,,,,,,,,359.255,362.3684,0,0,2.5773,,0,50,50,0,1,0,castilian,,,,,,,,,,,,,,,,,,,,,,,,,,,,,,,,,,,,,,,,,,,,,,,,,,,,,,,,
,,,,,,,,,675c98d1c5cd2106ffd74570,Spanish,13 or older,"no, only English or Spanish",no,2025-07-23_08h52.14.142,empathy_intonation_perc,2024.2.4,MacIntel,60.24096386,675c98d1c5cd2106ffd74570,687ed1b7e638a4cbf2f02089,6880dac1588816118ed8a384,,,,,,,,,,,,,22,1,,./stim/wavs/puertorican_match_interrogative-total-yn_Emilio-ama-la-marcha.wav,,,,,,,,,,,,,,,,,,,,,,362.3687,365.4919,0,0,2.5983,,0,51,51,21,1,1,puertorican,,,,,,,,,,,,,,,,,,,,,,,,,,,,,,,,,,,,,,,,,,,,,,,,,,,,,,,,
,,,,,,,,,675c98d1c5cd2106ffd74570,Spanish,13 or older,"no, only English or Spanish",no,2025-07-23_08h52.14.142,empathy_intonation_perc,2024.2.4,MacIntel,60.24096386,675c98d1c5cd2106ffd74570,687ed1b7e638a4cbf2f02089,6880dac1588816118ed8a384,,,,,,,,,,,,,41,1,,./stim/wavs/puertorican_mismatch_interrogative-total-yn_El-nino-oye-el-rio.wav,,,,,,,,,,,,,,,,,,,,,,365.4923,367.7424,0,0,1.7315,0.0001,0,52,52,40,1,1,puertorican,,,,,,,,,,,,,,,,,,,,,,,,,,,,,,,,,,,,,,,,,,,,,,,,,,,,,,,,
,,,,,,,,,675c98d1c5cd2106ffd74570,Spanish,13 or older,"no, only English or Spanish",no,2025-07-23_08h52.14.142,empathy_intonation_perc,2024.2.4,MacIntel,60.24096386,675c98d1c5cd2106ffd74570,687ed1b7e638a4cbf2f02089,6880dac1588816118ed8a384,,,,,,,,,,,,,51,0,,./stim/wavs/cuban_match_declarative-broad-focus_Ana-lleva-el-abrigo.wav,,,,,,,,,,,,,,,,,,,,,,367.7427,370.0271,0,1,1.7665,,0,53,53,50,1,0,cuban,,,,,,,,,,,,,,,,,,,,,,,,,,,,,,,,,,,,,,,,,,,,,,,,,,,,,,,,
,,,,,,,,,675c98d1c5cd2106ffd74570,Spanish,13 or older,"no, only English or Spanish",no,2025-07-23_08h52.14.142,empathy_intonation_perc,2024.2.4,MacIntel,60.24096386,675c98d1c5cd2106ffd74570,687ed1b7e638a4cbf2f02089,6880dac1588816118ed8a384,,,,,,,,,,,,,86,0,,./stim/wavs/puertorican_mismatch_declarative-broad-focus_El-nino-oye-el-rio.wav,,,,,,,,,,,,,,,,,,,,,,370.0275,371.9794,0,1,1.4198,,0,54,54,85,1,0,puertorican,,,,,,,,,,,,,,,,,,,,,,,,,,,,,,,,,,,,,,,,,,,,,,,,,,,,,,,,
,,,,,,,,,675c98d1c5cd2106ffd74570,Spanish,13 or older,"no, only English or Spanish",no,2025-07-23_08h52.14.142,empathy_intonation_perc,2024.2.4,MacIntel,60.24096386,675c98d1c5cd2106ffd74570,687ed1b7e638a4cbf2f02089,6880dac1588816118ed8a384,,,,,,,,,,,,,18,1,,./stim/wavs/mexican_match_interrogative-total-yn_Marta-abre-el-regalo.wav,,,,,,,,,,,,,,,,,,,,,,371.9798,373.9915,1,1,1.4787,,0,55,55,17,1,0,mexican,,,,,,,,,,,,,,,,,,,,,,,,,,,,,,,,,,,,,,,,,,,,,,,,,,,,,,,,
,,,,,,,,,675c98d1c5cd2106ffd74570,Spanish,13 or older,"no, only English or Spanish",no,2025-07-23_08h52.14.142,empathy_intonation_perc,2024.2.4,MacIntel,60.24096386,675c98d1c5cd2106ffd74570,687ed1b7e638a4cbf2f02089,6880dac1588816118ed8a384,,,,,,,,,,,,,27,1,,./stim/wavs/castilian_mismatch_interrogative-total-yn_Mi-madre-come-la-fruta.wav,,,,,,,,,,,,,,,,,,,,,,373.9918,376.3102,1,1,1.7911,,0,56,56,26,1,0,castilian,,,,,,,,,,,,,,,,,,,,,,,,,,,,,,,,,,,,,,,,,,,,,,,,,,,,,,,,
,,,,,,,,,675c98d1c5cd2106ffd74570,Spanish,13 or older,"no, only English or Spanish",no,2025-07-23_08h52.14.142,empathy_intonation_perc,2024.2.4,MacIntel,60.24096386,675c98d1c5cd2106ffd74570,687ed1b7e638a4cbf2f02089,6880dac1588816118ed8a384,,,,,,,,,,,,,40,1,,./stim/wavs/puertorican_mismatch_interrogative-total-yn_El-hombre-mira-la-luna.wav,,,,,,,,,,,,,,,,,,,,,,376.3107,378.3116,1,1,1.4673,,0,57,57,39,1,1,puertorican,,,,,,,,,,,,,,,,,,,,,,,,,,,,,,,,,,,,,,,,,,,,,,,,,,,,,,,,
,,,,,,,,,675c98d1c5cd2106ffd74570,Spanish,13 or older,"no, only English or Spanish",no,2025-07-23_08h52.14.142,empathy_intonation_perc,2024.2.4,MacIntel,60.24096386,675c98d1c5cd2106ffd74570,687ed1b7e638a4cbf2f02089,6880dac1588816118ed8a384,,,,,,,,,,,,,84,0,,./stim/wavs/puertorican_mismatch_declarative-broad-focus_El-bebe-comia-muy-bien.wav,,,,,,,,,,,,,,,,,,,,,,378.3119,380.345,0,1,1.5002,,0,58,58,83,1,0,puertorican,,,,,,,,,,,,,,,,,,,,,,,,,,,,,,,,,,,,,,,,,,,,,,,,,,,,,,,,
,,,,,,,,,675c98d1c5cd2106ffd74570,Spanish,13 or older,"no, only English or Spanish",no,2025-07-23_08h52.14.142,empathy_intonation_perc,2024.2.4,MacIntel,60.24096386,675c98d1c5cd2106ffd74570,687ed1b7e638a4cbf2f02089,6880dac1588816118ed8a384,,,,,,,,,,,,,14,1,,./stim/wavs/mexican_match_interrogative-total-yn_Daniel-iba-a-Bolivia.wav,,,,,,,,,,,,,,,,,,,,,,380.3452,383.2182,1,1,2.3393,,0,59,59,13,1,0,mexican,,,,,,,,,,,,,,,,,,,,,,,,,,,,,,,,,,,,,,,,,,,,,,,,,,,,,,,,
,,,,,,,,,675c98d1c5cd2106ffd74570,Spanish,13 or older,"no, only English or Spanish",no,2025-07-23_08h52.14.142,empathy_intonation_perc,2024.2.4,MacIntel,60.24096386,675c98d1c5cd2106ffd74570,687ed1b7e638a4cbf2f02089,6880dac1588816118ed8a384,,,,,,,,,,,,,65,0,,./stim/wavs/puertorican_match_declarative-broad-focus_David-leia-el-libro.wav,,,,,,,,,,,,,,,,,,,,,,383.2185,385.584,0,1,1.8433,,0,60,60,64,1,0,puertorican,,,,,,,,,,,,,,,,,,,,,,,,,,,,,,,,,,,,,,,,,,,,,,,,,,,,,,,,
,,,,,,,,,675c98d1c5cd2106ffd74570,Spanish,13 or older,"no, only English or Spanish",no,2025-07-23_08h52.14.142,empathy_intonation_perc,2024.2.4,MacIntel,60.24096386,675c98d1c5cd2106ffd74570,687ed1b7e638a4cbf2f02089,6880dac1588816118ed8a384,,,,,,,,,,,,,38,1,,./stim/wavs/mexican_mismatch_interrogative-total-yn_Mi-novio-viene-del-lago.wav,,,,,,,,,,,,,,,,,,,,,,385.5844,387.8026,1,1,1.6939,,0,61,61,37,1,0,mexican,,,,,,,,,,,,,,,,,,,,,,,,,,,,,,,,,,,,,,,,,,,,,,,,,,,,,,,,
,,,,,,,,,675c98d1c5cd2106ffd74570,Spanish,13 or older,"no, only English or Spanish",no,2025-07-23_08h52.14.142,empathy_intonation_perc,2024.2.4,MacIntel,60.24096386,675c98d1c5cd2106ffd74570,687ed1b7e638a4cbf2f02089,6880dac1588816118ed8a384,,,,,,,,,,,,,49,0,,./stim/wavs/castilian_match_declarative-broad-focus_Mariano-habla-del-tiempo.wav,,,,,,,,,,,,,,,,,,,,,,387.803,390.2461,0,1,1.9172,,0,62,62,48,1,0,castilian,,,,,,,,,,,,,,,,,,,,,,,,,,,,,,,,,,,,,,,,,,,,,,,,,,,,,,,,
,,,,,,,,,675c98d1c5cd2106ffd74570,Spanish,13 or older,"no, only English or Spanish",no,2025-07-23_08h52.14.142,empathy_intonation_perc,2024.2.4,MacIntel,60.24096386,675c98d1c5cd2106ffd74570,687ed1b7e638a4cbf2f02089,6880dac1588816118ed8a384,,,,,,,,,,,,,54,0,,./stim/wavs/cuban_match_declarative-broad-focus_Maria-bebe-el-vino.wav,,,,,,,,,,,,,,,,,,,,,,390.2465,392.2683,0,1,1.492,,0,63,63,53,1,0,cuban,,,,,,,,,,,,,,,,,,,,,,,,,,,,,,,,,,,,,,,,,,,,,,,,,,,,,,,,
,,,,,,,,,675c98d1c5cd2106ffd74570,Spanish,13 or older,"no, only English or Spanish",no,2025-07-23_08h52.14.142,empathy_intonation_perc,2024.2.4,MacIntel,60.24096386,675c98d1c5cd2106ffd74570,687ed1b7e638a4cbf2f02089,6880dac1588816118ed8a384,,,,,,,,,,,,,68,0,,./stim/wavs/puertorican_match_declarative-broad-focus_Maria-bebe-el-vino.wav,,,,,,,,,,,,,,,,,,,,,,392.2686,394.961,1,0,2.1668,,0,64,64,67,1,0,puertorican,,,,,,,,,,,,,,,,,,,,,,,,,,,,,,,,,,,,,,,,,,,,,,,,,,,,,,,,
,,,,,,,,,675c98d1c5cd2106ffd74570,Spanish,13 or older,"no, only English or Spanish",no,2025-07-23_08h52.14.142,empathy_intonation_perc,2024.2.4,MacIntel,60.24096386,675c98d1c5cd2106ffd74570,687ed1b7e638a4cbf2f02089,6880dac1588816118ed8a384,,,,,,,,,,,,,21,1,,./stim/wavs/puertorican_match_interrogative-total-yn_David-leia-el-libro.wav,,,,,,,,,,,,,,,,,,,,,,394.9613,396.963,0,0,1.4705,,0,65,65,20,1,1,puertorican,,,,,,,,,,,,,,,,,,,,,,,,,,,,,,,,,,,,,,,,,,,,,,,,,,,,,,,,
,,,,,,,,,675c98d1c5cd2106ffd74570,Spanish,13 or older,"no, only English or Spanish",no,2025-07-23_08h52.14.142,empathy_intonation_perc,2024.2.4,MacIntel,60.24096386,675c98d1c5cd2106ffd74570,687ed1b7e638a4cbf2f02089,6880dac1588816118ed8a384,,,,,,,,,,,,,17,1,,./stim/wavs/mexican_match_interrogative-total-yn_Mariano-habla-del-tiempo.wav,,,,,,,,,,,,,,,,,,,,,,396.9633,399.3453,1,1,1.8503,,0,66,66,16,1,0,mexican,,,,,,,,,,,,,,,,,,,,,,,,,,,,,,,,,,,,,,,,,,,,,,,,,,,,,,,,
,,,,,,,,,675c98d1c5cd2106ffd74570,Spanish,13 or older,"no, only English or Spanish",no,2025-07-23_08h52.14.142,empathy_intonation_perc,2024.2.4,MacIntel,60.24096386,675c98d1c5cd2106ffd74570,687ed1b7e638a4cbf2f02089,6880dac1588816118ed8a384,,,,,,,,,,,,,73,0,,./stim/wavs/castilian_mismatch_declarative-broad-focus_Mi-tia-odia-la-lluvia.wav,,,,,,,,,,,,,,,,,,,,,,399.3457,401.56,0,1,1.6823,,0,67,67,72,1,0,castilian,,,,,,,,,,,,,,,,,,,,,,,,,,,,,,,,,,,,,,,,,,,,,,,,,,,,,,,,
,,,,,,,,,675c98d1c5cd2106ffd74570,Spanish,13 or older,"no, only English or Spanish",no,2025-07-23_08h52.14.142,empathy_intonation_perc,2024.2.4,MacIntel,60.24096386,675c98d1c5cd2106ffd74570,687ed1b7e638a4cbf2f02089,6880dac1588816118ed8a384,,,,,,,,,,,,,82,0,,./stim/wavs/mexican_mismatch_declarative-broad-focus_Mi-novio-viene-del-lago.wav,,,,,,,,,,,,,,,,,,,,,,401.5603,403.6542,0,1,1.5754,,0,68,68,81,1,0,mexican,,,,,,,,,,,,,,,,,,,,,,,,,,,,,,,,,,,,,,,,,,,,,,,,,,,,,,,,
,,,,,,,,,675c98d1c5cd2106ffd74570,Spanish,13 or older,"no, only English or Spanish",no,2025-07-23_08h52.14.142,empathy_intonation_perc,2024.2.4,MacIntel,60.24096386,675c98d1c5cd2106ffd74570,687ed1b7e638a4cbf2f02089,6880dac1588816118ed8a384,,,,,,,,,,,,,9,1,,./stim/wavs/cuban_match_interrogative-total-yn_Manuela-vende-el-carro.wav,,,,,,,,,,,,,,,,,,,,,,403.6545,405.7021,0,0,1.5247,9.99999E-05,0,69,69,8,1,1,cuban,,,,,,,,,,,,,,,,,,,,,,,,,,,,,,,,,,,,,,,,,,,,,,,,,,,,,,,,
,,,,,,,,,675c98d1c5cd2106ffd74570,Spanish,13 or older,"no, only English or Spanish",no,2025-07-23_08h52.14.142,empathy_intonation_perc,2024.2.4,MacIntel,60.24096386,675c98d1c5cd2106ffd74570,687ed1b7e638a4cbf2f02089,6880dac1588816118ed8a384,,,,,,,,,,,,,87,0,,./stim/wavs/puertorican_mismatch_declarative-broad-focus_La-maestra-vive-en-Paris.wav,,,,,,,,,,,,,,,,,,,,,,405.7025,408.376,0,1,2.1489,,0,70,70,86,1,0,puertorican,,,,,,,,,,,,,,,,,,,,,,,,,,,,,,,,,,,,,,,,,,,,,,,,,,,,,,,,
,,,,,,,,,675c98d1c5cd2106ffd74570,Spanish,13 or older,"no, only English or Spanish",no,2025-07-23_08h52.14.142,empathy_intonation_perc,2024.2.4,MacIntel,60.24096386,675c98d1c5cd2106ffd74570,687ed1b7e638a4cbf2f02089,6880dac1588816118ed8a384,,,,,,,,,,,,,34,1,,./stim/wavs/cuban_mismatch_interrogative-total-yn_Mi-tia-odia-la-lluvia.wav,,,,,,,,,,,,,,,,,,,,,,408.3763,411.0111,0,0,2.0998,,0,71,71,33,1,1,cuban,,,,,,,,,,,,,,,,,,,,,,,,,,,,,,,,,,,,,,,,,,,,,,,,,,,,,,,,
,,,,,,,,,675c98d1c5cd2106ffd74570,Spanish,13 or older,"no, only English or Spanish",no,2025-07-23_08h52.14.142,empathy_intonation_perc,2024.2.4,MacIntel,60.24096386,675c98d1c5cd2106ffd74570,687ed1b7e638a4cbf2f02089,6880dac1588816118ed8a384,,,,,,,,,,,,,39,1,,./stim/wavs/mexican_mismatch_interrogative-total-yn_Mi-tia-odia-la-lluvia.wav,,,,,,,,,,,,,,,,,,,,,,411.0115,413.9797,1,1,2.4497,,0,72,72,38,1,0,mexican,,,,,,,,,,,,,,,,,,,,,,,,,,,,,,,,,,,,,,,,,,,,,,,,,,,,,,,,
,,,,,,,,,675c98d1c5cd2106ffd74570,Spanish,13 or older,"no, only English or Spanish",no,2025-07-23_08h52.14.142,empathy_intonation_perc,2024.2.4,MacIntel,60.24096386,675c98d1c5cd2106ffd74570,687ed1b7e638a4cbf2f02089,6880dac1588816118ed8a384,,,,,,,,,,,,,72,0,,./stim/wavs/castilian_mismatch_declarative-broad-focus_Mi-novio-viene-del-lago.wav,,,,,,,,,,,,,,,,,,,,,,413.9801,417.4758,0,1,2.9633,,0,73,73,71,1,0,castilian,,,,,,,,,,,,,,,,,,,,,,,,,,,,,,,,,,,,,,,,,,,,,,,,,,,,,,,,
,,,,,,,,,675c98d1c5cd2106ffd74570,Spanish,13 or older,"no, only English or Spanish",no,2025-07-23_08h52.14.142,empathy_intonation_perc,2024.2.4,MacIntel,60.24096386,675c98d1c5cd2106ffd74570,687ed1b7e638a4cbf2f02089,6880dac1588816118ed8a384,,,,,,,,,,,,,83,0,,./stim/wavs/mexican_mismatch_declarative-broad-focus_Mi-tia-odia-la-lluvia.wav,,,,,,,,,,,,,,,,,,,,,,417.4762,419.5467,0,1,1.5391,,0,74,74,82,1,0,mexican,,,,,,,,,,,,,,,,,,,,,,,,,,,,,,,,,,,,,,,,,,,,,,,,,,,,,,,,
,,,,,,,,,675c98d1c5cd2106ffd74570,Spanish,13 or older,"no, only English or Spanish",no,2025-07-23_08h52.14.142,empathy_intonation_perc,2024.2.4,MacIntel,60.24096386,675c98d1c5cd2106ffd74570,687ed1b7e638a4cbf2f02089,6880dac1588816118ed8a384,,,,,,,,,,,,,23,1,,./stim/wavs/puertorican_match_interrogative-total-yn_Manuela-vende-el-carro.wav,,,,,,,,,,,,,,,,,,,,,,419.5471,421.8797,0,0,1.8033,,0,75,75,22,1,1,puertorican,,,,,,,,,,,,,,,,,,,,,,,,,,,,,,,,,,,,,,,,,,,,,,,,,,,,,,,,
,,,,,,,,,675c98d1c5cd2106ffd74570,Spanish,13 or older,"no, only English or Spanish",no,2025-07-23_08h52.14.142,empathy_intonation_perc,2024.2.4,MacIntel,60.24096386,675c98d1c5cd2106ffd74570,687ed1b7e638a4cbf2f02089,6880dac1588816118ed8a384,,,,,,,,,,,,,53,0,,./stim/wavs/cuban_match_declarative-broad-focus_Manuela-vende-el-carro.wav,,,,,,,,,,,,,,,,,,,,,,421.88,424.2787,0,1,1.8678,,0,76,76,52,1,0,cuban,,,,,,,,,,,,,,,,,,,,,,,,,,,,,,,,,,,,,,,,,,,,,,,,,,,,,,,,
,,,,,,,,,675c98d1c5cd2106ffd74570,Spanish,13 or older,"no, only English or Spanish",no,2025-07-23_08h52.14.142,empathy_intonation_perc,2024.2.4,MacIntel,60.24096386,675c98d1c5cd2106ffd74570,687ed1b7e638a4cbf2f02089,6880dac1588816118ed8a384,,,,,,,,,,,,,70,0,,./stim/wavs/castilian_mismatch_declarative-broad-focus_La-maestra-vive-en-Paris.wav,,,,,,,,,,,,,,,,,,,,,,424.2789,426.6397,0,1,1.831,,0,77,77,69,1,0,castilian,,,,,,,,,,,,,,,,,,,,,,,,,,,,,,,,,,,,,,,,,,,,,,,,,,,,,,,,
,,,,,,,,,675c98d1c5cd2106ffd74570,Spanish,13 or older,"no, only English or Spanish",no,2025-07-23_08h52.14.142,empathy_intonation_perc,2024.2.4,MacIntel,60.24096386,675c98d1c5cd2106ffd74570,687ed1b7e638a4cbf2f02089,6880dac1588816118ed8a384,,,,,,,,,,,,,88,0,,./stim/wavs/puertorican_mismatch_declarative-broad-focus_La-nina-lava-el-plato.wav,,,,,,,,,,,,,,,,,,,,,,426.6401,428.895,0,1,1.7322,0.0001,0,78,78,87,1,0,puertorican,,,,,,,,,,,,,,,,,,,,,,,,,,,,,,,,,,,,,,,,,,,,,,,,,,,,,,,,
,,,,,,,,,675c98d1c5cd2106ffd74570,Spanish,13 or older,"no, only English or Spanish",no,2025-07-23_08h52.14.142,empathy_intonation_perc,2024.2.4,MacIntel,60.24096386,675c98d1c5cd2106ffd74570,687ed1b7e638a4cbf2f02089,6880dac1588816118ed8a384,,,,,,,,,,,,,20,1,,./stim/wavs/puertorican_match_interrogative-total-yn_Daniel-iba-a-Bolivia.wav,,,,,,,,,,,,,,,,,,,,,,428.8953,432.512,1,1,3.0851,,0,79,79,19,1,1,puertorican,,,,,,,,,,,,,,,,,,,,,,,,,,,,,,,,,,,,,,,,,,,,,,,,,,,,,,,,
,,,,,,,,,675c98d1c5cd2106ffd74570,Spanish,13 or older,"no, only English or Spanish",no,2025-07-23_08h52.14.142,empathy_intonation_perc,2024.2.4,MacIntel,60.24096386,675c98d1c5cd2106ffd74570,687ed1b7e638a4cbf2f02089,6880dac1588816118ed8a384,,,,,,,,,,,,,4,1,,./stim/wavs/castilian_match_interrogative-total-yn_Maria-bebe-el-vino.wav,,,,,,,,,,,,,,,,,,,,,,432.5123,434.6096,1,1,1.5674,,0,80,80,3,1,0,castilian,,,,,,,,,,,,,,,,,,,,,,,,,,,,,,,,,,,,,,,,,,,,,,,,,,,,,,,,
,,,,,,,,,675c98d1c5cd2106ffd74570,Spanish,13 or older,"no, only English or Spanish",no,2025-07-23_08h52.14.142,empathy_intonation_perc,2024.2.4,MacIntel,60.24096386,675c98d1c5cd2106ffd74570,687ed1b7e638a4cbf2f02089,6880dac1588816118ed8a384,,,,,,,,,,,,,29,1,,./stim/wavs/castilian_mismatch_interrogative-total-yn_Mi-tia-odia-la-lluvia.wav,,,,,,,,,,,,,,,,,,,,,,434.61,436.6776,1,1,1.5502,,0,81,81,28,1,0,castilian,,,,,,,,,,,,,,,,,,,,,,,,,,,,,,,,,,,,,,,,,,,,,,,,,,,,,,,,
,,,,,,,,,675c98d1c5cd2106ffd74570,Spanish,13 or older,"no, only English or Spanish",no,2025-07-23_08h52.14.142,empathy_intonation_perc,2024.2.4,MacIntel,60.24096386,675c98d1c5cd2106ffd74570,687ed1b7e638a4cbf2f02089,6880dac1588816118ed8a384,,,,,,,,,,,,,66,0,,./stim/wavs/puertorican_match_declarative-broad-focus_Emilio-ama-la-marcha.wav,,,,,,,,,,,,,,,,,,,,,,436.6779,438.6596,0,1,1.4635,,0,82,82,65,1,0,puertorican,,,,,,,,,,,,,,,,,,,,,,,,,,,,,,,,,,,,,,,,,,,,,,,,,,,,,,,,
,,,,,,,,,675c98d1c5cd2106ffd74570,Spanish,13 or older,"no, only English or Spanish",no,2025-07-23_08h52.14.142,empathy_intonation_perc,2024.2.4,MacIntel,60.24096386,675c98d1c5cd2106ffd74570,687ed1b7e638a4cbf2f02089,6880dac1588816118ed8a384,,,,,,,,,,,,,44,1,,./stim/wavs/puertorican_mismatch_interrogative-total-yn_Mi-madre-come-la-fruta.wav,,,,,,,,,,,,,,,,,,,,,,438.6599,440.9027,0,0,1.7085,,0,83,83,43,1,1,puertorican,,,,,,,,,,,,,,,,,,,,,,,,,,,,,,,,,,,,,,,,,,,,,,,,,,,,,,,,
,,,,,,,,,675c98d1c5cd2106ffd74570,Spanish,13 or older,"no, only English or Spanish",no,2025-07-23_08h52.14.142,empathy_intonation_perc,2024.2.4,MacIntel,60.24096386,675c98d1c5cd2106ffd74570,687ed1b7e638a4cbf2f02089,6880dac1588816118ed8a384,,,,,,,,,,,,,6,1,,./stim/wavs/castilian_match_interrogative-total-yn_Marta-abre-el-regalo.wav,,,,,,,,,,,,,,,,,,,,,,440.9031,443.1094,1,1,1.6799,,0,84,84,5,1,0,castilian,,,,,,,,,,,,,,,,,,,,,,,,,,,,,,,,,,,,,,,,,,,,,,,,,,,,,,,,
,,,,,,,,,675c98d1c5cd2106ffd74570,Spanish,13 or older,"no, only English or Spanish",no,2025-07-23_08h52.14.142,empathy_intonation_perc,2024.2.4,MacIntel,60.24096386,675c98d1c5cd2106ffd74570,687ed1b7e638a4cbf2f02089,6880dac1588816118ed8a384,,,,,,,,,,,,,42,1,,./stim/wavs/puertorican_mismatch_interrogative-total-yn_La-maestra-vive-en-Paris.wav,,,,,,,,,,,,,,,,,,,,,,443.1098,445.558,0,0,1.9305,,0,85,85,41,1,1,puertorican,,,,,,,,,,,,,,,,,,,,,,,,,,,,,,,,,,,,,,,,,,,,,,,,,,,,,,,,
,,,,,,,,,675c98d1c5cd2106ffd74570,Spanish,13 or older,"no, only English or Spanish",no,2025-07-23_08h52.14.142,empathy_intonation_perc,2024.2.4,MacIntel,60.24096386,675c98d1c5cd2106ffd74570,687ed1b7e638a4cbf2f02089,6880dac1588816118ed8a384,,,,,,,,,,,,,12,1,,./stim/wavs/cuban_match_interrogative-total-yn_Marta-abre-el-regalo.wav,,,,,,,,,,,,,,,,,,,,,,445.5584,447.695,0,0,1.6152,,0,86,86,11,1,1,cuban,,,,,,,,,,,,,,,,,,,,,,,,,,,,,,,,,,,,,,,,,,,,,,,,,,,,,,,,
,,,,,,,,,675c98d1c5cd2106ffd74570,Spanish,13 or older,"no, only English or Spanish",no,2025-07-23_08h52.14.142,empathy_intonation_perc,2024.2.4,MacIntel,60.24096386,675c98d1c5cd2106ffd74570,687ed1b7e638a4cbf2f02089,6880dac1588816118ed8a384,,,,,,,,,,,,,74,0,,./stim/wavs/cuban_mismatch_declarative-broad-focus_El-bebe-comia-muy-bien.wav,,,,,,,,,,,,,,,,,,,,,,447.6954,449.6301,0,1,1.4029,,0,87,87,73,1,0,cuban,,,,,,,,,,,,,,,,,,,,,,,,,,,,,,,,,,,,,,,,,,,,,,,,,,,,,,,,
,,,,,,,"Great! Now we will move on. The next task consists of about 60 trials, in each of which you will see a string of letters. 
  
  Your task is to decide whether this is a real Spanish word or not.", (press the spacebar to continue),675c98d1c5cd2106ffd74570,Spanish,13 or older,"no, only English or Spanish",no,2025-07-23_08h52.14.142,empathy_intonation_perc,2024.2.4,MacIntel,60.24096386,675c98d1c5cd2106ffd74570,687ed1b7e638a4cbf2f02089,6880dac1588816118ed8a384,,,,,,,,,,,,,,,,,,,,,,,,,,,,,,,,,,,,,,,,,,,,,,,,,,,449.635,532.253,0,0,0,0,1,,,,,,,,,,,,,,,,,,,,,,,,,,,,,,,,,,,,,,,,,,,,,,,,,
,,,,,,,"If you think it is an existing Spanish word, you type '1' (for 'REAL'), and if you think it is not an existing Spanish word, you type '0' (for 'FAKE').", (press the spacebar to continue),675c98d1c5cd2106ffd74570,Spanish,13 or older,"no, only English or Spanish",no,2025-07-23_08h52.14.142,empathy_intonation_perc,2024.2.4,MacIntel,60.24096386,675c98d1c5cd2106ffd74570,687ed1b7e638a4cbf2f02089,6880dac1588816118ed8a384,,,,,,,,,,,,,,,,,,,,,,,,,,,,,,,,,,,,,,,,,,,,,,,,,,,532.254,589.0522,0,1,1,1,1,,,,,,,,,,,,,,,,,,,,,,,,,,,,,,,,,,,,,,,,,,,,,,,,,
,,,,,,,"If you are sure that the word exists, even though you don’t know its exact meaning, you may still respond '1' (REAL). 
  
  But if you are not sure if it is an existing word, you should respond '0' (FAKE).
  
  Let's do a practice round...", (press the spacebar to continue),675c98d1c5cd2106ffd74570,Spanish,13 or older,"no, only English or Spanish",no,2025-07-23_08h52.14.142,empathy_intonation_perc,2024.2.4,MacIntel,60.24096386,675c98d1c5cd2106ffd74570,687ed1b7e638a4cbf2f02089,6880dac1588816118ed8a384,,,,,,,,,,,,,,,,,,,,,,,,,,,,,,,,,,,,,,,,,,,,,,,,,,,589.0534,593.3473,0,2,2,2,1,,,,,,,,,,,,,,,,,,,,,,,,,,,,,,,,,,,,,,,,,,,,,,,,,
,,,,,,,,,675c98d1c5cd2106ffd74570,Spanish,13 or older,"no, only English or Spanish",no,2025-07-23_08h52.14.142,empathy_intonation_perc,2024.2.4,MacIntel,60.24096386,675c98d1c5cd2106ffd74570,687ed1b7e638a4cbf2f02089,6880dac1588816118ed8a384,,,,,,,,,,,,,,0,,,,,,,,,,,,,,,,,,,,,,,,,,,,,,,,,,,,,,,,,,,,593.3515,596.2699,0,1,2.3748,,596.2701,597.262,0,0,0,0,1,0,depiste,REAL,FAKE,,,,,,,,,,,,,,,,,,,,,,,,,,,,,,,,
,,,,,,,,,675c98d1c5cd2106ffd74570,Spanish,13 or older,"no, only English or Spanish",no,2025-07-23_08h52.14.142,empathy_intonation_perc,2024.2.4,MacIntel,60.24096386,675c98d1c5cd2106ffd74570,687ed1b7e638a4cbf2f02089,6880dac1588816118ed8a384,,,,,,,,,,,,,,1,,,,,,,,,,,,,,,,,,,,,,,,,,,,,,,,,,,,,,,,,,,,597.2629,598.9636,1,1,1.152,,598.9637,599.9594,0,1,1,1,1,0,sí,REAL,FAKE,,,,,,,,,,,,,,,,,,,,,,,,,,,,,,,,
,,,,,,,,,675c98d1c5cd2106ffd74570,Spanish,13 or older,"no, only English or Spanish",no,2025-07-23_08h52.14.142,empathy_intonation_perc,2024.2.4,MacIntel,60.24096386,675c98d1c5cd2106ffd74570,687ed1b7e638a4cbf2f02089,6880dac1588816118ed8a384,,,,,,,,,,,,,,0,,,,,,,,,,,,,,,,,,,,,,,,,,,,,,,,,,,,,,,,,,,,599.9601,602.3199,0,1,1.8255,,602.3199,603.3206,0,2,2,2,1,0,coné,REAL,FAKE,,,,,,,,,,,,,,,,,,,,,,,,,,,,,,,,
,,,,,,,,,675c98d1c5cd2106ffd74570,Spanish,13 or older,"no, only English or Spanish",no,2025-07-23_08h52.14.142,empathy_intonation_perc,2024.2.4,MacIntel,60.24096386,675c98d1c5cd2106ffd74570,687ed1b7e638a4cbf2f02089,6880dac1588816118ed8a384,,,,,,,,,,,,,,0,,,,,,,,,,,,,,,,,,,,,,,,,,,,,,,,,,,,,,,,,,,,603.3211,604.9534,0,1,1.1005,,604.9535,605.947,0,3,3,3,1,0,calpar,REAL,FAKE,,,,,,,,,,,,,,,,,,,,,,,,,,,,,,,,
,,,,,,,,,675c98d1c5cd2106ffd74570,Spanish,13 or older,"no, only English or Spanish",no,2025-07-23_08h52.14.142,empathy_intonation_perc,2024.2.4,MacIntel,60.24096386,675c98d1c5cd2106ffd74570,687ed1b7e638a4cbf2f02089,6880dac1588816118ed8a384,,,,,,,,,,,,,,0,,,,,,,,,,,,,,,,,,,,,,,,,,,,,,,,,,,,,,,,,,,,605.9476,607.5797,0,1,1.0847,,607.5797,608.576,0,4,4,4,1,0,joten,REAL,FAKE,,,,,,,,,,,,,,,,,,,,,,,,,,,,,,,,
,,,,,,,,,675c98d1c5cd2106ffd74570,Spanish,13 or older,"no, only English or Spanish",no,2025-07-23_08h52.14.142,empathy_intonation_perc,2024.2.4,MacIntel,60.24096386,675c98d1c5cd2106ffd74570,687ed1b7e638a4cbf2f02089,6880dac1588816118ed8a384,,,,,,,,,,,,,,1,,,,,,,,,,,,,,,,,,,,,,,,,,,,,,,,,,,,,,,,,,,,608.5766,610.1645,0,0,1.0676,,610.165,611.1639,0,5,5,5,1,0,sacapuntas,REAL,FAKE,,,,,,,,,,,,,,,,,,,,,,,,,,,,,,,,
,,,,,,,,,675c98d1c5cd2106ffd74570,Spanish,13 or older,"no, only English or Spanish",no,2025-07-23_08h52.14.142,empathy_intonation_perc,2024.2.4,MacIntel,60.24096386,675c98d1c5cd2106ffd74570,687ed1b7e638a4cbf2f02089,6880dac1588816118ed8a384,,,,,,,,,,,,,,0,,,,,,,,,,,,,,,,,,,,,,,,,,,,,,,,,,,,,,,,,,,,611.1645,612.714,0,1,1.0114,,612.7144,613.7122,0,6,6,6,1,0,priba,REAL,FAKE,,,,,,,,,,,,,,,,,,,,,,,,,,,,,,,,
,,,,,,,,,675c98d1c5cd2106ffd74570,Spanish,13 or older,"no, only English or Spanish",no,2025-07-23_08h52.14.142,empathy_intonation_perc,2024.2.4,MacIntel,60.24096386,675c98d1c5cd2106ffd74570,687ed1b7e638a4cbf2f02089,6880dac1588816118ed8a384,,,,,,,,,,,,,,0,,,,,,,,,,,,,,,,,,,,,,,,,,,,,,,,,,,,,,,,,,,,613.7128,615.3114,1,0,1.0752,,615.3119,616.3111,0,7,7,7,1,0,pelasula,REAL,FAKE,,,,,,,,,,,,,,,,,,,,,,,,,,,,,,,,
,,,,,,,,,675c98d1c5cd2106ffd74570,Spanish,13 or older,"no, only English or Spanish",no,2025-07-23_08h52.14.142,empathy_intonation_perc,2024.2.4,MacIntel,60.24096386,675c98d1c5cd2106ffd74570,687ed1b7e638a4cbf2f02089,6880dac1588816118ed8a384,,,,,,,,,,,,,,1,,,,,,,,,,,,,,,,,,,,,,,,,,,,,,,,,,,,,,,,,,,,616.3117,617.8139,1,1,0.969,,617.8143,618.8123,0,8,8,8,1,0,bien,REAL,FAKE,,,,,,,,,,,,,,,,,,,,,,,,,,,,,,,,
,,,,,,,,,675c98d1c5cd2106ffd74570,Spanish,13 or older,"no, only English or Spanish",no,2025-07-23_08h52.14.142,empathy_intonation_perc,2024.2.4,MacIntel,60.24096386,675c98d1c5cd2106ffd74570,687ed1b7e638a4cbf2f02089,6880dac1588816118ed8a384,,,,,,,,,,,,,,1,,,,,,,,,,,,,,,,,,,,,,,,,,,,,,,,,,,,,,,,,,,,618.813,620.2137,1,1,0.8517,,620.2137,621.2101,0,9,9,9,1,0,casa,REAL,FAKE,,,,,,,,,,,,,,,,,,,,,,,,,,,,,,,,
,,,,,,,,,675c98d1c5cd2106ffd74570,Spanish,13 or older,"no, only English or Spanish",no,2025-07-23_08h52.14.142,empathy_intonation_perc,2024.2.4,MacIntel,60.24096386,675c98d1c5cd2106ffd74570,687ed1b7e638a4cbf2f02089,6880dac1588816118ed8a384,,,,,,,,,,,,,,0,,,,,,,,,,,,,,,,,,,,,,,,,,,,,,,,,,,,,,,,,,,,621.2107,622.9919,1,0,1.249,,622.9923,623.9805,0,10,10,10,1,0,lejo,REAL,FAKE,,,,,,,,,,,,,,,,,,,,,,,,,,,,,,,,
,,,,,,,,,675c98d1c5cd2106ffd74570,Spanish,13 or older,"no, only English or Spanish",no,2025-07-23_08h52.14.142,empathy_intonation_perc,2024.2.4,MacIntel,60.24096386,675c98d1c5cd2106ffd74570,687ed1b7e638a4cbf2f02089,6880dac1588816118ed8a384,,,,,,,,,,,,,,0,,,,,,,,,,,,,,,,,,,,,,,,,,,,,,,,,,,,,,,,,,,,623.9812,625.7534,1,0,1.2252,,625.7534,626.7467,0,11,11,11,1,0,pretantas,REAL,FAKE,,,,,,,,,,,,,,,,,,,,,,,,,,,,,,,,
,,,,,,,,,675c98d1c5cd2106ffd74570,Spanish,13 or older,"no, only English or Spanish",no,2025-07-23_08h52.14.142,empathy_intonation_perc,2024.2.4,MacIntel,60.24096386,675c98d1c5cd2106ffd74570,687ed1b7e638a4cbf2f02089,6880dac1588816118ed8a384,,,,,,,,,,,,,,,,,,,,,,,,,,,,,,,,,,,,,,,,,,,,,,,,,,,,,,,,,,,,,,,,,,,,,,,,,,,626.7469,759.6055,,,,,,,,,,,,,,,,,,,,,,,,,,,,,,
,,,,,,,,,675c98d1c5cd2106ffd74570,Spanish,13 or older,"no, only English or Spanish",no,2025-07-23_08h52.14.142,empathy_intonation_perc,2024.2.4,MacIntel,60.24096386,675c98d1c5cd2106ffd74570,687ed1b7e638a4cbf2f02089,6880dac1588816118ed8a384,,,,,,,,,,,,,,1,,,,,,,,,,,,,,,,,,,,,,,,,,,,,,,,,,,,,,,,,,,,,,,,,,,,,,,,,64,orgulloso,,,,,759.6135,761.6951,0,0,1.5311,,0,0,0,63,1,REAL,FAKE,,,,,,,,,,,,,,,,,
,,,,,,,,,675c98d1c5cd2106ffd74570,Spanish,13 or older,"no, only English or Spanish",no,2025-07-23_08h52.14.142,empathy_intonation_perc,2024.2.4,MacIntel,60.24096386,675c98d1c5cd2106ffd74570,687ed1b7e638a4cbf2f02089,6880dac1588816118ed8a384,,,,,,,,,,,,,,0,,,,,,,,,,,,,,,,,,,,,,,,,,,,,,,,,,,,,,,,,,,,,,,,,,,,,,,,,27,acutación,,,,,761.6958,763.1805,1,0,0.9348,,0,1,1,26,1,REAL,FAKE,,,,,,,,,,,,,,,,,
,,,,,,,,,675c98d1c5cd2106ffd74570,Spanish,13 or older,"no, only English or Spanish",no,2025-07-23_08h52.14.142,empathy_intonation_perc,2024.2.4,MacIntel,60.24096386,675c98d1c5cd2106ffd74570,687ed1b7e638a4cbf2f02089,6880dac1588816118ed8a384,,,,,,,,,,,,,,1,,,,,,,,,,,,,,,,,,,,,,,,,,,,,,,,,,,,,,,,,,,,,,,,,,,,,,,,,38,estornudar,,,,,763.181,765.0817,1,1,1.3541,,0,2,2,37,1,REAL,FAKE,,,,,,,,,,,,,,,,,
,,,,,,,,,675c98d1c5cd2106ffd74570,Spanish,13 or older,"no, only English or Spanish",no,2025-07-23_08h52.14.142,empathy_intonation_perc,2024.2.4,MacIntel,60.24096386,675c98d1c5cd2106ffd74570,687ed1b7e638a4cbf2f02089,6880dac1588816118ed8a384,,,,,,,,,,,,,,1,,,,,,,,,,,,,,,,,,,,,,,,,,,,,,,,,,,,,,,,,,,,,,,,,,,,,,,,,61,seda,,,,,765.0823,766.513,0,0,0.8918,,0,3,3,60,1,REAL,FAKE,,,,,,,,,,,,,,,,,
,,,,,,,,,675c98d1c5cd2106ffd74570,Spanish,13 or older,"no, only English or Spanish",no,2025-07-23_08h52.14.142,empathy_intonation_perc,2024.2.4,MacIntel,60.24096386,675c98d1c5cd2106ffd74570,687ed1b7e638a4cbf2f02089,6880dac1588816118ed8a384,,,,,,,,,,,,,,1,,,,,,,,,,,,,,,,,,,,,,,,,,,,,,,,,,,,,,,,,,,,,,,,,,,,,,,,,9,hacha,,,,,766.5136,767.8322,0,0,0.7788,,0,4,4,8,1,REAL,FAKE,,,,,,,,,,,,,,,,,
,,,,,,,,,675c98d1c5cd2106ffd74570,Spanish,13 or older,"no, only English or Spanish",no,2025-07-23_08h52.14.142,empathy_intonation_perc,2024.2.4,MacIntel,60.24096386,675c98d1c5cd2106ffd74570,687ed1b7e638a4cbf2f02089,6880dac1588816118ed8a384,,,,,,,,,,,,,,1,,,,,,,,,,,,,,,,,,,,,,,,,,,,,,,,,,,,,,,,,,,,,,,,,,,,,,,,,24,látigo,,,,,767.8329,769.3454,1,1,0.9641,,0,5,5,23,1,REAL,FAKE,,,,,,,,,,,,,,,,,
,,,,,,,,,675c98d1c5cd2106ffd74570,Spanish,13 or older,"no, only English or Spanish",no,2025-07-23_08h52.14.142,empathy_intonation_perc,2024.2.4,MacIntel,60.24096386,675c98d1c5cd2106ffd74570,687ed1b7e638a4cbf2f02089,6880dac1588816118ed8a384,,,,,,,,,,,,,,1,,,,,,,,,,,,,,,,,,,,,,,,,,,,,,,,,,,,,,,,,,,,,,,,,,,,,,,,,45,jilguero,,,,,769.346,770.7619,0,0,0.8864,,0,6,6,44,1,REAL,FAKE,,,,,,,,,,,,,,,,,
,,,,,,,,,675c98d1c5cd2106ffd74570,Spanish,13 or older,"no, only English or Spanish",no,2025-07-23_08h52.14.142,empathy_intonation_perc,2024.2.4,MacIntel,60.24096386,675c98d1c5cd2106ffd74570,687ed1b7e638a4cbf2f02089,6880dac1588816118ed8a384,,,,,,,,,,,,,,1,,,,,,,,,,,,,,,,,,,,,,,,,,,,,,,,,,,,,,,,,,,,,,,,,,,,,,,,,55,nevar,,,,,770.7625,772.3872,0,0,1.0746,,0,7,7,54,1,REAL,FAKE,,,,,,,,,,,,,,,,,
,,,,,,,,,675c98d1c5cd2106ffd74570,Spanish,13 or older,"no, only English or Spanish",no,2025-07-23_08h52.14.142,empathy_intonation_perc,2024.2.4,MacIntel,60.24096386,675c98d1c5cd2106ffd74570,687ed1b7e638a4cbf2f02089,6880dac1588816118ed8a384,,,,,,,,,,,,,,1,,,,,,,,,,,,,,,,,,,,,,,,,,,,,,,,,,,,,,,,,,,,,,,,,,,,,,,,,86,barato,,,,,772.3877,774.4289,1,1,1.5071,,0,8,8,85,1,REAL,FAKE,,,,,,,,,,,,,,,,,
,,,,,,,,,675c98d1c5cd2106ffd74570,Spanish,13 or older,"no, only English or Spanish",no,2025-07-23_08h52.14.142,empathy_intonation_perc,2024.2.4,MacIntel,60.24096386,675c98d1c5cd2106ffd74570,687ed1b7e638a4cbf2f02089,6880dac1588816118ed8a384,,,,,,,,,,,,,,1,,,,,,,,,,,,,,,,,,,,,,,,,,,,,,,,,,,,,,,,,,,,,,,,,,,,,,,,,6,tergiversar,,,,,774.4294,775.6126,0,0,0.6429,,0,9,9,5,1,REAL,FAKE,,,,,,,,,,,,,,,,,
,,,,,,,,,675c98d1c5cd2106ffd74570,Spanish,13 or older,"no, only English or Spanish",no,2025-07-23_08h52.14.142,empathy_intonation_perc,2024.2.4,MacIntel,60.24096386,675c98d1c5cd2106ffd74570,687ed1b7e638a4cbf2f02089,6880dac1588816118ed8a384,,,,,,,,,,,,,,0,,,,,,,,,,,,,,,,,,,,,,,,,,,,,,,,,,,,,,,,,,,,,,,,,,,,,,,,,10,antar,,,,,775.6133,777.2487,0,1,1.1043,,0,10,10,9,1,REAL,FAKE,,,,,,,,,,,,,,,,,
,,,,,,,,,675c98d1c5cd2106ffd74570,Spanish,13 or older,"no, only English or Spanish",no,2025-07-23_08h52.14.142,empathy_intonation_perc,2024.2.4,MacIntel,60.24096386,675c98d1c5cd2106ffd74570,687ed1b7e638a4cbf2f02089,6880dac1588816118ed8a384,,,,,,,,,,,,,,1,,,,,,,,,,,,,,,,,,,,,,,,,,,,,,,,,,,,,,,,,,,,,,,,,,,,,,,,,77,tiburón,,,,,777.2493,778.4651,1,1,0.6709,,0,11,11,76,1,REAL,FAKE,,,,,,,,,,,,,,,,,
,,,,,,,,,675c98d1c5cd2106ffd74570,Spanish,13 or older,"no, only English or Spanish",no,2025-07-23_08h52.14.142,empathy_intonation_perc,2024.2.4,MacIntel,60.24096386,675c98d1c5cd2106ffd74570,687ed1b7e638a4cbf2f02089,6880dac1588816118ed8a384,,,,,,,,,,,,,,0,,,,,,,,,,,,,,,,,,,,,,,,,,,,,,,,,,,,,,,,,,,,,,,,,,,,,,,,,74,cintro,,,,,778.4656,780.1296,0,1,1.1264,,0,12,12,73,1,REAL,FAKE,,,,,,,,,,,,,,,,,
,,,,,,,,,675c98d1c5cd2106ffd74570,Spanish,13 or older,"no, only English or Spanish",no,2025-07-23_08h52.14.142,empathy_intonation_perc,2024.2.4,MacIntel,60.24096386,675c98d1c5cd2106ffd74570,687ed1b7e638a4cbf2f02089,6880dac1588816118ed8a384,,,,,,,,,,,,,,1,,,,,,,,,,,,,,,,,,,,,,,,,,,,,,,,,,,,,,,,,,,,,,,,,,,,,,,,,40,alfombra,,,,,780.1302,781.3875,0,0,0.7041,,0,13,13,39,1,REAL,FAKE,,,,,,,,,,,,,,,,,
,,,,,,,,,675c98d1c5cd2106ffd74570,Spanish,13 or older,"no, only English or Spanish",no,2025-07-23_08h52.14.142,empathy_intonation_perc,2024.2.4,MacIntel,60.24096386,675c98d1c5cd2106ffd74570,687ed1b7e638a4cbf2f02089,6880dac1588816118ed8a384,,,,,,,,,,,,,,1,,,,,,,,,,,,,,,,,,,,,,,,,,,,,,,,,,,,,,,,,,,,,,,,,,,,,,,,,88,acantilado,,,,,781.3881,782.8265,1,1,0.898,,0,14,14,87,1,REAL,FAKE,,,,,,,,,,,,,,,,,
,,,,,,,,,675c98d1c5cd2106ffd74570,Spanish,13 or older,"no, only English or Spanish",no,2025-07-23_08h52.14.142,empathy_intonation_perc,2024.2.4,MacIntel,60.24096386,675c98d1c5cd2106ffd74570,687ed1b7e638a4cbf2f02089,6880dac1588816118ed8a384,,,,,,,,,,,,,,1,,,,,,,,,,,,,,,,,,,,,,,,,,,,,,,,,,,,,,,,,,,,,,,,,,,,,,,,,89,prisa,,,,,782.8271,784.2476,1,1,0.8931,,0,15,15,88,1,REAL,FAKE,,,,,,,,,,,,,,,,,
,,,,,,,,,675c98d1c5cd2106ffd74570,Spanish,13 or older,"no, only English or Spanish",no,2025-07-23_08h52.14.142,empathy_intonation_perc,2024.2.4,MacIntel,60.24096386,675c98d1c5cd2106ffd74570,687ed1b7e638a4cbf2f02089,6880dac1588816118ed8a384,,,,,,,,,,,,,,1,,,,,,,,,,,,,,,,,,,,,,,,,,,,,,,,,,,,,,,,,,,,,,,,,,,,,,,,,81,pozo,,,,,784.2482,785.4802,0,0,0.7027,,0,16,16,80,1,REAL,FAKE,,,,,,,,,,,,,,,,,
,,,,,,,,,675c98d1c5cd2106ffd74570,Spanish,13 or older,"no, only English or Spanish",no,2025-07-23_08h52.14.142,empathy_intonation_perc,2024.2.4,MacIntel,60.24096386,675c98d1c5cd2106ffd74570,687ed1b7e638a4cbf2f02089,6880dac1588816118ed8a384,,,,,,,,,,,,,,1,,,,,,,,,,,,,,,,,,,,,,,,,,,,,,,,,,,,,,,,,,,,,,,,,,,,,,,,,12,asesinato,,,,,785.4808,788.7041,0,0,2.6906,,0,17,17,11,1,REAL,FAKE,,,,,,,,,,,,,,,,,
,,,,,,,,,675c98d1c5cd2106ffd74570,Spanish,13 or older,"no, only English or Spanish",no,2025-07-23_08h52.14.142,empathy_intonation_perc,2024.2.4,MacIntel,60.24096386,675c98d1c5cd2106ffd74570,687ed1b7e638a4cbf2f02089,6880dac1588816118ed8a384,,,,,,,,,,,,,,1,,,,,,,,,,,,,,,,,,,,,,,,,,,,,,,,,,,,,,,,,,,,,,,,,,,,,,,,,3,pulmones,,,,,788.7047,789.9965,0,0,0.7594,,0,18,18,2,1,REAL,FAKE,,,,,,,,,,,,,,,,,
,,,,,,,,,675c98d1c5cd2106ffd74570,Spanish,13 or older,"no, only English or Spanish",no,2025-07-23_08h52.14.142,empathy_intonation_perc,2024.2.4,MacIntel,60.24096386,675c98d1c5cd2106ffd74570,687ed1b7e638a4cbf2f02089,6880dac1588816118ed8a384,,,,,,,,,,,,,,1,,,,,,,,,,,,,,,,,,,,,,,,,,,,,,,,,,,,,,,,,,,,,,,,,,,,,,,,,34,aviso,,,,,789.9971,791.5209,0,0,0.9985,,0,19,19,33,1,REAL,FAKE,,,,,,,,,,,,,,,,,
,,,,,,,,,675c98d1c5cd2106ffd74570,Spanish,13 or older,"no, only English or Spanish",no,2025-07-23_08h52.14.142,empathy_intonation_perc,2024.2.4,MacIntel,60.24096386,675c98d1c5cd2106ffd74570,687ed1b7e638a4cbf2f02089,6880dac1588816118ed8a384,,,,,,,,,,,,,,0,,,,,,,,,,,,,,,,,,,,,,,,,,,,,,,,,,,,,,,,,,,,,,,,,,,,,,,,,17,floroso,,,,,791.5215,792.9281,1,0,0.8634,,0,20,20,16,1,REAL,FAKE,,,,,,,,,,,,,,,,,
,,,,,,,,,675c98d1c5cd2106ffd74570,Spanish,13 or older,"no, only English or Spanish",no,2025-07-23_08h52.14.142,empathy_intonation_perc,2024.2.4,MacIntel,60.24096386,675c98d1c5cd2106ffd74570,687ed1b7e638a4cbf2f02089,6880dac1588816118ed8a384,,,,,,,,,,,,,,1,,,,,,,,,,,,,,,,,,,,,,,,,,,,,,,,,,,,,,,,,,,,,,,,,,,,,,,,,15,regar,,,,,792.9285,794.3659,0,0,0.9188,,0,21,21,14,1,REAL,FAKE,,,,,,,,,,,,,,,,,
,,,,,,,,,675c98d1c5cd2106ffd74570,Spanish,13 or older,"no, only English or Spanish",no,2025-07-23_08h52.14.142,empathy_intonation_perc,2024.2.4,MacIntel,60.24096386,675c98d1c5cd2106ffd74570,687ed1b7e638a4cbf2f02089,6880dac1588816118ed8a384,,,,,,,,,,,,,,1,,,,,,,,,,,,,,,,,,,,,,,,,,,,,,,,,,,,,,,,,,,,,,,,,,,,,,,,,83,guante,,,,,794.3664,796.2654,0,0,1.3511,,0,22,22,82,1,REAL,FAKE,,,,,,,,,,,,,,,,,
,,,,,,,,,675c98d1c5cd2106ffd74570,Spanish,13 or older,"no, only English or Spanish",no,2025-07-23_08h52.14.142,empathy_intonation_perc,2024.2.4,MacIntel,60.24096386,675c98d1c5cd2106ffd74570,687ed1b7e638a4cbf2f02089,6880dac1588816118ed8a384,,,,,,,,,,,,,,0,,,,,,,,,,,,,,,,,,,,,,,,,,,,,,,,,,,,,,,,,,,,,,,,,,,,,,,,,82,empirador,,,,,796.2659,797.7712,0,1,0.9741,,0,23,23,81,1,REAL,FAKE,,,,,,,,,,,,,,,,,
,,,,,,,,,675c98d1c5cd2106ffd74570,Spanish,13 or older,"no, only English or Spanish",no,2025-07-23_08h52.14.142,empathy_intonation_perc,2024.2.4,MacIntel,60.24096386,675c98d1c5cd2106ffd74570,687ed1b7e638a4cbf2f02089,6880dac1588816118ed8a384,,,,,,,,,,,,,,1,,,,,,,,,,,,,,,,,,,,,,,,,,,,,,,,,,,,,,,,,,,,,,,,,,,,,,,,,57,tacaño,,,,,797.7719,799.6319,0,0,1.3186,,0,24,24,56,1,REAL,FAKE,,,,,,,,,,,,,,,,,
,,,,,,,,,675c98d1c5cd2106ffd74570,Spanish,13 or older,"no, only English or Spanish",no,2025-07-23_08h52.14.142,empathy_intonation_perc,2024.2.4,MacIntel,60.24096386,675c98d1c5cd2106ffd74570,687ed1b7e638a4cbf2f02089,6880dac1588816118ed8a384,,,,,,,,,,,,,,1,,,,,,,,,,,,,,,,,,,,,,,,,,,,,,,,,,,,,,,,,,,,,,,,,,,,,,,,,80,hormiga,,,,,799.6326,801.0795,0,0,0.9068,,0,25,25,79,1,REAL,FAKE,,,,,,,,,,,,,,,,,
,,,,,,,,,675c98d1c5cd2106ffd74570,Spanish,13 or older,"no, only English or Spanish",no,2025-07-23_08h52.14.142,empathy_intonation_perc,2024.2.4,MacIntel,60.24096386,675c98d1c5cd2106ffd74570,687ed1b7e638a4cbf2f02089,6880dac1588816118ed8a384,,,,,,,,,,,,,,0,,,,,,,,,,,,,,,,,,,,,,,,,,,,,,,,,,,,,,,,,,,,,,,,,,,,,,,,,16,abracer,,,,,801.0801,802.8986,0,1,1.2837,,0,26,26,15,1,REAL,FAKE,,,,,,,,,,,,,,,,,
,,,,,,,,,675c98d1c5cd2106ffd74570,Spanish,13 or older,"no, only English or Spanish",no,2025-07-23_08h52.14.142,empathy_intonation_perc,2024.2.4,MacIntel,60.24096386,675c98d1c5cd2106ffd74570,687ed1b7e638a4cbf2f02089,6880dac1588816118ed8a384,,,,,,,,,,,,,,1,,,,,,,,,,,,,,,,,,,,,,,,,,,,,,,,,,,,,,,,,,,,,,,,,,,,,,,,,59,besar,,,,,802.8992,804.5462,0,0,1.108,,0,27,27,58,1,REAL,FAKE,,,,,,,,,,,,,,,,,
,,,,,,,,,675c98d1c5cd2106ffd74570,Spanish,13 or older,"no, only English or Spanish",no,2025-07-23_08h52.14.142,empathy_intonation_perc,2024.2.4,MacIntel,60.24096386,675c98d1c5cd2106ffd74570,687ed1b7e638a4cbf2f02089,6880dac1588816118ed8a384,,,,,,,,,,,,,,1,,,,,,,,,,,,,,,,,,,,,,,,,,,,,,,,,,,,,,,,,,,,,,,,,,,,,,,,,7,pésimo,,,,,804.5467,805.6305,1,1,0.5511,,0,28,28,6,1,REAL,FAKE,,,,,,,,,,,,,,,,,
,,,,,,,,,675c98d1c5cd2106ffd74570,Spanish,13 or older,"no, only English or Spanish",no,2025-07-23_08h52.14.142,empathy_intonation_perc,2024.2.4,MacIntel,60.24096386,675c98d1c5cd2106ffd74570,687ed1b7e638a4cbf2f02089,6880dac1588816118ed8a384,,,,,,,,,,,,,,1,,,,,,,,,,,,,,,,,,,,,,,,,,,,,,,,,,,,,,,,,,,,,,,,,,,,,,,,,75,yacer,,,,,805.631,806.8962,0,0,0.7155,,0,29,29,74,1,REAL,FAKE,,,,,,,,,,,,,,,,,
,,,,,,,,,675c98d1c5cd2106ffd74570,Spanish,13 or older,"no, only English or Spanish",no,2025-07-23_08h52.14.142,empathy_intonation_perc,2024.2.4,MacIntel,60.24096386,675c98d1c5cd2106ffd74570,687ed1b7e638a4cbf2f02089,6880dac1588816118ed8a384,,,,,,,,,,,,,,0,,,,,,,,,,,,,,,,,,,,,,,,,,,,,,,,,,,,,,,,,,,,,,,,,,,,,,,,,32,fatacidad,,,,,806.8968,808.1884,0,1,0.7597,,0,30,30,31,1,REAL,FAKE,,,,,,,,,,,,,,,,,
,,,,,,,,,675c98d1c5cd2106ffd74570,Spanish,13 or older,"no, only English or Spanish",no,2025-07-23_08h52.14.142,empathy_intonation_perc,2024.2.4,MacIntel,60.24096386,675c98d1c5cd2106ffd74570,687ed1b7e638a4cbf2f02089,6880dac1588816118ed8a384,,,,,,,,,,,,,,1,,,,,,,,,,,,,,,,,,,,,,,,,,,,,,,,,,,,,,,,,,,,,,,,,,,,,,,,,2,pellizcar,,,,,808.1889,809.4288,0,0,0.7,,0,31,31,1,1,REAL,FAKE,,,,,,,,,,,,,,,,,
,,,,,,,,,675c98d1c5cd2106ffd74570,Spanish,13 or older,"no, only English or Spanish",no,2025-07-23_08h52.14.142,empathy_intonation_perc,2024.2.4,MacIntel,60.24096386,675c98d1c5cd2106ffd74570,687ed1b7e638a4cbf2f02089,6880dac1588816118ed8a384,,,,,,,,,,,,,,0,,,,,,,,,,,,,,,,,,,,,,,,,,,,,,,,,,,,,,,,,,,,,,,,,,,,,,,,,70,temblo,,,,,809.4294,811.1112,0,1,1.1573,,0,32,32,69,1,REAL,FAKE,,,,,,,,,,,,,,,,,
,,,,,,,,,675c98d1c5cd2106ffd74570,Spanish,13 or older,"no, only English or Spanish",no,2025-07-23_08h52.14.142,empathy_intonation_perc,2024.2.4,MacIntel,60.24096386,675c98d1c5cd2106ffd74570,687ed1b7e638a4cbf2f02089,6880dac1588816118ed8a384,,,,,,,,,,,,,,0,,,,,,,,,,,,,,,,,,,,,,,,,,,,,,,,,,,,,,,,,,,,,,,,,,,,,,,,,63,esposante,,,,,811.1118,812.4278,1,0,0.7837,,0,33,33,62,1,REAL,FAKE,,,,,,,,,,,,,,,,,
,,,,,,,,,675c98d1c5cd2106ffd74570,Spanish,13 or older,"no, only English or Spanish",no,2025-07-23_08h52.14.142,empathy_intonation_perc,2024.2.4,MacIntel,60.24096386,675c98d1c5cd2106ffd74570,687ed1b7e638a4cbf2f02089,6880dac1588816118ed8a384,,,,,,,,,,,,,,1,,,,,,,,,,,,,,,,,,,,,,,,,,,,,,,,,,,,,,,,,,,,,,,,,,,,,,,,,76,atar,,,,,812.4284,815.0815,0,0,2.1189,,0,34,34,75,1,REAL,FAKE,,,,,,,,,,,,,,,,,
,,,,,,,,,675c98d1c5cd2106ffd74570,Spanish,13 or older,"no, only English or Spanish",no,2025-07-23_08h52.14.142,empathy_intonation_perc,2024.2.4,MacIntel,60.24096386,675c98d1c5cd2106ffd74570,687ed1b7e638a4cbf2f02089,6880dac1588816118ed8a384,,,,,,,,,,,,,,1,,,,,,,,,,,,,,,,,,,,,,,,,,,,,,,,,,,,,,,,,,,,,,,,,,,,,,,,,90,clavel,,,,,815.0821,816.355,0,0,0.7418,,0,35,35,89,1,REAL,FAKE,,,,,,,,,,,,,,,,,
,,,,,,,,,675c98d1c5cd2106ffd74570,Spanish,13 or older,"no, only English or Spanish",no,2025-07-23_08h52.14.142,empathy_intonation_perc,2024.2.4,MacIntel,60.24096386,675c98d1c5cd2106ffd74570,687ed1b7e638a4cbf2f02089,6880dac1588816118ed8a384,,,,,,,,,,,,,,0,,,,,,,,,,,,,,,,,,,,,,,,,,,,,,,,,,,,,,,,,,,,,,,,,,,,,,,,,66,hacido,,,,,816.3556,817.5299,0,1,0.6419,,0,36,36,65,1,REAL,FAKE,,,,,,,,,,,,,,,,,
,,,,,,,,,675c98d1c5cd2106ffd74570,Spanish,13 or older,"no, only English or Spanish",no,2025-07-23_08h52.14.142,empathy_intonation_perc,2024.2.4,MacIntel,60.24096386,675c98d1c5cd2106ffd74570,687ed1b7e638a4cbf2f02089,6880dac1588816118ed8a384,,,,,,,,,,,,,,1,,,,,,,,,,,,,,,,,,,,,,,,,,,,,,,,,,,,,,,,,,,,,,,,,,,,,,,,,37,granuja,,,,,817.5307,819.0129,0,0,0.9503,,0,37,37,36,1,REAL,FAKE,,,,,,,,,,,,,,,,,
,,,,,,,,,675c98d1c5cd2106ffd74570,Spanish,13 or older,"no, only English or Spanish",no,2025-07-23_08h52.14.142,empathy_intonation_perc,2024.2.4,MacIntel,60.24096386,675c98d1c5cd2106ffd74570,687ed1b7e638a4cbf2f02089,6880dac1588816118ed8a384,,,,,,,,,,,,,,1,,,,,,,,,,,,,,,,,,,,,,,,,,,,,,,,,,,,,,,,,,,,,,,,,,,,,,,,,91,click the 1 key.,,,,,819.0137,822.1131,1,1,2.5635,,0,38,38,90,1,REAL,FAKE,,,,,,,,,,,,,,,,,
,,,,,,,,,675c98d1c5cd2106ffd74570,Spanish,13 or older,"no, only English or Spanish",no,2025-07-23_08h52.14.142,empathy_intonation_perc,2024.2.4,MacIntel,60.24096386,675c98d1c5cd2106ffd74570,687ed1b7e638a4cbf2f02089,6880dac1588816118ed8a384,,,,,,,,,,,,,,1,,,,,,,,,,,,,,,,,,,,,,,,,,,,,,,,,,,,,,,,,,,,,,,,,,,,,,,,,39,torpe,,,,,822.1137,824.3134,0,0,1.6527,,0,39,39,38,1,REAL,FAKE,,,,,,,,,,,,,,,,,
,,,,,,,,,675c98d1c5cd2106ffd74570,Spanish,13 or older,"no, only English or Spanish",no,2025-07-23_08h52.14.142,empathy_intonation_perc,2024.2.4,MacIntel,60.24096386,675c98d1c5cd2106ffd74570,687ed1b7e638a4cbf2f02089,6880dac1588816118ed8a384,,,,,,,,,,,,,,1,,,,,,,,,,,,,,,,,,,,,,,,,,,,,,,,,,,,,,,,,,,,,,,,,,,,,,,,,68,alegre,,,,,824.3139,826.5119,1,1,1.6572,,0,40,40,67,1,REAL,FAKE,,,,,,,,,,,,,,,,,
,,,,,,,,,675c98d1c5cd2106ffd74570,Spanish,13 or older,"no, only English or Spanish",no,2025-07-23_08h52.14.142,empathy_intonation_perc,2024.2.4,MacIntel,60.24096386,675c98d1c5cd2106ffd74570,687ed1b7e638a4cbf2f02089,6880dac1588816118ed8a384,,,,,,,,,,,,,,0,,,,,,,,,,,,,,,,,,,,,,,,,,,,,,,,,,,,,,,,,,,,,,,,,,,,,,,,,4,batillón,,,,,826.5124,827.9633,1,0,0.9169,,0,41,41,3,1,REAL,FAKE,,,,,,,,,,,,,,,,,
,,,,,,,,,675c98d1c5cd2106ffd74570,Spanish,13 or older,"no, only English or Spanish",no,2025-07-23_08h52.14.142,empathy_intonation_perc,2024.2.4,MacIntel,60.24096386,675c98d1c5cd2106ffd74570,687ed1b7e638a4cbf2f02089,6880dac1588816118ed8a384,,,,,,,,,,,,,,1,,,,,,,,,,,,,,,,,,,,,,,,,,,,,,,,,,,,,,,,,,,,,,,,,,,,,,,,,78,frondoso,,,,,827.964,829.1967,0,0,0.6917,,0,42,42,77,1,REAL,FAKE,,,,,,,,,,,,,,,,,
,,,,,,,,,675c98d1c5cd2106ffd74570,Spanish,13 or older,"no, only English or Spanish",no,2025-07-23_08h52.14.142,empathy_intonation_perc,2024.2.4,MacIntel,60.24096386,675c98d1c5cd2106ffd74570,687ed1b7e638a4cbf2f02089,6880dac1588816118ed8a384,,,,,,,,,,,,,,1,,,,,,,,,,,,,,,,,,,,,,,,,,,,,,,,,,,,,,,,,,,,,,,,,,,,,,,,,5,zapato,,,,,829.1975,830.9555,0,0,1.2184,,0,43,43,4,1,REAL,FAKE,,,,,,,,,,,,,,,,,
,,,,,,,,,675c98d1c5cd2106ffd74570,Spanish,13 or older,"no, only English or Spanish",no,2025-07-23_08h52.14.142,empathy_intonation_perc,2024.2.4,MacIntel,60.24096386,675c98d1c5cd2106ffd74570,687ed1b7e638a4cbf2f02089,6880dac1588816118ed8a384,,,,,,,,,,,,,,0,,,,,,,,,,,,,,,,,,,,,,,,,,,,,,,,,,,,,,,,,,,,,,,,,,,,,,,,,42,cadallo,,,,,830.9561,833.6115,0,1,2.1165,,0,44,44,41,1,REAL,FAKE,,,,,,,,,,,,,,,,,
,,,,,,,,,675c98d1c5cd2106ffd74570,Spanish,13 or older,"no, only English or Spanish",no,2025-07-23_08h52.14.142,empathy_intonation_perc,2024.2.4,MacIntel,60.24096386,675c98d1c5cd2106ffd74570,687ed1b7e638a4cbf2f02089,6880dac1588816118ed8a384,,,,,,,,,,,,,,0,,,,,,,,,,,,,,,,,,,,,,,,,,,,,,,,,,,,,,,,,,,,,,,,,,,,,,,,,21,capillo,,,,,833.6121,839.4323,0,1,5.2859,,0,45,45,20,1,REAL,FAKE,,,,,,,,,,,,,,,,,
,,,,,,,,,675c98d1c5cd2106ffd74570,Spanish,13 or older,"no, only English or Spanish",no,2025-07-23_08h52.14.142,empathy_intonation_perc,2024.2.4,MacIntel,60.24096386,675c98d1c5cd2106ffd74570,687ed1b7e638a4cbf2f02089,6880dac1588816118ed8a384,,,,,,,,,,,,,,0,,,,,,,,,,,,,,,,,,,,,,,,,,,,,,,,,,,,,,,,,,,,,,,,,,,,,,,,,53,vegada,,,,,839.4328,840.8814,0,1,0.903,,0,46,46,52,1,REAL,FAKE,,,,,,,,,,,,,,,,,
,,,,,,,,,675c98d1c5cd2106ffd74570,Spanish,13 or older,"no, only English or Spanish",no,2025-07-23_08h52.14.142,empathy_intonation_perc,2024.2.4,MacIntel,60.24096386,675c98d1c5cd2106ffd74570,687ed1b7e638a4cbf2f02089,6880dac1588816118ed8a384,,,,,,,,,,,,,,0,,,,,,,,,,,,,,,,,,,,,,,,,,,,,,,,,,,,,,,,,,,,,,,,,,,,,,,,,29,decar,,,,,840.882,842.7949,1,0,1.3648,,0,47,47,28,1,REAL,FAKE,,,,,,,,,,,,,,,,,
,,,,,,,,,675c98d1c5cd2106ffd74570,Spanish,13 or older,"no, only English or Spanish",no,2025-07-23_08h52.14.142,empathy_intonation_perc,2024.2.4,MacIntel,60.24096386,675c98d1c5cd2106ffd74570,687ed1b7e638a4cbf2f02089,6880dac1588816118ed8a384,,,,,,,,,,,,,,1,,,,,,,,,,,,,,,,,,,,,,,,,,,,,,,,,,,,,,,,,,,,,,,,,,,,,,,,,49,ganar,,,,,842.7954,845.0284,0,0,1.7146,,0,48,48,48,1,REAL,FAKE,,,,,,,,,,,,,,,,,
,,,,,,,,,675c98d1c5cd2106ffd74570,Spanish,13 or older,"no, only English or Spanish",no,2025-07-23_08h52.14.142,empathy_intonation_perc,2024.2.4,MacIntel,60.24096386,675c98d1c5cd2106ffd74570,687ed1b7e638a4cbf2f02089,6880dac1588816118ed8a384,,,,,,,,,,,,,,1,,,,,,,,,,,,,,,,,,,,,,,,,,,,,,,,,,,,,,,,,,,,,,,,,,,,,,,,,13,helar,,,,,845.0289,846.9148,0,0,1.3536,,0,49,49,12,1,REAL,FAKE,,,,,,,,,,,,,,,,,
,,,,,,,,,675c98d1c5cd2106ffd74570,Spanish,13 or older,"no, only English or Spanish",no,2025-07-23_08h52.14.142,empathy_intonation_perc,2024.2.4,MacIntel,60.24096386,675c98d1c5cd2106ffd74570,687ed1b7e638a4cbf2f02089,6880dac1588816118ed8a384,,,,,,,,,,,,,,1,,,,,,,,,,,,,,,,,,,,,,,,,,,,,,,,,,,,,,,,,,,,,,,,,,,,,,,,,60,matar,,,,,846.9154,850.6906,0,0,3.2257,,0,50,50,59,1,REAL,FAKE,,,,,,,,,,,,,,,,,
,,,,,,,,,675c98d1c5cd2106ffd74570,Spanish,13 or older,"no, only English or Spanish",no,2025-07-23_08h52.14.142,empathy_intonation_perc,2024.2.4,MacIntel,60.24096386,675c98d1c5cd2106ffd74570,687ed1b7e638a4cbf2f02089,6880dac1588816118ed8a384,,,,,,,,,,,,,,0,,,,,,,,,,,,,,,,,,,,,,,,,,,,,,,,,,,,,,,,,,,,,,,,,,,,,,,,,35,rompido,,,,,850.6913,852.6303,1,0,1.4079,,0,51,51,34,1,REAL,FAKE,,,,,,,,,,,,,,,,,
,,,,,,,,,675c98d1c5cd2106ffd74570,Spanish,13 or older,"no, only English or Spanish",no,2025-07-23_08h52.14.142,empathy_intonation_perc,2024.2.4,MacIntel,60.24096386,675c98d1c5cd2106ffd74570,687ed1b7e638a4cbf2f02089,6880dac1588816118ed8a384,,,,,,,,,,,,,,0,,,,,,,,,,,,,,,,,,,,,,,,,,,,,,,,,,,,,,,,,,,,,,,,,,,,,,,,,58,plaudir,,,,,852.6309,854.0801,0,1,0.9023,,0,52,52,57,1,REAL,FAKE,,,,,,,,,,,,,,,,,
,,,,,,,,,675c98d1c5cd2106ffd74570,Spanish,13 or older,"no, only English or Spanish",no,2025-07-23_08h52.14.142,empathy_intonation_perc,2024.2.4,MacIntel,60.24096386,675c98d1c5cd2106ffd74570,687ed1b7e638a4cbf2f02089,6880dac1588816118ed8a384,,,,,,,,,,,,,,1,,,,,,,,,,,,,,,,,,,,,,,,,,,,,,,,,,,,,,,,,,,,,,,,,,,,,,,,,85,laúd,,,,,854.0809,855.4717,1,1,0.8439,,0,53,53,84,1,REAL,FAKE,,,,,,,,,,,,,,,,,
,,,,,,,,,675c98d1c5cd2106ffd74570,Spanish,13 or older,"no, only English or Spanish",no,2025-07-23_08h52.14.142,empathy_intonation_perc,2024.2.4,MacIntel,60.24096386,675c98d1c5cd2106ffd74570,687ed1b7e638a4cbf2f02089,6880dac1588816118ed8a384,,,,,,,,,,,,,,0,,,,,,,,,,,,,,,,,,,,,,,,,,,,,,,,,,,,,,,,,,,,,,,,,,,,,,,,,79,tropaje,,,,,855.4723,856.6883,1,0,0.6721,,0,54,54,78,1,REAL,FAKE,,,,,,,,,,,,,,,,,
,,,,,,,,,675c98d1c5cd2106ffd74570,Spanish,13 or older,"no, only English or Spanish",no,2025-07-23_08h52.14.142,empathy_intonation_perc,2024.2.4,MacIntel,60.24096386,675c98d1c5cd2106ffd74570,687ed1b7e638a4cbf2f02089,6880dac1588816118ed8a384,,,,,,,,,,,,,,0,,,,,,,,,,,,,,,,,,,,,,,,,,,,,,,,,,,,,,,,,,,,,,,,,,,,,,,,,47,cartinar,,,,,856.6888,858.0214,0,1,0.8087,,0,55,55,46,1,REAL,FAKE,,,,,,,,,,,,,,,,,
,,,,,,,,,675c98d1c5cd2106ffd74570,Spanish,13 or older,"no, only English or Spanish",no,2025-07-23_08h52.14.142,empathy_intonation_perc,2024.2.4,MacIntel,60.24096386,675c98d1c5cd2106ffd74570,687ed1b7e638a4cbf2f02089,6880dac1588816118ed8a384,,,,,,,,,,,,,,1,,,,,,,,,,,,,,,,,,,,,,,,,,,,,,,,,,,,,,,,,,,,,,,,,,,,,,,,,52,camisa,,,,,858.022,859.5048,0,0,0.958,,0,56,56,51,1,REAL,FAKE,,,,,,,,,,,,,,,,,
,,,,,,,,,675c98d1c5cd2106ffd74570,Spanish,13 or older,"no, only English or Spanish",no,2025-07-23_08h52.14.142,empathy_intonation_perc,2024.2.4,MacIntel,60.24096386,675c98d1c5cd2106ffd74570,687ed1b7e638a4cbf2f02089,6880dac1588816118ed8a384,,,,,,,,,,,,,,0,,,,,,,,,,,,,,,,,,,,,,,,,,,,,,,,,,,,,,,,,,,,,,,,,,,,,,,,,92,click the 0 key.,,,,,859.5055,861.8628,0,1,1.8236,,0,57,57,91,1,REAL,FAKE,,,,,,,,,,,,,,,,,
,,,,,,,,,675c98d1c5cd2106ffd74570,Spanish,13 or older,"no, only English or Spanish",no,2025-07-23_08h52.14.142,empathy_intonation_perc,2024.2.4,MacIntel,60.24096386,675c98d1c5cd2106ffd74570,687ed1b7e638a4cbf2f02089,6880dac1588816118ed8a384,,,,,,,,,,,,,,1,,,,,,,,,,,,,,,,,,,,,,,,,,,,,,,,,,,,,,,,,,,,,,,,,,,,,,,,,46,martillo,,,,,861.8634,863.9216,1,1,1.524,,0,58,58,45,1,REAL,FAKE,,,,,,,,,,,,,,,,,
,,,,,,,,,675c98d1c5cd2106ffd74570,Spanish,13 or older,"no, only English or Spanish",no,2025-07-23_08h52.14.142,empathy_intonation_perc,2024.2.4,MacIntel,60.24096386,675c98d1c5cd2106ffd74570,687ed1b7e638a4cbf2f02089,6880dac1588816118ed8a384,,,,,,,,,,,,,,1,,,,,,,,,,,,,,,,,,,,,,,,,,,,,,,,,,,,,,,,,,,,,,,,,,,,,,,,,36,loro,,,,,863.9222,865.6142,0,0,1.1501,,0,59,59,35,1,REAL,FAKE,,,,,,,,,,,,,,,,,
,,,,,,,,,675c98d1c5cd2106ffd74570,Spanish,13 or older,"no, only English or Spanish",no,2025-07-23_08h52.14.142,empathy_intonation_perc,2024.2.4,MacIntel,60.24096386,675c98d1c5cd2106ffd74570,687ed1b7e638a4cbf2f02089,6880dac1588816118ed8a384,,,,,,,,,,,,,,1,,,,,,,,,,,,,,,,,,,,,,,,,,,,,,,,,,,,,,,,,,,,,,,,,,,,,,,,,26,secuestro,,,,,865.6149,867.2291,0,0,1.0835,,0,60,60,25,1,REAL,FAKE,,,,,,,,,,,,,,,,,
,,,,,,,,,675c98d1c5cd2106ffd74570,Spanish,13 or older,"no, only English or Spanish",no,2025-07-23_08h52.14.142,empathy_intonation_perc,2024.2.4,MacIntel,60.24096386,675c98d1c5cd2106ffd74570,687ed1b7e638a4cbf2f02089,6880dac1588816118ed8a384,,,,,,,,,,,,,,1,,,,,,,,,,,,,,,,,,,,,,,,,,,,,,,,,,,,,,,,,,,,,,,,,,,,,,,,,54,fomentar,,,,,867.2297,868.5115,0,0,0.748,,0,61,61,53,1,REAL,FAKE,,,,,,,,,,,,,,,,,
,,,,,,,,,675c98d1c5cd2106ffd74570,Spanish,13 or older,"no, only English or Spanish",no,2025-07-23_08h52.14.142,empathy_intonation_perc,2024.2.4,MacIntel,60.24096386,675c98d1c5cd2106ffd74570,687ed1b7e638a4cbf2f02089,6880dac1588816118ed8a384,,,,,,,,,,,,,,1,,,,,,,,,,,,,,,,,,,,,,,,,,,,,,,,,,,,,,,,,,,,,,,,,,,,,,,,,28,merodear,,,,,868.5121,870.0121,0,0,0.9806,,0,62,62,27,1,REAL,FAKE,,,,,,,,,,,,,,,,,
,,,,,,,,,675c98d1c5cd2106ffd74570,Spanish,13 or older,"no, only English or Spanish",no,2025-07-23_08h52.14.142,empathy_intonation_perc,2024.2.4,MacIntel,60.24096386,675c98d1c5cd2106ffd74570,687ed1b7e638a4cbf2f02089,6880dac1588816118ed8a384,,,,,,,,,,,,,,1,,,,,,,,,,,,,,,,,,,,,,,,,,,,,,,,,,,,,,,,,,,,,,,,,,,,,,,,,48,ladrón,,,,,870.0128,871.3793,1,1,0.8325,,0,63,63,47,1,REAL,FAKE,,,,,,,,,,,,,,,,,
,,,,,,,,,675c98d1c5cd2106ffd74570,Spanish,13 or older,"no, only English or Spanish",no,2025-07-23_08h52.14.142,empathy_intonation_perc,2024.2.4,MacIntel,60.24096386,675c98d1c5cd2106ffd74570,687ed1b7e638a4cbf2f02089,6880dac1588816118ed8a384,,,,,,,,,,,,,,1,,,,,,,,,,,,,,,,,,,,,,,,,,,,,,,,,,,,,,,,,,,,,,,,,,,,,,,,,73,hervidor,,,,,871.3799,872.9287,0,0,1.0141,,0,64,64,72,1,REAL,FAKE,,,,,,,,,,,,,,,,,
,,,,,,,,,675c98d1c5cd2106ffd74570,Spanish,13 or older,"no, only English or Spanish",no,2025-07-23_08h52.14.142,empathy_intonation_perc,2024.2.4,MacIntel,60.24096386,675c98d1c5cd2106ffd74570,687ed1b7e638a4cbf2f02089,6880dac1588816118ed8a384,,,,,,,,,,,,,,1,,,,,,,,,,,,,,,,,,,,,,,,,,,,,,,,,,,,,,,,,,,,,,,,,,,,,,,,,62,flaco,,,,,872.9293,874.2625,1,1,0.8077,,0,65,65,61,1,REAL,FAKE,,,,,,,,,,,,,,,,,
,,,,,,,,,675c98d1c5cd2106ffd74570,Spanish,13 or older,"no, only English or Spanish",no,2025-07-23_08h52.14.142,empathy_intonation_perc,2024.2.4,MacIntel,60.24096386,675c98d1c5cd2106ffd74570,687ed1b7e638a4cbf2f02089,6880dac1588816118ed8a384,,,,,,,,,,,,,,1,,,,,,,,,,,,,,,,,,,,,,,,,,,,,,,,,,,,,,,,,,,,,,,,,,,,,,,,,51,candado,,,,,874.2631,875.4956,1,1,0.6993,,0,66,66,50,1,REAL,FAKE,,,,,,,,,,,,,,,,,
,,,,,,,,,675c98d1c5cd2106ffd74570,Spanish,13 or older,"no, only English or Spanish",no,2025-07-23_08h52.14.142,empathy_intonation_perc,2024.2.4,MacIntel,60.24096386,675c98d1c5cd2106ffd74570,687ed1b7e638a4cbf2f02089,6880dac1588816118ed8a384,,,,,,,,,,,,,,1,,,,,,,,,,,,,,,,,,,,,,,,,,,,,,,,,,,,,,,,,,,,,,,,,,,,,,,,,44,cuchara,,,,,875.4963,876.9219,0,0,0.8839,,0,67,67,43,1,REAL,FAKE,,,,,,,,,,,,,,,,,
,,,,,,,,,675c98d1c5cd2106ffd74570,Spanish,13 or older,"no, only English or Spanish",no,2025-07-23_08h52.14.142,empathy_intonation_perc,2024.2.4,MacIntel,60.24096386,675c98d1c5cd2106ffd74570,687ed1b7e638a4cbf2f02089,6880dac1588816118ed8a384,,,,,,,,,,,,,,1,,,,,,,,,,,,,,,,,,,,,,,,,,,,,,,,,,,,,,,,,,,,,,,,,,,,,,,,,43,canela,,,,,876.9225,878.3628,0,0,0.9183,,0,68,68,42,1,REAL,FAKE,,,,,,,,,,,,,,,,,
,,,,,,,,,675c98d1c5cd2106ffd74570,Spanish,13 or older,"no, only English or Spanish",no,2025-07-23_08h52.14.142,empathy_intonation_perc,2024.2.4,MacIntel,60.24096386,675c98d1c5cd2106ffd74570,687ed1b7e638a4cbf2f02089,6880dac1588816118ed8a384,,,,,,,,,,,,,,0,,,,,,,,,,,,,,,,,,,,,,,,,,,,,,,,,,,,,,,,,,,,,,,,,,,,,,,,,1,terzo,,,,,878.3634,879.5624,0,1,0.6823,,0,69,69,0,1,REAL,FAKE,,,,,,,,,,,,,,,,,
,,,,,,,,,675c98d1c5cd2106ffd74570,Spanish,13 or older,"no, only English or Spanish",no,2025-07-23_08h52.14.142,empathy_intonation_perc,2024.2.4,MacIntel,60.24096386,675c98d1c5cd2106ffd74570,687ed1b7e638a4cbf2f02089,6880dac1588816118ed8a384,,,,,,,,,,,,,,0,,,,,,,,,,,,,,,,,,,,,,,,,,,,,,,,,,,,,,,,,,,,,,,,,,,,,,,,,19,brecedad,,,,,879.563,880.7489,0,1,0.6604,,0,70,70,18,1,REAL,FAKE,,,,,,,,,,,,,,,,,
,,,,,,,,,675c98d1c5cd2106ffd74570,Spanish,13 or older,"no, only English or Spanish",no,2025-07-23_08h52.14.142,empathy_intonation_perc,2024.2.4,MacIntel,60.24096386,675c98d1c5cd2106ffd74570,687ed1b7e638a4cbf2f02089,6880dac1588816118ed8a384,,,,,,,,,,,,,,1,,,,,,,,,,,,,,,,,,,,,,,,,,,,,,,,,,,,,,,,,,,,,,,,,,,,,,,,,41,rebuscar,,,,,880.7496,883.0149,1,1,1.7353,,0,71,71,40,1,REAL,FAKE,,,,,,,,,,,,,,,,,
,,,,,,,,,675c98d1c5cd2106ffd74570,Spanish,13 or older,"no, only English or Spanish",no,2025-07-23_08h52.14.142,empathy_intonation_perc,2024.2.4,MacIntel,60.24096386,675c98d1c5cd2106ffd74570,687ed1b7e638a4cbf2f02089,6880dac1588816118ed8a384,,,,,,,,,,,,,,1,,,,,,,,,,,,,,,,,,,,,,,,,,,,,,,,,,,,,,,,,,,,,,,,,,,,,,,,,31,pandilla,,,,,883.0156,884.5298,0,0,0.9749,,0,72,72,30,1,REAL,FAKE,,,,,,,,,,,,,,,,,
,,,,,,,,,675c98d1c5cd2106ffd74570,Spanish,13 or older,"no, only English or Spanish",no,2025-07-23_08h52.14.142,empathy_intonation_perc,2024.2.4,MacIntel,60.24096386,675c98d1c5cd2106ffd74570,687ed1b7e638a4cbf2f02089,6880dac1588816118ed8a384,,,,,,,,,,,,,,1,,,,,,,,,,,,,,,,,,,,,,,,,,,,,,,,,,,,,,,,,,,,,,,,,,,,,,,,,14,yunque,,,,,884.5304,885.6978,0,0,0.6269,,0,73,73,13,1,REAL,FAKE,,,,,,,,,,,,,,,,,
,,,,,,,,,675c98d1c5cd2106ffd74570,Spanish,13 or older,"no, only English or Spanish",no,2025-07-23_08h52.14.142,empathy_intonation_perc,2024.2.4,MacIntel,60.24096386,675c98d1c5cd2106ffd74570,687ed1b7e638a4cbf2f02089,6880dac1588816118ed8a384,,,,,,,,,,,,,,0,,,,,,,,,,,,,,,,,,,,,,,,,,,,,,,,,,,,,,,,,,,,,,,,,,,,,,,,,50,flamida,,,,,885.6984,887.2313,0,1,0.985,,0,74,74,49,1,REAL,FAKE,,,,,,,,,,,,,,,,,
,,,,,,,,,675c98d1c5cd2106ffd74570,Spanish,13 or older,"no, only English or Spanish",no,2025-07-23_08h52.14.142,empathy_intonation_perc,2024.2.4,MacIntel,60.24096386,675c98d1c5cd2106ffd74570,687ed1b7e638a4cbf2f02089,6880dac1588816118ed8a384,,,,,,,,,,,,,,1,,,,,,,,,,,,,,,,,,,,,,,,,,,,,,,,,,,,,,,,,,,,,,,,,,,,,,,,,65,bizcocho,,,,,887.2319,888.5294,0,0,0.7673,,0,75,75,64,1,REAL,FAKE,,,,,,,,,,,,,,,,,
,,,,,,,,,675c98d1c5cd2106ffd74570,Spanish,13 or older,"no, only English or Spanish",no,2025-07-23_08h52.14.142,empathy_intonation_perc,2024.2.4,MacIntel,60.24096386,675c98d1c5cd2106ffd74570,687ed1b7e638a4cbf2f02089,6880dac1588816118ed8a384,,,,,,,,,,,,,,1,,,,,,,,,,,,,,,,,,,,,,,,,,,,,,,,,,,,,,,,,,,,,,,,,,,,,,,,,67,cabello,,,,,888.5302,890.0478,0,0,0.9846,,0,76,76,66,1,REAL,FAKE,,,,,,,,,,,,,,,,,
,,,,,,,,,675c98d1c5cd2106ffd74570,Spanish,13 or older,"no, only English or Spanish",no,2025-07-23_08h52.14.142,empathy_intonation_perc,2024.2.4,MacIntel,60.24096386,675c98d1c5cd2106ffd74570,687ed1b7e638a4cbf2f02089,6880dac1588816118ed8a384,,,,,,,,,,,,,,1,,,,,,,,,,,,,,,,,,,,,,,,,,,,,,,,,,,,,,,,,,,,,,,,,,,,,,,,,20,ávido,,,,,890.0485,891.1978,1,1,0.6013,,0,77,77,19,1,REAL,FAKE,,,,,,,,,,,,,,,,,
,,,,,,,,,675c98d1c5cd2106ffd74570,Spanish,13 or older,"no, only English or Spanish",no,2025-07-23_08h52.14.142,empathy_intonation_perc,2024.2.4,MacIntel,60.24096386,675c98d1c5cd2106ffd74570,687ed1b7e638a4cbf2f02089,6880dac1588816118ed8a384,,,,,,,,,,,,,,0,,,,,,,,,,,,,,,,,,,,,,,,,,,,,,,,,,,,,,,,,,,,,,,,,,,,,,,,,23,lampera,,,,,891.1983,892.9435,0,1,1.213,,0,78,78,22,1,REAL,FAKE,,,,,,,,,,,,,,,,,
,,,,,,,,,675c98d1c5cd2106ffd74570,Spanish,13 or older,"no, only English or Spanish",no,2025-07-23_08h52.14.142,empathy_intonation_perc,2024.2.4,MacIntel,60.24096386,675c98d1c5cd2106ffd74570,687ed1b7e638a4cbf2f02089,6880dac1588816118ed8a384,,,,,,,,,,,,,,0,,,,,,,,,,,,,,,,,,,,,,,,,,,,,,,,,,,,,,,,,,,,,,,,,,,,,,,,,30,alardio,,,,,892.9441,895.7639,1,0,2.2919,,0,79,79,29,1,REAL,FAKE,,,,,,,,,,,,,,,,,
,,,,,,,,,675c98d1c5cd2106ffd74570,Spanish,13 or older,"no, only English or Spanish",no,2025-07-23_08h52.14.142,empathy_intonation_perc,2024.2.4,MacIntel,60.24096386,675c98d1c5cd2106ffd74570,687ed1b7e638a4cbf2f02089,6880dac1588816118ed8a384,,,,,,,,,,,,,,1,,,,,,,,,,,,,,,,,,,,,,,,,,,,,,,,,,,,,,,,,,,,,,,,,,,,,,,,,11,cenefa,,,,,895.7645,897.0219,0,0,0.7327,,0,80,80,10,1,REAL,FAKE,,,,,,,,,,,,,,,,,
,,,,,,,,,675c98d1c5cd2106ffd74570,Spanish,13 or older,"no, only English or Spanish",no,2025-07-23_08h52.14.142,empathy_intonation_perc,2024.2.4,MacIntel,60.24096386,675c98d1c5cd2106ffd74570,687ed1b7e638a4cbf2f02089,6880dac1588816118ed8a384,,,,,,,,,,,,,,0,,,,,,,,,,,,,,,,,,,,,,,,,,,,,,,,,,,,,,,,,,,,,,,,,,,,,,,,,33,pauca,,,,,897.0225,898.5946,0,1,1.0401,,0,81,81,32,1,REAL,FAKE,,,,,,,,,,,,,,,,,
,,,,,,,,,675c98d1c5cd2106ffd74570,Spanish,13 or older,"no, only English or Spanish",no,2025-07-23_08h52.14.142,empathy_intonation_perc,2024.2.4,MacIntel,60.24096386,675c98d1c5cd2106ffd74570,687ed1b7e638a4cbf2f02089,6880dac1588816118ed8a384,,,,,,,,,,,,,,0,,,,,,,,,,,,,,,,,,,,,,,,,,,,,,,,,,,,,,,,,,,,,,,,,,,,,,,,,84,escuto,,,,,898.5952,900.2142,0,1,1.0921,,0,82,82,83,1,REAL,FAKE,,,,,,,,,,,,,,,,,
,,,,,,,,,675c98d1c5cd2106ffd74570,Spanish,13 or older,"no, only English or Spanish",no,2025-07-23_08h52.14.142,empathy_intonation_perc,2024.2.4,MacIntel,60.24096386,675c98d1c5cd2106ffd74570,687ed1b7e638a4cbf2f02089,6880dac1588816118ed8a384,,,,,,,,,,,,,,0,,,,,,,,,,,,,,,,,,,,,,,,,,,,,,,,,,,,,,,,,,,,,,,,,,,,,,,,,8,cadeña,,,,,900.2148,901.4067,1,0,0.66,,0,83,83,7,1,REAL,FAKE,,,,,,,,,,,,,,,,,
,,,,,,,,,675c98d1c5cd2106ffd74570,Spanish,13 or older,"no, only English or Spanish",no,2025-07-23_08h52.14.142,empathy_intonation_perc,2024.2.4,MacIntel,60.24096386,675c98d1c5cd2106ffd74570,687ed1b7e638a4cbf2f02089,6880dac1588816118ed8a384,,,,,,,,,,,,,,0,,,,,,,,,,,,,,,,,,,,,,,,,,,,,,,,,,,,,,,,,,,,,,,,,,,,,,,,,18,arsa,,,,,901.4073,902.6821,0,1,0.7374,,0,84,84,17,1,REAL,FAKE,,,,,,,,,,,,,,,,,
,,,,,,,,,675c98d1c5cd2106ffd74570,Spanish,13 or older,"no, only English or Spanish",no,2025-07-23_08h52.14.142,empathy_intonation_perc,2024.2.4,MacIntel,60.24096386,675c98d1c5cd2106ffd74570,687ed1b7e638a4cbf2f02089,6880dac1588816118ed8a384,,,,,,,,,,,,,,1,,,,,,,,,,,,,,,,,,,,,,,,,,,,,,,,,,,,,,,,,,,,,,,,,,,,,,,,,69,engatusar,,,,,902.6826,903.8968,0,0,0.6814,,0,85,85,68,1,REAL,FAKE,,,,,,,,,,,,,,,,,
,,,,,,,,,675c98d1c5cd2106ffd74570,Spanish,13 or older,"no, only English or Spanish",no,2025-07-23_08h52.14.142,empathy_intonation_perc,2024.2.4,MacIntel,60.24096386,675c98d1c5cd2106ffd74570,687ed1b7e638a4cbf2f02089,6880dac1588816118ed8a384,,,,,,,,,,,,,,0,,,,,,,,,,,,,,,,,,,,,,,,,,,,,,,,,,,,,,,,,,,,,,,,,,,,,,,,,72,pemición,,,,,903.8975,905.5327,1,0,1.102,,0,86,86,71,1,REAL,FAKE,,,,,,,,,,,,,,,,,
,,,,,,,,,675c98d1c5cd2106ffd74570,Spanish,13 or older,"no, only English or Spanish",no,2025-07-23_08h52.14.142,empathy_intonation_perc,2024.2.4,MacIntel,60.24096386,675c98d1c5cd2106ffd74570,687ed1b7e638a4cbf2f02089,6880dac1588816118ed8a384,,,,,,,,,,,,,,1,,,,,,,,,,,,,,,,,,,,,,,,,,,,,,,,,,,,,,,,,,,,,,,,,,,,,,,,,25,bisagra,,,,,905.5333,906.7652,0,0,0.6916,,0,87,87,24,1,REAL,FAKE,,,,,,,,,,,,,,,,,
,,,,,,,,,675c98d1c5cd2106ffd74570,Spanish,13 or older,"no, only English or Spanish",no,2025-07-23_08h52.14.142,empathy_intonation_perc,2024.2.4,MacIntel,60.24096386,675c98d1c5cd2106ffd74570,687ed1b7e638a4cbf2f02089,6880dac1588816118ed8a384,,,,,,,,,,,,,,1,,,,,,,,,,,,,,,,,,,,,,,,,,,,,,,,,,,,,,,,,,,,,,,,,,,,,,,,,71,polvoriento,,,,,906.7658,908.4453,0,0,1.149,,0,88,88,70,1,REAL,FAKE,,,,,,,,,,,,,,,,,
,,,,,,,,,675c98d1c5cd2106ffd74570,Spanish,13 or older,"no, only English or Spanish",no,2025-07-23_08h52.14.142,empathy_intonation_perc,2024.2.4,MacIntel,60.24096386,675c98d1c5cd2106ffd74570,687ed1b7e638a4cbf2f02089,6880dac1588816118ed8a384,,,,,,,,,,,,,,1,,,,,,,,,,,,,,,,,,,,,,,,,,,,,,,,,,,,,,,,,,,,,,,,,,,,,,,,,56,musgo,,,,,908.446,909.6453,0,0,0.6815,,0,89,89,55,1,REAL,FAKE,,,,,,,,,,,,,,,,,
,,,,,,,,,675c98d1c5cd2106ffd74570,Spanish,13 or older,"no, only English or Spanish",no,2025-07-23_08h52.14.142,empathy_intonation_perc,2024.2.4,MacIntel,60.24096386,675c98d1c5cd2106ffd74570,687ed1b7e638a4cbf2f02089,6880dac1588816118ed8a384,,,,,,,,,,,,,,1,,,,,,,,,,,,,,,,,,,,,,,,,,,,,,,,,,,,,,,,,,,,,,,,,,,,,,,,,22,lacayo,,,,,909.6459,911.1299,0,0,0.9507,,0,90,90,21,1,REAL,FAKE,,,,,,,,,,,,,,,,,
,,,,,,,,,675c98d1c5cd2106ffd74570,Spanish,13 or older,"no, only English or Spanish",no,2025-07-23_08h52.14.142,empathy_intonation_perc,2024.2.4,MacIntel,60.24096386,675c98d1c5cd2106ffd74570,687ed1b7e638a4cbf2f02089,6880dac1588816118ed8a384,,,,,,,,,,,,,,0,,,,,,,,,,,,,,,,,,,,,,,,,,,,,,,,,,,,,,,,,,,,,,,,,,,,,,,,,87,grodo,,,,,911.1306,912.2304,0,1,0.5656,,0,91,91,86,1,REAL,FAKE,,,,,,,,,,,,,,,,,
,,,,,,,,,675c98d1c5cd2106ffd74570,Spanish,13 or older,"no, only English or Spanish",no,2025-07-23_08h52.14.142,empathy_intonation_perc,2024.2.4,MacIntel,60.24096386,675c98d1c5cd2106ffd74570,687ed1b7e638a4cbf2f02089,6880dac1588816118ed8a384,,,,,,,,,,,,,,,,,,,,,,,,,,,,,,,,,,,,,,,,,,,,,,,,,,,,,,,,,,,,,,,,,,,,,,,,,,,,,,,,,,,,,,,,,,912.2306,1045.9859,,,,,,,,,,,,,,,
,,,,,,,,,675c98d1c5cd2106ffd74570,Spanish,13 or older,"no, only English or Spanish",no,2025-07-23_08h52.14.142,empathy_intonation_perc,2024.2.4,MacIntel,60.24096386,675c98d1c5cd2106ffd74570,687ed1b7e638a4cbf2f02089,6880dac1588816118ed8a384,,,,,,,,,,,,,1,,,,,,,,,,,,,,,,,,,,,,,,,,,,,,,,,,,,,,,,,,,,,,,,,,,,,,,,,,,,,,,,,,,,,,,,,,,,,,,1045.9946,1053.1008,strongly agree,0,0,0,0,1,I can easily tell if someone else wants to enter a conversation.,1,0,1,0,,
,,,,,,,,,675c98d1c5cd2106ffd74570,Spanish,13 or older,"no, only English or Spanish",no,2025-07-23_08h52.14.142,empathy_intonation_perc,2024.2.4,MacIntel,60.24096386,675c98d1c5cd2106ffd74570,687ed1b7e638a4cbf2f02089,6880dac1588816118ed8a384,,,,,,,,,,,,,2,,,,,,,,,,,,,,,,,,,,,,,,,,,,,,,,,,,,,,,,,,,,,,,,,,,,,,,,,,,,,,,,,,,,,,,,,,,,,,,1053.1015,1057.7989,slightly agree,0,1,1,1,1,I prefer animals to humans.,0,1,0,0,,
,,,,,,,,,675c98d1c5cd2106ffd74570,Spanish,13 or older,"no, only English or Spanish",no,2025-07-23_08h52.14.142,empathy_intonation_perc,2024.2.4,MacIntel,60.24096386,675c98d1c5cd2106ffd74570,687ed1b7e638a4cbf2f02089,6880dac1588816118ed8a384,,,,,,,,,,,,,3,,,,,,,,,,,,,,,,,,,,,,,,,,,,,,,,,,,,,,,,,,,,,,,,,,,,,,,,,,,,,,,,,,,,,,,,,,,,,,,1057.7998,1060.4309,slightly disagree,0,2,2,2,1,I try to keep up with the current trends and fashions.,0,1,0,0,,
,,,,,,,,,675c98d1c5cd2106ffd74570,Spanish,13 or older,"no, only English or Spanish",no,2025-07-23_08h52.14.142,empathy_intonation_perc,2024.2.4,MacIntel,60.24096386,675c98d1c5cd2106ffd74570,687ed1b7e638a4cbf2f02089,6880dac1588816118ed8a384,,,,,,,,,,,,,4,,,,,,,,,,,,,,,,,,,,,,,,,,,,,,,,,,,,,,,,,,,,,,,,,,,,,,,,,,,,,,,,,,,,,,,,,,,,,,,1060.4318,1069.2841,slightly disagree,0,3,3,3,1,"I find it difficult to explain to others things that I understand easily,   when they don't understand it first time.",1,0,0,1,,
,,,,,,,,,675c98d1c5cd2106ffd74570,Spanish,13 or older,"no, only English or Spanish",no,2025-07-23_08h52.14.142,empathy_intonation_perc,2024.2.4,MacIntel,60.24096386,675c98d1c5cd2106ffd74570,687ed1b7e638a4cbf2f02089,6880dac1588816118ed8a384,,,,,,,,,,,,,5,,,,,,,,,,,,,,,,,,,,,,,,,,,,,,,,,,,,,,,,,,,,,,,,,,,,,,,,,,,,,,,,,,,,,,,,,,,,,,,1069.2848,1071.6838,slightly disagree,0,4,4,4,1,I dream most nights.,0,1,0,0,,
,,,,,,,,,675c98d1c5cd2106ffd74570,Spanish,13 or older,"no, only English or Spanish",no,2025-07-23_08h52.14.142,empathy_intonation_perc,2024.2.4,MacIntel,60.24096386,675c98d1c5cd2106ffd74570,687ed1b7e638a4cbf2f02089,6880dac1588816118ed8a384,,,,,,,,,,,,,6,,,,,,,,,,,,,,,,,,,,,,,,,,,,,,,,,,,,,,,,,,,,,,,,,,,,,,,,,,,,,,,,,,,,,,,,,,,,,,,1071.6847,1074.4295,slightly agree,0,5,5,5,1,I really enjoy caring for other people.,1,0,1,0,,
,,,,,,,,,675c98d1c5cd2106ffd74570,Spanish,13 or older,"no, only English or Spanish",no,2025-07-23_08h52.14.142,empathy_intonation_perc,2024.2.4,MacIntel,60.24096386,675c98d1c5cd2106ffd74570,687ed1b7e638a4cbf2f02089,6880dac1588816118ed8a384,,,,,,,,,,,,,7,,,,,,,,,,,,,,,,,,,,,,,,,,,,,,,,,,,,,,,,,,,,,,,,,,,,,,,,,,,,,,,,,,,,,,,,,,,,,,,1074.4303,1079.5328,strongly agree,0,6,6,6,1,I try to solve my own problems rather than discussing them with others.,0,1,0,0,,
,,,,,,,,,675c98d1c5cd2106ffd74570,Spanish,13 or older,"no, only English or Spanish",no,2025-07-23_08h52.14.142,empathy_intonation_perc,2024.2.4,MacIntel,60.24096386,675c98d1c5cd2106ffd74570,687ed1b7e638a4cbf2f02089,6880dac1588816118ed8a384,,,,,,,,,,,,,8,,,,,,,,,,,,,,,,,,,,,,,,,,,,,,,,,,,,,,,,,,,,,,,,,,,,,,,,,,,,,,,,,,,,,,,,,,,,,,,1079.5336,1084.3324,slightly disagree,0,7,7,7,1,I find it hard to know what to do in a social situation.,1,0,0,1,,
