instructions_exposure.started,instructions_exposure.stopped,instructions_exposure_loop.thisRepN,instructions_exposure_loop.thisTrialN,instructions_exposure_loop.thisN,instructions_exposure_loop.thisIndex,instructions_exposure_loop.ran,instructions_text,continue_text,participant_id,"What variety of Spanish are you most familiar with? (e.g., Peruvian, Spanish, Mexican)",At what age did you begin learning Spanish?,Are you proficient in any languages other than English/Spanish?,"Are you familiar with Caribbean (e.g., Caribbean, Puerto Rican) or Galician Spanish?",date,expName,psychopyVersion,OS,frameRate,id,study_id,session,trial_exposure.started,trial_exposure.stopped,key_resp_exposure.keys,key_resp_exposure.corr,key_resp_exposure.rt,key_resp_exposure.duration,key_resp.keys,exposure_loop.thisRepN,exposure_loop.thisTrialN,exposure_loop.thisN,exposure_loop.thisIndex,exposure_loop.ran,item_num,correct_response,question,path,duration,instructions_2afc.started,instructions_2afc.stopped,instructions_2afc_loop.thisRepN,instructions_2afc_loop.thisTrialN,instructions_2afc_loop.thisN,instructions_2afc_loop.thisIndex,instructions_2afc_loop.ran,practice_2afc.started,practice_2afc.stopped,key_resp_2afc_practice.keys,key_resp_2afc_practice.corr,key_resp_2afc_practice.rt,key_resp_2afc_practice.duration,trials_2afc_practice_loop.thisRepN,trials_2afc_practice_loop.thisTrialN,trials_2afc_practice_loop.thisN,trials_2afc_practice_loop.thisIndex,trials_2afc_practice_loop.ran,check_2afc.started,check_2afc.stopped,trial_2afc.started,trial_2afc.stopped,key_resp_2afc_trial.keys,key_resp_2afc_trial.corr,key_resp_2afc_trial.rt,key_resp_2afc_trial.duration,trials_2afc_loop.thisRepN,trials_2afc_loop.thisTrialN,trials_2afc_loop.thisN,trials_2afc_loop.thisIndex,trials_2afc_loop.ran,target,variety,instructions_lextale.started,instructions_lextale.stopped,instructions_lextale_loop.thisRepN,instructions_lextale_loop.thisTrialN,instructions_lextale_loop.thisN,instructions_lextale_loop.thisIndex,instructions_lextale_loop.ran,practice_lextale.started,practice_lextale.stopped,key_resp_lextale_practice.keys,key_resp_lextale_practice.corr,key_resp_lextale_practice.rt,key_resp_lextale_practice.duration,practice_feedback_lextale.started,practice_feedback_lextale.stopped,trials_lextale_practice_loop.thisRepN,trials_lextale_practice_loop.thisTrialN,trials_lextale_practice_loop.thisN,trials_lextale_practice_loop.thisIndex,trials_lextale_practice_loop.ran,stim,word,prac_button_real,prac_button_false,check_lextale.started,check_lextale.stopped,trial_lextale.started,trial_lextale.stopped,key_resp_lextale_trial.keys,key_resp_lextale_trial.corr,key_resp_lextale_trial.rt,key_resp_lextale_trial.duration,trials_lextale_loop.thisRepN,trials_lextale_loop.thisTrialN,trials_lextale_loop.thisN,trials_lextale_loop.thisIndex,trials_lextale_loop.ran,button_real,button_false,instructions_eq.started,instructions_eq.stopped,trial_eq.started,trial_eq.stopped,slider_eq_trial.response,trials_eq_loop.thisRepN,trials_eq_loop.thisTrialN,trials_eq_loop.thisN,trials_eq_loop.thisIndex,trials_eq_loop.ran,item,is_test_item,is_distractor,is_agree_score,is_disagree_score,end_exp.started,end_exp.stopped
0.0351,5.4577,0,0,0,0,1,"In the following task, you are going to hear a series of conversations.", (press the space bar to continue),675c5393b9b2d381baa880c2,spanish,13 or older,"no, only English or Spanish",no,2025-07-22_21h27.30.450,empathy_intonation_perc,2024.2.4,Win32,59.88023952,675c5393b9b2d381baa880c2,687ed1b7e638a4cbf2f02089,68803a54bebdaa1862b857b2,,,,,,,,,,,,,,,,,,,,,,,,,,,,,,,,,,,,,,,,,,,,,,,,,,,,,,,,,,,,,,,,,,,,,,,,,,,,,,,,,,,,,,,,,,,,,,,,,,,,,,,,,,
5.4589,7.7698,0,1,1,1,1,It is okay if you don't not 100% understand them!, (press the space bar to continue),675c5393b9b2d381baa880c2,spanish,13 or older,"no, only English or Spanish",no,2025-07-22_21h27.30.450,empathy_intonation_perc,2024.2.4,Win32,59.88023952,675c5393b9b2d381baa880c2,687ed1b7e638a4cbf2f02089,68803a54bebdaa1862b857b2,,,,,,,,,,,,,,,,,,,,,,,,,,,,,,,,,,,,,,,,,,,,,,,,,,,,,,,,,,,,,,,,,,,,,,,,,,,,,,,,,,,,,,,,,,,,,,,,,,,,,,,,,,
7.7731,9.9841,0,2,2,2,1,"After, you will read a sentence about the conversation and decide if it's true or false.", (press the space bar to continue),675c5393b9b2d381baa880c2,spanish,13 or older,"no, only English or Spanish",no,2025-07-22_21h27.30.450,empathy_intonation_perc,2024.2.4,Win32,59.88023952,675c5393b9b2d381baa880c2,687ed1b7e638a4cbf2f02089,68803a54bebdaa1862b857b2,,,,,,,,,,,,,,,,,,,,,,,,,,,,,,,,,,,,,,,,,,,,,,,,,,,,,,,,,,,,,,,,,,,,,,,,,,,,,,,,,,,,,,,,,,,,,,,,,,,,,,,,,,
9.9873,11.8004,0,3,3,3,1,"If it's true, press '1' (True) and if it's false press '0' (False).", (press the space bar to continue),675c5393b9b2d381baa880c2,spanish,13 or older,"no, only English or Spanish",no,2025-07-22_21h27.30.450,empathy_intonation_perc,2024.2.4,Win32,59.88023952,675c5393b9b2d381baa880c2,687ed1b7e638a4cbf2f02089,68803a54bebdaa1862b857b2,,,,,,,,,,,,,,,,,,,,,,,,,,,,,,,,,,,,,,,,,,,,,,,,,,,,,,,,,,,,,,,,,,,,,,,,,,,,,,,,,,,,,,,,,,,,,,,,,,,,,,,,,,
,,,,,,,,,675c5393b9b2d381baa880c2,spanish,13 or older,"no, only English or Spanish",no,2025-07-22_21h27.30.450,empathy_intonation_perc,2024.2.4,Win32,59.88023952,675c5393b9b2d381baa880c2,687ed1b7e638a4cbf2f02089,68803a54bebdaa1862b857b2,11.8185,53.169,0,1,5.2851,,,0,0,0,2,1,3,0,The mom already has rice.,./stim/exposure_wavs/pr_stimuli_convo.wav,36,,,,,,,,,,,,,,,,,,,,,,,,,,,,,,,,,,,,,,,,,,,,,,,,,,,,,,,,,,,,,,,,,,,,,,,,,,,,,,,,,,,,,,,,,
,,,,,,,,,675c5393b9b2d381baa880c2,spanish,13 or older,"no, only English or Spanish",no,2025-07-22_21h27.30.450,empathy_intonation_perc,2024.2.4,Win32,59.88023952,675c5393b9b2d381baa880c2,687ed1b7e638a4cbf2f02089,68803a54bebdaa1862b857b2,53.1753,119.3952,1,1,6.1256,,,0,1,1,1,1,2,1,The mom asked the daughter if she already went to the supermarket.,./stim/exposure_wavs/dr_stimuli_convo.wav,60,,,,,,,,,,,,,,,,,,,,,,,,,,,,,,,,,,,,,,,,,,,,,,,,,,,,,,,,,,,,,,,,,,,,,,,,,,,,,,,,,,,,,,,,,
,,,,,,,,,675c5393b9b2d381baa880c2,spanish,13 or older,"no, only English or Spanish",no,2025-07-22_21h27.30.450,empathy_intonation_perc,2024.2.4,Win32,59.88023952,675c5393b9b2d381baa880c2,687ed1b7e638a4cbf2f02089,68803a54bebdaa1862b857b2,119.3988,176.0149,0,0,9.5233,,,0,2,2,0,1,1,1,The son asked the mom if Aunt Marina is okay.,./stim/exposure_wavs/ga_stimuli_convo.wav,47,,,,,,,,,,,,,,,,,,,,,,,,,,,,,,,,,,,,,,,,,,,,,,,,,,,,,,,,,,,,,,,,,,,,,,,,,,,,,,,,,,,,,,,,,
,,,,,,,"In the following task you are going to hear a series of utterances. 

  You will decide if the utterances sound like questions or not using your keyboard.", (press the spacebar to continue),675c5393b9b2d381baa880c2,spanish,13 or older,"no, only English or Spanish",no,2025-07-22_21h27.30.450,empathy_intonation_perc,2024.2.4,Win32,59.88023952,675c5393b9b2d381baa880c2,687ed1b7e638a4cbf2f02089,68803a54bebdaa1862b857b2,,,,,,,,,,,,,,,,,,176.0263,182.2323,0,0,0,0,1,,,,,,,,,,,,,,,,,,,,,,,,,,,,,,,,,,,,,,,,,,,,,,,,,,,,,,,,,,,,,,,,,,,,,,,,,,,,,,,,,,
,,,,,,,"If you believe the utterance is a question, type '1' (for 'yes') and if you do not 
  believe it is a question type '0' (for 'no').

  Let's practice a bit...", (press the spacebar to continue),675c5393b9b2d381baa880c2,spanish,13 or older,"no, only English or Spanish",no,2025-07-22_21h27.30.450,empathy_intonation_perc,2024.2.4,Win32,59.88023952,675c5393b9b2d381baa880c2,687ed1b7e638a4cbf2f02089,68803a54bebdaa1862b857b2,,,,,,,,,,,,,,,,,,182.2362,187.5779,0,1,1,1,1,,,,,,,,,,,,,,,,,,,,,,,,,,,,,,,,,,,,,,,,,,,,,,,,,,,,,,,,,,,,,,,,,,,,,,,,,,,,,,,,,,
,,,,,,,,,675c5393b9b2d381baa880c2,spanish,13 or older,"no, only English or Spanish",no,2025-07-22_21h27.30.450,empathy_intonation_perc,2024.2.4,Win32,59.88023952,675c5393b9b2d381baa880c2,687ed1b7e638a4cbf2f02089,68803a54bebdaa1862b857b2,,,,,,,,,,,,,,0,,./stim/wavs/peruvian_statement_filler_El-nino-habla-con-su-madre.wav,,,,,,,,,187.5913,191.8904,0,1,3.7799,,0,0,0,6,1,,,,,,,,,,,,,,,,,,,,,,,,,,,,,,,,,,,,,,,,,,,,,,,,,,,,,,,,,,,,,,,,,,,,,,,
,,,,,,,,,675c5393b9b2d381baa880c2,spanish,13 or older,"no, only English or Spanish",no,2025-07-22_21h27.30.450,empathy_intonation_perc,2024.2.4,Win32,59.88023952,675c5393b9b2d381baa880c2,687ed1b7e638a4cbf2f02089,68803a54bebdaa1862b857b2,,,,,,,,,,,,,,1,,./stim/wavs/argentine_question_filler_Mi-vecino-habla-mucho.wav,,,,,,,,,191.8915,195.5092,1,1,3.0946,,0,1,1,1,1,,,,,,,,,,,,,,,,,,,,,,,,,,,,,,,,,,,,,,,,,,,,,,,,,,,,,,,,,,,,,,,,,,,,,,,
,,,,,,,,,675c5393b9b2d381baa880c2,spanish,13 or older,"no, only English or Spanish",no,2025-07-22_21h27.30.450,empathy_intonation_perc,2024.2.4,Win32,59.88023952,675c5393b9b2d381baa880c2,687ed1b7e638a4cbf2f02089,68803a54bebdaa1862b857b2,,,,,,,,,,,,,,1,,./stim/wavs/castilian_question_filler_Mi-esposo-conoce-al-chico.wav,,,,,,,,,195.5104,199.0757,0,0,3.008,,0,2,2,0,1,,,,,,,,,,,,,,,,,,,,,,,,,,,,,,,,,,,,,,,,,,,,,,,,,,,,,,,,,,,,,,,,,,,,,,,
,,,,,,,,,675c5393b9b2d381baa880c2,spanish,13 or older,"no, only English or Spanish",no,2025-07-22_21h27.30.450,empathy_intonation_perc,2024.2.4,Win32,59.88023952,675c5393b9b2d381baa880c2,687ed1b7e638a4cbf2f02089,68803a54bebdaa1862b857b2,,,,,,,,,,,,,,0,,./stim/wavs/puertorican_statement_filler_La-nina-pinta-con-su-amiga.wav,,,,,,,,,199.0768,201.8185,0,1,2.2137,,0,3,3,7,1,,,,,,,,,,,,,,,,,,,,,,,,,,,,,,,,,,,,,,,,,,,,,,,,,,,,,,,,,,,,,,,,,,,,,,,
,,,,,,,,,675c5393b9b2d381baa880c2,spanish,13 or older,"no, only English or Spanish",no,2025-07-22_21h27.30.450,empathy_intonation_perc,2024.2.4,Win32,59.88023952,675c5393b9b2d381baa880c2,687ed1b7e638a4cbf2f02089,68803a54bebdaa1862b857b2,,,,,,,,,,,,,,1,,./stim/wavs/chilean_question_filler_Mi-padre-cantaba-bien.wav,,,,,,,,,201.8199,205.4326,1,1,3.0642,,0,4,4,2,1,,,,,,,,,,,,,,,,,,,,,,,,,,,,,,,,,,,,,,,,,,,,,,,,,,,,,,,,,,,,,,,,,,,,,,,
,,,,,,,,,675c5393b9b2d381baa880c2,spanish,13 or older,"no, only English or Spanish",no,2025-07-22_21h27.30.450,empathy_intonation_perc,2024.2.4,Win32,59.88023952,675c5393b9b2d381baa880c2,687ed1b7e638a4cbf2f02089,68803a54bebdaa1862b857b2,,,,,,,,,,,,,,0,,./stim/wavs/cuban_statement_filler_Cocinabas-por-la-noche.wav,,,,,,,,,205.434,208.4664,1,0,2.4767,,0,5,5,4,1,,,,,,,,,,,,,,,,,,,,,,,,,,,,,,,,,,,,,,,,,,,,,,,,,,,,,,,,,,,,,,,,,,,,,,,
,,,,,,,,,675c5393b9b2d381baa880c2,spanish,13 or older,"no, only English or Spanish",no,2025-07-22_21h27.30.450,empathy_intonation_perc,2024.2.4,Win32,59.88023952,675c5393b9b2d381baa880c2,687ed1b7e638a4cbf2f02089,68803a54bebdaa1862b857b2,,,,,,,,,,,,,,1,,./stim/wavs/mexican_question_filler_Felipe-no-tiene-contrasena.wav,,,,,,,,,208.4673,212.2034,0,0,3.2133,,0,6,6,3,1,,,,,,,,,,,,,,,,,,,,,,,,,,,,,,,,,,,,,,,,,,,,,,,,,,,,,,,,,,,,,,,,,,,,,,,
,,,,,,,,,675c5393b9b2d381baa880c2,spanish,13 or older,"no, only English or Spanish",no,2025-07-22_21h27.30.450,empathy_intonation_perc,2024.2.4,Win32,59.88023952,675c5393b9b2d381baa880c2,687ed1b7e638a4cbf2f02089,68803a54bebdaa1862b857b2,,,,,,,,,,,,,,0,,./stim/wavs/andalusian_statement_filler_Alberto-nunca-se-afeita.wav,,,,,,,,,212.2043,216.4203,0,1,3.6931,,0,7,7,5,1,,,,,,,,,,,,,,,,,,,,,,,,,,,,,,,,,,,,,,,,,,,,,,,,,,,,,,,,,,,,,,,,,,,,,,,
,,,,,,,,,675c5393b9b2d381baa880c2,spanish,13 or older,"no, only English or Spanish",no,2025-07-22_21h27.30.450,empathy_intonation_perc,2024.2.4,Win32,59.88023952,675c5393b9b2d381baa880c2,687ed1b7e638a4cbf2f02089,68803a54bebdaa1862b857b2,,,,,,,,,,,,,,,,,,,,,,,,,,,,,,,,,,,,216.4209,219.0524,,,,,,,,,,,,,,,,,,,,,,,,,,,,,,,,,,,,,,,,,,,,,,,,,,,,,,,,,,,,,,,,,,,,,
,,,,,,,,,675c5393b9b2d381baa880c2,spanish,13 or older,"no, only English or Spanish",no,2025-07-22_21h27.30.450,empathy_intonation_perc,2024.2.4,Win32,59.88023952,675c5393b9b2d381baa880c2,687ed1b7e638a4cbf2f02089,68803a54bebdaa1862b857b2,,,,,,,,,,,,,84,0,,./stim/wavs/puertorican_mismatch_declarative-broad-focus_El-bebe-comia-muy-bien.wav,,,,,,,,,,,,,,,,,,,,,,219.0826,222.3934,0,1,2.7343,,0,0,0,83,1,0,puertorican,,,,,,,,,,,,,,,,,,,,,,,,,,,,,,,,,,,,,,,,,,,,,,,,,,,,,,,,
,,,,,,,,,675c5393b9b2d381baa880c2,spanish,13 or older,"no, only English or Spanish",no,2025-07-22_21h27.30.450,empathy_intonation_perc,2024.2.4,Win32,59.88023952,675c5393b9b2d381baa880c2,687ed1b7e638a4cbf2f02089,68803a54bebdaa1862b857b2,,,,,,,,,,,,,86,0,,./stim/wavs/puertorican_mismatch_declarative-broad-focus_El-nino-oye-el-rio.wav,,,,,,,,,,,,,,,,,,,,,,222.3945,224.8799,1,0,1.9628,,0,1,1,85,1,0,puertorican,,,,,,,,,,,,,,,,,,,,,,,,,,,,,,,,,,,,,,,,,,,,,,,,,,,,,,,,
,,,,,,,,,675c5393b9b2d381baa880c2,spanish,13 or older,"no, only English or Spanish",no,2025-07-22_21h27.30.450,empathy_intonation_perc,2024.2.4,Win32,59.88023952,675c5393b9b2d381baa880c2,687ed1b7e638a4cbf2f02089,68803a54bebdaa1862b857b2,,,,,,,,,,,,,37,1,,./stim/wavs/mexican_mismatch_interrogative-total-yn_La-maestra-vive-en-Paris.wav,,,,,,,,,,,,,,,,,,,,,,224.8808,227.3876,1,1,1.9772,,0,2,2,36,1,0,mexican,,,,,,,,,,,,,,,,,,,,,,,,,,,,,,,,,,,,,,,,,,,,,,,,,,,,,,,,
,,,,,,,,,675c5393b9b2d381baa880c2,spanish,13 or older,"no, only English or Spanish",no,2025-07-22_21h27.30.450,empathy_intonation_perc,2024.2.4,Win32,59.88023952,675c5393b9b2d381baa880c2,687ed1b7e638a4cbf2f02089,68803a54bebdaa1862b857b2,,,,,,,,,,,,,72,0,,./stim/wavs/castilian_mismatch_declarative-broad-focus_Mi-novio-viene-del-lago.wav,,,,,,,,,,,,,,,,,,,,,,227.3884,230.5896,0,1,2.679,,0,3,3,71,1,0,castilian,,,,,,,,,,,,,,,,,,,,,,,,,,,,,,,,,,,,,,,,,,,,,,,,,,,,,,,,
,,,,,,,,,675c5393b9b2d381baa880c2,spanish,13 or older,"no, only English or Spanish",no,2025-07-22_21h27.30.450,empathy_intonation_perc,2024.2.4,Win32,59.88023952,675c5393b9b2d381baa880c2,687ed1b7e638a4cbf2f02089,68803a54bebdaa1862b857b2,,,,,,,,,,,,,43,1,,./stim/wavs/puertorican_mismatch_interrogative-total-yn_La-nina-lava-el-plato.wav,,,,,,,,,,,,,,,,,,,,,,230.5906,233.4997,0,0,2.3354,,0,4,4,42,1,1,puertorican,,,,,,,,,,,,,,,,,,,,,,,,,,,,,,,,,,,,,,,,,,,,,,,,,,,,,,,,
,,,,,,,,,675c5393b9b2d381baa880c2,spanish,13 or older,"no, only English or Spanish",no,2025-07-22_21h27.30.450,empathy_intonation_perc,2024.2.4,Win32,59.88023952,675c5393b9b2d381baa880c2,687ed1b7e638a4cbf2f02089,68803a54bebdaa1862b857b2,,,,,,,,,,,,,76,0,,./stim/wavs/cuban_mismatch_declarative-broad-focus_La-nina-lava-el-plato.wav,,,,,,,,,,,,,,,,,,,,,,233.5006,236.1458,0,1,2.1129,,0,5,5,75,1,0,cuban,,,,,,,,,,,,,,,,,,,,,,,,,,,,,,,,,,,,,,,,,,,,,,,,,,,,,,,,
,,,,,,,,,675c5393b9b2d381baa880c2,spanish,13 or older,"no, only English or Spanish",no,2025-07-22_21h27.30.450,empathy_intonation_perc,2024.2.4,Win32,59.88023952,675c5393b9b2d381baa880c2,687ed1b7e638a4cbf2f02089,68803a54bebdaa1862b857b2,,,,,,,,,,,,,11,1,,./stim/wavs/cuban_match_interrogative-total-yn_Mariano-habla-del-tiempo.wav,,,,,,,,,,,,,,,,,,,,,,236.147,239.1715,1,1,2.4488,,0,6,6,10,1,1,cuban,,,,,,,,,,,,,,,,,,,,,,,,,,,,,,,,,,,,,,,,,,,,,,,,,,,,,,,,
,,,,,,,,,675c5393b9b2d381baa880c2,spanish,13 or older,"no, only English or Spanish",no,2025-07-22_21h27.30.450,empathy_intonation_perc,2024.2.4,Win32,59.88023952,675c5393b9b2d381baa880c2,687ed1b7e638a4cbf2f02089,68803a54bebdaa1862b857b2,,,,,,,,,,,,,81,0,,./stim/wavs/mexican_mismatch_declarative-broad-focus_La-maestra-vive-en-Paris.wav,,,,,,,,,,,,,,,,,,,,,,239.1727,241.5027,1,0,1.7989,,0,7,7,80,1,0,mexican,,,,,,,,,,,,,,,,,,,,,,,,,,,,,,,,,,,,,,,,,,,,,,,,,,,,,,,,
,,,,,,,,,675c5393b9b2d381baa880c2,spanish,13 or older,"no, only English or Spanish",no,2025-07-22_21h27.30.450,empathy_intonation_perc,2024.2.4,Win32,59.88023952,675c5393b9b2d381baa880c2,687ed1b7e638a4cbf2f02089,68803a54bebdaa1862b857b2,,,,,,,,,,,,,30,1,,./stim/wavs/cuban_mismatch_interrogative-total-yn_El-hombre-mira-la-luna.wav,,,,,,,,,,,,,,,,,,,,,,241.504,244.9989,0,0,2.9639,,0,8,8,29,1,1,cuban,,,,,,,,,,,,,,,,,,,,,,,,,,,,,,,,,,,,,,,,,,,,,,,,,,,,,,,,
,,,,,,,,,675c5393b9b2d381baa880c2,spanish,13 or older,"no, only English or Spanish",no,2025-07-22_21h27.30.450,empathy_intonation_perc,2024.2.4,Win32,59.88023952,675c5393b9b2d381baa880c2,687ed1b7e638a4cbf2f02089,68803a54bebdaa1862b857b2,,,,,,,,,,,,,8,1,,./stim/wavs/cuban_match_interrogative-total-yn_Daniel-iba-a-Bolivia.wav,,,,,,,,,,,,,,,,,,,,,,245.0001,248.7781,1,1,3.247,,0,9,9,7,1,1,cuban,,,,,,,,,,,,,,,,,,,,,,,,,,,,,,,,,,,,,,,,,,,,,,,,,,,,,,,,
,,,,,,,,,675c5393b9b2d381baa880c2,spanish,13 or older,"no, only English or Spanish",no,2025-07-22_21h27.30.450,empathy_intonation_perc,2024.2.4,Win32,59.88023952,675c5393b9b2d381baa880c2,687ed1b7e638a4cbf2f02089,68803a54bebdaa1862b857b2,,,,,,,,,,,,,29,1,,./stim/wavs/castilian_mismatch_interrogative-total-yn_Mi-tia-odia-la-lluvia.wav,,,,,,,,,,,,,,,,,,,,,,248.7794,251.8268,1,1,2.516,,0,10,10,28,1,0,castilian,,,,,,,,,,,,,,,,,,,,,,,,,,,,,,,,,,,,,,,,,,,,,,,,,,,,,,,,
,,,,,,,,,675c5393b9b2d381baa880c2,spanish,13 or older,"no, only English or Spanish",no,2025-07-22_21h27.30.450,empathy_intonation_perc,2024.2.4,Win32,59.88023952,675c5393b9b2d381baa880c2,687ed1b7e638a4cbf2f02089,68803a54bebdaa1862b857b2,,,,,,,,,,,,,44,1,,./stim/wavs/puertorican_mismatch_interrogative-total-yn_Mi-madre-come-la-fruta.wav,,,,,,,,,,,,,,,,,,,,,,251.8281,254.1886,0,0,1.8319,,0,11,11,43,1,1,puertorican,,,,,,,,,,,,,,,,,,,,,,,,,,,,,,,,,,,,,,,,,,,,,,,,,,,,,,,,
,,,,,,,,,675c5393b9b2d381baa880c2,spanish,13 or older,"no, only English or Spanish",no,2025-07-22_21h27.30.450,empathy_intonation_perc,2024.2.4,Win32,59.88023952,675c5393b9b2d381baa880c2,687ed1b7e638a4cbf2f02089,68803a54bebdaa1862b857b2,,,,,,,,,,,,,41,1,,./stim/wavs/puertorican_mismatch_interrogative-total-yn_El-nino-oye-el-rio.wav,,,,,,,,,,,,,,,,,,,,,,254.1894,256.9601,1,1,2.2327,,0,12,12,40,1,1,puertorican,,,,,,,,,,,,,,,,,,,,,,,,,,,,,,,,,,,,,,,,,,,,,,,,,,,,,,,,
,,,,,,,,,675c5393b9b2d381baa880c2,spanish,13 or older,"no, only English or Spanish",no,2025-07-22_21h27.30.450,empathy_intonation_perc,2024.2.4,Win32,59.88023952,675c5393b9b2d381baa880c2,687ed1b7e638a4cbf2f02089,68803a54bebdaa1862b857b2,,,,,,,,,,,,,14,1,,./stim/wavs/mexican_match_interrogative-total-yn_Daniel-iba-a-Bolivia.wav,,,,,,,,,,,,,,,,,,,,,,256.9614,260.1567,1,1,2.6696,,0,13,13,13,1,0,mexican,,,,,,,,,,,,,,,,,,,,,,,,,,,,,,,,,,,,,,,,,,,,,,,,,,,,,,,,
,,,,,,,,,675c5393b9b2d381baa880c2,spanish,13 or older,"no, only English or Spanish",no,2025-07-22_21h27.30.450,empathy_intonation_perc,2024.2.4,Win32,59.88023952,675c5393b9b2d381baa880c2,687ed1b7e638a4cbf2f02089,68803a54bebdaa1862b857b2,,,,,,,,,,,,,3,1,,./stim/wavs/castilian_match_interrogative-total-yn_Manuela-vende-el-carro.wav,,,,,,,,,,,,,,,,,,,,,,260.1584,263.1038,1,1,2.3983,,0,14,14,2,1,0,castilian,,,,,,,,,,,,,,,,,,,,,,,,,,,,,,,,,,,,,,,,,,,,,,,,,,,,,,,,
,,,,,,,,,675c5393b9b2d381baa880c2,spanish,13 or older,"no, only English or Spanish",no,2025-07-22_21h27.30.450,empathy_intonation_perc,2024.2.4,Win32,59.88023952,675c5393b9b2d381baa880c2,687ed1b7e638a4cbf2f02089,68803a54bebdaa1862b857b2,,,,,,,,,,,,,82,0,,./stim/wavs/mexican_mismatch_declarative-broad-focus_Mi-novio-viene-del-lago.wav,,,,,,,,,,,,,,,,,,,,,,263.1053,265.3512,0,1,1.7156,,0,15,15,81,1,0,mexican,,,,,,,,,,,,,,,,,,,,,,,,,,,,,,,,,,,,,,,,,,,,,,,,,,,,,,,,
,,,,,,,,,675c5393b9b2d381baa880c2,spanish,13 or older,"no, only English or Spanish",no,2025-07-22_21h27.30.450,empathy_intonation_perc,2024.2.4,Win32,59.88023952,675c5393b9b2d381baa880c2,687ed1b7e638a4cbf2f02089,68803a54bebdaa1862b857b2,,,,,,,,,,,,,45,0,,./stim/wavs/castilian_match_declarative-broad-focus_David-leia-el-libro.wav,,,,,,,,,,,,,,,,,,,,,,265.3524,268.043,1,0,2.1578,,0,16,16,44,1,0,castilian,,,,,,,,,,,,,,,,,,,,,,,,,,,,,,,,,,,,,,,,,,,,,,,,,,,,,,,,
,,,,,,,,,675c5393b9b2d381baa880c2,spanish,13 or older,"no, only English or Spanish",no,2025-07-22_21h27.30.450,empathy_intonation_perc,2024.2.4,Win32,59.88023952,675c5393b9b2d381baa880c2,687ed1b7e638a4cbf2f02089,68803a54bebdaa1862b857b2,,,,,,,,,,,,,16,1,,./stim/wavs/mexican_match_interrogative-total-yn_Emilio-ama-la-marcha.wav,,,,,,,,,,,,,,,,,,,,,,268.0443,272.0277,1,1,3.4633,,0,17,17,15,1,0,mexican,,,,,,,,,,,,,,,,,,,,,,,,,,,,,,,,,,,,,,,,,,,,,,,,,,,,,,,,
,,,,,,,,,675c5393b9b2d381baa880c2,spanish,13 or older,"no, only English or Spanish",no,2025-07-22_21h27.30.450,empathy_intonation_perc,2024.2.4,Win32,59.88023952,675c5393b9b2d381baa880c2,687ed1b7e638a4cbf2f02089,68803a54bebdaa1862b857b2,,,,,,,,,,,,,13,1,,./stim/wavs/mexican_match_interrogative-total-yn_Ana-lleva-el-abrigo.wav,,,,,,,,,,,,,,,,,,,,,,272.0292,274.7089,0,0,2.1508,,0,18,18,12,1,0,mexican,,,,,,,,,,,,,,,,,,,,,,,,,,,,,,,,,,,,,,,,,,,,,,,,,,,,,,,,
,,,,,,,,,675c5393b9b2d381baa880c2,spanish,13 or older,"no, only English or Spanish",no,2025-07-22_21h27.30.450,empathy_intonation_perc,2024.2.4,Win32,59.88023952,675c5393b9b2d381baa880c2,687ed1b7e638a4cbf2f02089,68803a54bebdaa1862b857b2,,,,,,,,,,,,,39,1,,./stim/wavs/mexican_mismatch_interrogative-total-yn_Mi-tia-odia-la-lluvia.wav,,,,,,,,,,,,,,,,,,,,,,274.7101,277.739,1,1,2.4989,,0,19,19,38,1,0,mexican,,,,,,,,,,,,,,,,,,,,,,,,,,,,,,,,,,,,,,,,,,,,,,,,,,,,,,,,
,,,,,,,,,675c5393b9b2d381baa880c2,spanish,13 or older,"no, only English or Spanish",no,2025-07-22_21h27.30.450,empathy_intonation_perc,2024.2.4,Win32,59.88023952,675c5393b9b2d381baa880c2,687ed1b7e638a4cbf2f02089,68803a54bebdaa1862b857b2,,,,,,,,,,,,,88,0,,./stim/wavs/puertorican_mismatch_declarative-broad-focus_La-nina-lava-el-plato.wav,,,,,,,,,,,,,,,,,,,,,,277.7402,280.7867,0,1,2.5163,,0,20,20,87,1,0,puertorican,,,,,,,,,,,,,,,,,,,,,,,,,,,,,,,,,,,,,,,,,,,,,,,,,,,,,,,,
,,,,,,,,,675c5393b9b2d381baa880c2,spanish,13 or older,"no, only English or Spanish",no,2025-07-22_21h27.30.450,empathy_intonation_perc,2024.2.4,Win32,59.88023952,675c5393b9b2d381baa880c2,687ed1b7e638a4cbf2f02089,68803a54bebdaa1862b857b2,,,,,,,,,,,,,1,1,,./stim/wavs/castilian_match_interrogative-total-yn_David-leia-el-libro.wav,,,,,,,,,,,,,,,,,,,,,,280.7882,285.2155,1,1,3.8966,,0,21,21,0,1,0,castilian,,,,,,,,,,,,,,,,,,,,,,,,,,,,,,,,,,,,,,,,,,,,,,,,,,,,,,,,
,,,,,,,,,675c5393b9b2d381baa880c2,spanish,13 or older,"no, only English or Spanish",no,2025-07-22_21h27.30.450,empathy_intonation_perc,2024.2.4,Win32,59.88023952,675c5393b9b2d381baa880c2,687ed1b7e638a4cbf2f02089,68803a54bebdaa1862b857b2,,,,,,,,,,,,,32,1,,./stim/wavs/cuban_mismatch_interrogative-total-yn_Mi-madre-come-la-fruta.wav,,,,,,,,,,,,,,,,,,,,,,285.2167,288.9605,0,0,3.2187,,0,22,22,31,1,1,cuban,,,,,,,,,,,,,,,,,,,,,,,,,,,,,,,,,,,,,,,,,,,,,,,,,,,,,,,,
,,,,,,,,,675c5393b9b2d381baa880c2,spanish,13 or older,"no, only English or Spanish",no,2025-07-22_21h27.30.450,empathy_intonation_perc,2024.2.4,Win32,59.88023952,675c5393b9b2d381baa880c2,687ed1b7e638a4cbf2f02089,68803a54bebdaa1862b857b2,,,,,,,,,,,,,78,0,,./stim/wavs/cuban_mismatch_declarative-broad-focus_Mi-tia-odia-la-lluvia.wav,,,,,,,,,,,,,,,,,,,,,,288.9611,292.5751,1,0,3.0821,,0,23,23,77,1,0,cuban,,,,,,,,,,,,,,,,,,,,,,,,,,,,,,,,,,,,,,,,,,,,,,,,,,,,,,,,
,,,,,,,,,675c5393b9b2d381baa880c2,spanish,13 or older,"no, only English or Spanish",no,2025-07-22_21h27.30.450,empathy_intonation_perc,2024.2.4,Win32,59.88023952,675c5393b9b2d381baa880c2,687ed1b7e638a4cbf2f02089,68803a54bebdaa1862b857b2,,,,,,,,,,,,,85,0,,./stim/wavs/puertorican_mismatch_declarative-broad-focus_El-hombre-mira-la-luna.wav,,,,,,,,,,,,,,,,,,,,,,292.5765,296.1871,0,1,3.084,,0,24,24,84,1,0,puertorican,,,,,,,,,,,,,,,,,,,,,,,,,,,,,,,,,,,,,,,,,,,,,,,,,,,,,,,,
,,,,,,,,,675c5393b9b2d381baa880c2,spanish,13 or older,"no, only English or Spanish",no,2025-07-22_21h27.30.450,empathy_intonation_perc,2024.2.4,Win32,59.88023952,675c5393b9b2d381baa880c2,687ed1b7e638a4cbf2f02089,68803a54bebdaa1862b857b2,,,,,,,,,,,,,54,0,,./stim/wavs/cuban_match_declarative-broad-focus_Maria-bebe-el-vino.wav,,,,,,,,,,,,,,,,,,,,,,296.1885,299.0851,0,1,2.3684,,0,25,25,53,1,0,cuban,,,,,,,,,,,,,,,,,,,,,,,,,,,,,,,,,,,,,,,,,,,,,,,,,,,,,,,,
,,,,,,,,,675c5393b9b2d381baa880c2,spanish,13 or older,"no, only English or Spanish",no,2025-07-22_21h27.30.450,empathy_intonation_perc,2024.2.4,Win32,59.88023952,675c5393b9b2d381baa880c2,687ed1b7e638a4cbf2f02089,68803a54bebdaa1862b857b2,,,,,,,,,,,,,23,1,,./stim/wavs/puertorican_match_interrogative-total-yn_Manuela-vende-el-carro.wav,,,,,,,,,,,,,,,,,,,,,,299.0864,302.5813,1,1,2.9646,,0,26,26,22,1,1,puertorican,,,,,,,,,,,,,,,,,,,,,,,,,,,,,,,,,,,,,,,,,,,,,,,,,,,,,,,,
,,,,,,,,,675c5393b9b2d381baa880c2,spanish,13 or older,"no, only English or Spanish",no,2025-07-22_21h27.30.450,empathy_intonation_perc,2024.2.4,Win32,59.88023952,675c5393b9b2d381baa880c2,687ed1b7e638a4cbf2f02089,68803a54bebdaa1862b857b2,,,,,,,,,,,,,83,0,,./stim/wavs/mexican_mismatch_declarative-broad-focus_Mi-tia-odia-la-lluvia.wav,,,,,,,,,,,,,,,,,,,,,,302.5825,306.2278,0,1,3.1151,,0,27,27,82,1,0,mexican,,,,,,,,,,,,,,,,,,,,,,,,,,,,,,,,,,,,,,,,,,,,,,,,,,,,,,,,
,,,,,,,,,675c5393b9b2d381baa880c2,spanish,13 or older,"no, only English or Spanish",no,2025-07-22_21h27.30.450,empathy_intonation_perc,2024.2.4,Win32,59.88023952,675c5393b9b2d381baa880c2,687ed1b7e638a4cbf2f02089,68803a54bebdaa1862b857b2,,,,,,,,,,,,,36,1,,./stim/wavs/mexican_mismatch_interrogative-total-yn_El-nino-oye-el-rio.wav,,,,,,,,,,,,,,,,,,,,,,306.2292,309.075,1,1,2.3198,,0,28,28,35,1,0,mexican,,,,,,,,,,,,,,,,,,,,,,,,,,,,,,,,,,,,,,,,,,,,,,,,,,,,,,,,
,,,,,,,,,675c5393b9b2d381baa880c2,spanish,13 or older,"no, only English or Spanish",no,2025-07-22_21h27.30.450,empathy_intonation_perc,2024.2.4,Win32,59.88023952,675c5393b9b2d381baa880c2,687ed1b7e638a4cbf2f02089,68803a54bebdaa1862b857b2,,,,,,,,,,,,,71,0,,./stim/wavs/castilian_mismatch_declarative-broad-focus_La-nina-lava-el-plato.wav,,,,,,,,,,,,,,,,,,,,,,309.0764,312.5052,0,1,2.897,,0,29,29,70,1,0,castilian,,,,,,,,,,,,,,,,,,,,,,,,,,,,,,,,,,,,,,,,,,,,,,,,,,,,,,,,
,,,,,,,,,675c5393b9b2d381baa880c2,spanish,13 or older,"no, only English or Spanish",no,2025-07-22_21h27.30.450,empathy_intonation_perc,2024.2.4,Win32,59.88023952,675c5393b9b2d381baa880c2,687ed1b7e638a4cbf2f02089,68803a54bebdaa1862b857b2,,,,,,,,,,,,,53,0,,./stim/wavs/cuban_match_declarative-broad-focus_Manuela-vende-el-carro.wav,,,,,,,,,,,,,,,,,,,,,,312.5067,315.7685,1,0,2.7312,,0,30,30,52,1,0,cuban,,,,,,,,,,,,,,,,,,,,,,,,,,,,,,,,,,,,,,,,,,,,,,,,,,,,,,,,
,,,,,,,,,675c5393b9b2d381baa880c2,spanish,13 or older,"no, only English or Spanish",no,2025-07-22_21h27.30.450,empathy_intonation_perc,2024.2.4,Win32,59.88023952,675c5393b9b2d381baa880c2,687ed1b7e638a4cbf2f02089,68803a54bebdaa1862b857b2,,,,,,,,,,,,,59,0,,./stim/wavs/mexican_match_declarative-broad-focus_David-leia-el-libro.wav,,,,,,,,,,,,,,,,,,,,,,315.7698,319.0983,1,0,2.7981,,0,31,31,58,1,0,mexican,,,,,,,,,,,,,,,,,,,,,,,,,,,,,,,,,,,,,,,,,,,,,,,,,,,,,,,,
,,,,,,,,,675c5393b9b2d381baa880c2,spanish,13 or older,"no, only English or Spanish",no,2025-07-22_21h27.30.450,empathy_intonation_perc,2024.2.4,Win32,59.88023952,675c5393b9b2d381baa880c2,687ed1b7e638a4cbf2f02089,68803a54bebdaa1862b857b2,,,,,,,,,,,,,19,1,,./stim/wavs/puertorican_match_interrogative-total-yn_Ana-lleva-el-abrigo.wav,,,,,,,,,,,,,,,,,,,,,,319.0995,322.079,1,1,2.4494,,0,32,32,18,1,1,puertorican,,,,,,,,,,,,,,,,,,,,,,,,,,,,,,,,,,,,,,,,,,,,,,,,,,,,,,,,
,,,,,,,,,675c5393b9b2d381baa880c2,spanish,13 or older,"no, only English or Spanish",no,2025-07-22_21h27.30.450,empathy_intonation_perc,2024.2.4,Win32,59.88023952,675c5393b9b2d381baa880c2,687ed1b7e638a4cbf2f02089,68803a54bebdaa1862b857b2,,,,,,,,,,,,,57,0,,./stim/wavs/mexican_match_declarative-broad-focus_Ana-lleva-el-abrigo.wav,,,,,,,,,,,,,,,,,,,,,,322.0804,324.61,0,1,1.9989,,0,33,33,56,1,0,mexican,,,,,,,,,,,,,,,,,,,,,,,,,,,,,,,,,,,,,,,,,,,,,,,,,,,,,,,,
,,,,,,,,,675c5393b9b2d381baa880c2,spanish,13 or older,"no, only English or Spanish",no,2025-07-22_21h27.30.450,empathy_intonation_perc,2024.2.4,Win32,59.88023952,675c5393b9b2d381baa880c2,687ed1b7e638a4cbf2f02089,68803a54bebdaa1862b857b2,,,,,,,,,,,,,56,0,,./stim/wavs/cuban_match_declarative-broad-focus_Marta-abre-el-regalo.wav,,,,,,,,,,,,,,,,,,,,,,324.6113,327.574,0,1,2.4314,,0,34,34,55,1,0,cuban,,,,,,,,,,,,,,,,,,,,,,,,,,,,,,,,,,,,,,,,,,,,,,,,,,,,,,,,
,,,,,,,,,675c5393b9b2d381baa880c2,spanish,13 or older,"no, only English or Spanish",no,2025-07-22_21h27.30.450,empathy_intonation_perc,2024.2.4,Win32,59.88023952,675c5393b9b2d381baa880c2,687ed1b7e638a4cbf2f02089,68803a54bebdaa1862b857b2,,,,,,,,,,,,,66,0,,./stim/wavs/puertorican_match_declarative-broad-focus_Emilio-ama-la-marcha.wav,,,,,,,,,,,,,,,,,,,,,,327.5753,330.3887,0,1,2.2883,,0,35,35,65,1,0,puertorican,,,,,,,,,,,,,,,,,,,,,,,,,,,,,,,,,,,,,,,,,,,,,,,,,,,,,,,,
,,,,,,,,,675c5393b9b2d381baa880c2,spanish,13 or older,"no, only English or Spanish",no,2025-07-22_21h27.30.450,empathy_intonation_perc,2024.2.4,Win32,59.88023952,675c5393b9b2d381baa880c2,687ed1b7e638a4cbf2f02089,68803a54bebdaa1862b857b2,,,,,,,,,,,,,51,0,,./stim/wavs/cuban_match_declarative-broad-focus_Ana-lleva-el-abrigo.wav,,,,,,,,,,,,,,,,,,,,,,330.3899,333.9668,0,1,3.052,,0,36,36,50,1,0,cuban,,,,,,,,,,,,,,,,,,,,,,,,,,,,,,,,,,,,,,,,,,,,,,,,,,,,,,,,
,,,,,,,,,675c5393b9b2d381baa880c2,spanish,13 or older,"no, only English or Spanish",no,2025-07-22_21h27.30.450,empathy_intonation_perc,2024.2.4,Win32,59.88023952,675c5393b9b2d381baa880c2,687ed1b7e638a4cbf2f02089,68803a54bebdaa1862b857b2,,,,,,,,,,,,,87,0,,./stim/wavs/puertorican_mismatch_declarative-broad-focus_La-maestra-vive-en-Paris.wav,,,,,,,,,,,,,,,,,,,,,,333.9682,337.1974,0,1,2.6987,,0,37,37,86,1,0,puertorican,,,,,,,,,,,,,,,,,,,,,,,,,,,,,,,,,,,,,,,,,,,,,,,,,,,,,,,,
,,,,,,,,,675c5393b9b2d381baa880c2,spanish,13 or older,"no, only English or Spanish",no,2025-07-22_21h27.30.450,empathy_intonation_perc,2024.2.4,Win32,59.88023952,675c5393b9b2d381baa880c2,687ed1b7e638a4cbf2f02089,68803a54bebdaa1862b857b2,,,,,,,,,,,,,79,0,,./stim/wavs/mexican_mismatch_declarative-broad-focus_El-bebe-comia-muy-bien.wav,,,,,,,,,,,,,,,,,,,,,,337.1988,340.8439,0,1,3.1193,,0,38,38,78,1,0,mexican,,,,,,,,,,,,,,,,,,,,,,,,,,,,,,,,,,,,,,,,,,,,,,,,,,,,,,,,
,,,,,,,,,675c5393b9b2d381baa880c2,spanish,13 or older,"no, only English or Spanish",no,2025-07-22_21h27.30.450,empathy_intonation_perc,2024.2.4,Win32,59.88023952,675c5393b9b2d381baa880c2,687ed1b7e638a4cbf2f02089,68803a54bebdaa1862b857b2,,,,,,,,,,,,,58,0,,./stim/wavs/mexican_match_declarative-broad-focus_Daniel-iba-a-Bolivia.wav,,,,,,,,,,,,,,,,,,,,,,340.8452,343.1585,1,0,1.7825,,0,39,39,57,1,0,mexican,,,,,,,,,,,,,,,,,,,,,,,,,,,,,,,,,,,,,,,,,,,,,,,,,,,,,,,,
,,,,,,,,,675c5393b9b2d381baa880c2,spanish,13 or older,"no, only English or Spanish",no,2025-07-22_21h27.30.450,empathy_intonation_perc,2024.2.4,Win32,59.88023952,675c5393b9b2d381baa880c2,687ed1b7e638a4cbf2f02089,68803a54bebdaa1862b857b2,,,,,,,,,,,,,21,1,,./stim/wavs/puertorican_match_interrogative-total-yn_David-leia-el-libro.wav,,,,,,,,,,,,,,,,,,,,,,343.1598,345.7392,1,1,2.0485,,0,40,40,20,1,1,puertorican,,,,,,,,,,,,,,,,,,,,,,,,,,,,,,,,,,,,,,,,,,,,,,,,,,,,,,,,
,,,,,,,,,675c5393b9b2d381baa880c2,spanish,13 or older,"no, only English or Spanish",no,2025-07-22_21h27.30.450,empathy_intonation_perc,2024.2.4,Win32,59.88023952,675c5393b9b2d381baa880c2,687ed1b7e638a4cbf2f02089,68803a54bebdaa1862b857b2,,,,,,,,,,,,,24,1,,./stim/wavs/puertorican_match_interrogative-total-yn_Maria-bebe-el-vino.wav,,,,,,,,,,,,,,,,,,,,,,345.7407,348.2202,1,1,1.9485,,0,41,41,23,1,1,puertorican,,,,,,,,,,,,,,,,,,,,,,,,,,,,,,,,,,,,,,,,,,,,,,,,,,,,,,,,
,,,,,,,,,675c5393b9b2d381baa880c2,spanish,13 or older,"no, only English or Spanish",no,2025-07-22_21h27.30.450,empathy_intonation_perc,2024.2.4,Win32,59.88023952,675c5393b9b2d381baa880c2,687ed1b7e638a4cbf2f02089,68803a54bebdaa1862b857b2,,,,,,,,,,,,,18,1,,./stim/wavs/mexican_match_interrogative-total-yn_Marta-abre-el-regalo.wav,,,,,,,,,,,,,,,,,,,,,,348.2214,351.167,0,0,2.416,,0,42,42,17,1,0,mexican,,,,,,,,,,,,,,,,,,,,,,,,,,,,,,,,,,,,,,,,,,,,,,,,,,,,,,,,
,,,,,,,,,675c5393b9b2d381baa880c2,spanish,13 or older,"no, only English or Spanish",no,2025-07-22_21h27.30.450,empathy_intonation_perc,2024.2.4,Win32,59.88023952,675c5393b9b2d381baa880c2,687ed1b7e638a4cbf2f02089,68803a54bebdaa1862b857b2,,,,,,,,,,,,,25,1,,./stim/wavs/castilian_mismatch_interrogative-total-yn_La-maestra-vive-en-Paris.wav,,,,,,,,,,,,,,,,,,,,,,351.1682,354.8135,0,0,3.1138,,0,43,43,24,1,0,castilian,,,,,,,,,,,,,,,,,,,,,,,,,,,,,,,,,,,,,,,,,,,,,,,,,,,,,,,,
,,,,,,,,,675c5393b9b2d381baa880c2,spanish,13 or older,"no, only English or Spanish",no,2025-07-22_21h27.30.450,empathy_intonation_perc,2024.2.4,Win32,59.88023952,675c5393b9b2d381baa880c2,687ed1b7e638a4cbf2f02089,68803a54bebdaa1862b857b2,,,,,,,,,,,,,10,1,,./stim/wavs/cuban_match_interrogative-total-yn_Maria-bebe-el-vino.wav,,,,,,,,,,,,,,,,,,,,,,354.815,357.2448,1,1,1.9012,,0,44,44,9,1,1,cuban,,,,,,,,,,,,,,,,,,,,,,,,,,,,,,,,,,,,,,,,,,,,,,,,,,,,,,,,
,,,,,,,,,675c5393b9b2d381baa880c2,spanish,13 or older,"no, only English or Spanish",no,2025-07-22_21h27.30.450,empathy_intonation_perc,2024.2.4,Win32,59.88023952,675c5393b9b2d381baa880c2,687ed1b7e638a4cbf2f02089,68803a54bebdaa1862b857b2,,,,,,,,,,,,,69,0,,./stim/wavs/castilian_mismatch_declarative-broad-focus_El-nino-oye-el-rio.wav,,,,,,,,,,,,,,,,,,,,,,357.2464,359.8254,1,0,2.0487,,0,45,45,68,1,0,castilian,,,,,,,,,,,,,,,,,,,,,,,,,,,,,,,,,,,,,,,,,,,,,,,,,,,,,,,,
,,,,,,,,,675c5393b9b2d381baa880c2,spanish,13 or older,"no, only English or Spanish",no,2025-07-22_21h27.30.450,empathy_intonation_perc,2024.2.4,Win32,59.88023952,675c5393b9b2d381baa880c2,687ed1b7e638a4cbf2f02089,68803a54bebdaa1862b857b2,,,,,,,,,,,,,27,1,,./stim/wavs/castilian_mismatch_interrogative-total-yn_Mi-madre-come-la-fruta.wav,,,,,,,,,,,,,,,,,,,,,,359.8268,362.573,1,1,2.2152,,0,46,46,26,1,0,castilian,,,,,,,,,,,,,,,,,,,,,,,,,,,,,,,,,,,,,,,,,,,,,,,,,,,,,,,,
,,,,,,,,,675c5393b9b2d381baa880c2,spanish,13 or older,"no, only English or Spanish",no,2025-07-22_21h27.30.450,empathy_intonation_perc,2024.2.4,Win32,59.88023952,675c5393b9b2d381baa880c2,687ed1b7e638a4cbf2f02089,68803a54bebdaa1862b857b2,,,,,,,,,,,,,75,0,,./stim/wavs/cuban_mismatch_declarative-broad-focus_El-hombre-mira-la-luna.wav,,,,,,,,,,,,,,,,,,,,,,362.5743,365.5862,0,1,2.4817,,0,47,47,74,1,0,cuban,,,,,,,,,,,,,,,,,,,,,,,,,,,,,,,,,,,,,,,,,,,,,,,,,,,,,,,,
,,,,,,,,,675c5393b9b2d381baa880c2,spanish,13 or older,"no, only English or Spanish",no,2025-07-22_21h27.30.450,empathy_intonation_perc,2024.2.4,Win32,59.88023952,675c5393b9b2d381baa880c2,687ed1b7e638a4cbf2f02089,68803a54bebdaa1862b857b2,,,,,,,,,,,,,15,1,,./stim/wavs/mexican_match_interrogative-total-yn_David-leia-el-libro.wav,,,,,,,,,,,,,,,,,,,,,,365.5876,368.4839,1,1,2.3656,,0,48,48,14,1,0,mexican,,,,,,,,,,,,,,,,,,,,,,,,,,,,,,,,,,,,,,,,,,,,,,,,,,,,,,,,
,,,,,,,,,675c5393b9b2d381baa880c2,spanish,13 or older,"no, only English or Spanish",no,2025-07-22_21h27.30.450,empathy_intonation_perc,2024.2.4,Win32,59.88023952,675c5393b9b2d381baa880c2,687ed1b7e638a4cbf2f02089,68803a54bebdaa1862b857b2,,,,,,,,,,,,,47,0,,./stim/wavs/castilian_match_declarative-broad-focus_Manuela-vende-el-carro.wav,,,,,,,,,,,,,,,,,,,,,,368.4855,372.6383,0,1,3.621,,0,49,49,46,1,0,castilian,,,,,,,,,,,,,,,,,,,,,,,,,,,,,,,,,,,,,,,,,,,,,,,,,,,,,,,,
,,,,,,,,,675c5393b9b2d381baa880c2,spanish,13 or older,"no, only English or Spanish",no,2025-07-22_21h27.30.450,empathy_intonation_perc,2024.2.4,Win32,59.88023952,675c5393b9b2d381baa880c2,687ed1b7e638a4cbf2f02089,68803a54bebdaa1862b857b2,,,,,,,,,,,,,22,1,,./stim/wavs/puertorican_match_interrogative-total-yn_Emilio-ama-la-marcha.wav,,,,,,,,,,,,,,,,,,,,,,372.6397,374.6718,0,0,1.5158,,0,50,50,21,1,1,puertorican,,,,,,,,,,,,,,,,,,,,,,,,,,,,,,,,,,,,,,,,,,,,,,,,,,,,,,,,
,,,,,,,,,675c5393b9b2d381baa880c2,spanish,13 or older,"no, only English or Spanish",no,2025-07-22_21h27.30.450,empathy_intonation_perc,2024.2.4,Win32,59.88023952,675c5393b9b2d381baa880c2,687ed1b7e638a4cbf2f02089,68803a54bebdaa1862b857b2,,,,,,,,,,,,,7,1,,./stim/wavs/cuban_match_interrogative-total-yn_Ana-lleva-el-abrigo.wav,,,,,,,,,,,,,,,,,,,,,,374.6733,376.8752,0,0,1.6646,,0,51,51,6,1,1,cuban,,,,,,,,,,,,,,,,,,,,,,,,,,,,,,,,,,,,,,,,,,,,,,,,,,,,,,,,
,,,,,,,,,675c5393b9b2d381baa880c2,spanish,13 or older,"no, only English or Spanish",no,2025-07-22_21h27.30.450,empathy_intonation_perc,2024.2.4,Win32,59.88023952,675c5393b9b2d381baa880c2,687ed1b7e638a4cbf2f02089,68803a54bebdaa1862b857b2,,,,,,,,,,,,,68,0,,./stim/wavs/puertorican_match_declarative-broad-focus_Maria-bebe-el-vino.wav,,,,,,,,,,,,,,,,,,,,,,376.877,379.3232,1,0,1.9177,,0,52,52,67,1,0,puertorican,,,,,,,,,,,,,,,,,,,,,,,,,,,,,,,,,,,,,,,,,,,,,,,,,,,,,,,,
,,,,,,,,,675c5393b9b2d381baa880c2,spanish,13 or older,"no, only English or Spanish",no,2025-07-22_21h27.30.450,empathy_intonation_perc,2024.2.4,Win32,59.88023952,675c5393b9b2d381baa880c2,687ed1b7e638a4cbf2f02089,68803a54bebdaa1862b857b2,,,,,,,,,,,,,61,0,,./stim/wavs/mexican_match_declarative-broad-focus_Mariano-habla-del-tiempo.wav,,,,,,,,,,,,,,,,,,,,,,379.3248,382.02,1,0,2.1653,,0,53,53,60,1,0,mexican,,,,,,,,,,,,,,,,,,,,,,,,,,,,,,,,,,,,,,,,,,,,,,,,,,,,,,,,
,,,,,,,,,675c5393b9b2d381baa880c2,spanish,13 or older,"no, only English or Spanish",no,2025-07-22_21h27.30.450,empathy_intonation_perc,2024.2.4,Win32,59.88023952,675c5393b9b2d381baa880c2,687ed1b7e638a4cbf2f02089,68803a54bebdaa1862b857b2,,,,,,,,,,,,,4,1,,./stim/wavs/castilian_match_interrogative-total-yn_Maria-bebe-el-vino.wav,,,,,,,,,,,,,,,,,,,,,,382.0212,385.2668,0,0,2.7064,,0,54,54,3,1,0,castilian,,,,,,,,,,,,,,,,,,,,,,,,,,,,,,,,,,,,,,,,,,,,,,,,,,,,,,,,
,,,,,,,,,675c5393b9b2d381baa880c2,spanish,13 or older,"no, only English or Spanish",no,2025-07-22_21h27.30.450,empathy_intonation_perc,2024.2.4,Win32,59.88023952,675c5393b9b2d381baa880c2,687ed1b7e638a4cbf2f02089,68803a54bebdaa1862b857b2,,,,,,,,,,,,,46,0,,./stim/wavs/castilian_match_declarative-broad-focus_Emilio-ama-la-marcha.wav,,,,,,,,,,,,,,,,,,,,,,385.268,387.7151,0,1,1.9153,,0,55,55,45,1,0,castilian,,,,,,,,,,,,,,,,,,,,,,,,,,,,,,,,,,,,,,,,,,,,,,,,,,,,,,,,
,,,,,,,,,675c5393b9b2d381baa880c2,spanish,13 or older,"no, only English or Spanish",no,2025-07-22_21h27.30.450,empathy_intonation_perc,2024.2.4,Win32,59.88023952,675c5393b9b2d381baa880c2,687ed1b7e638a4cbf2f02089,68803a54bebdaa1862b857b2,,,,,,,,,,,,,62,0,,./stim/wavs/mexican_match_declarative-broad-focus_Marta-abre-el-regalo.wav,,,,,,,,,,,,,,,,,,,,,,387.7163,390.5448,0,1,2.3015,,0,56,56,61,1,0,mexican,,,,,,,,,,,,,,,,,,,,,,,,,,,,,,,,,,,,,,,,,,,,,,,,,,,,,,,,
,,,,,,,,,675c5393b9b2d381baa880c2,spanish,13 or older,"no, only English or Spanish",no,2025-07-22_21h27.30.450,empathy_intonation_perc,2024.2.4,Win32,59.88023952,675c5393b9b2d381baa880c2,687ed1b7e638a4cbf2f02089,68803a54bebdaa1862b857b2,,,,,,,,,,,,,5,1,,./stim/wavs/castilian_match_interrogative-total-yn_Mariano-habla-del-tiempo.wav,,,,,,,,,,,,,,,,,,,,,,390.5463,393.3267,1,1,2.2472,,0,57,57,4,1,0,castilian,,,,,,,,,,,,,,,,,,,,,,,,,,,,,,,,,,,,,,,,,,,,,,,,,,,,,,,,
,,,,,,,,,675c5393b9b2d381baa880c2,spanish,13 or older,"no, only English or Spanish",no,2025-07-22_21h27.30.450,empathy_intonation_perc,2024.2.4,Win32,59.88023952,675c5393b9b2d381baa880c2,687ed1b7e638a4cbf2f02089,68803a54bebdaa1862b857b2,,,,,,,,,,,,,74,0,,./stim/wavs/cuban_mismatch_declarative-broad-focus_El-bebe-comia-muy-bien.wav,,,,,,,,,,,,,,,,,,,,,,393.3282,396.2062,0,1,2.3485,,0,58,58,73,1,0,cuban,,,,,,,,,,,,,,,,,,,,,,,,,,,,,,,,,,,,,,,,,,,,,,,,,,,,,,,,
,,,,,,,,,675c5393b9b2d381baa880c2,spanish,13 or older,"no, only English or Spanish",no,2025-07-22_21h27.30.450,empathy_intonation_perc,2024.2.4,Win32,59.88023952,675c5393b9b2d381baa880c2,687ed1b7e638a4cbf2f02089,68803a54bebdaa1862b857b2,,,,,,,,,,,,,40,1,,./stim/wavs/puertorican_mismatch_interrogative-total-yn_El-hombre-mira-la-luna.wav,,,,,,,,,,,,,,,,,,,,,,396.2075,399.5193,1,1,2.7803,,0,59,59,39,1,1,puertorican,,,,,,,,,,,,,,,,,,,,,,,,,,,,,,,,,,,,,,,,,,,,,,,,,,,,,,,,
,,,,,,,,,675c5393b9b2d381baa880c2,spanish,13 or older,"no, only English or Spanish",no,2025-07-22_21h27.30.450,empathy_intonation_perc,2024.2.4,Win32,59.88023952,675c5393b9b2d381baa880c2,687ed1b7e638a4cbf2f02089,68803a54bebdaa1862b857b2,,,,,,,,,,,,,52,0,,./stim/wavs/cuban_match_declarative-broad-focus_Daniel-iba-a-Bolivia.wav,,,,,,,,,,,,,,,,,,,,,,399.5203,402.0507,1,0,2.0005,,0,60,60,51,1,0,cuban,,,,,,,,,,,,,,,,,,,,,,,,,,,,,,,,,,,,,,,,,,,,,,,,,,,,,,,,
,,,,,,,,,675c5393b9b2d381baa880c2,spanish,13 or older,"no, only English or Spanish",no,2025-07-22_21h27.30.450,empathy_intonation_perc,2024.2.4,Win32,59.88023952,675c5393b9b2d381baa880c2,687ed1b7e638a4cbf2f02089,68803a54bebdaa1862b857b2,,,,,,,,,,,,,60,0,,./stim/wavs/mexican_match_declarative-broad-focus_Emilio-ama-la-marcha.wav,,,,,,,,,,,,,,,,,,,,,,402.0519,404.8314,0,1,2.2485,,0,61,61,59,1,0,mexican,,,,,,,,,,,,,,,,,,,,,,,,,,,,,,,,,,,,,,,,,,,,,,,,,,,,,,,,
,,,,,,,,,675c5393b9b2d381baa880c2,spanish,13 or older,"no, only English or Spanish",no,2025-07-22_21h27.30.450,empathy_intonation_perc,2024.2.4,Win32,59.88023952,675c5393b9b2d381baa880c2,687ed1b7e638a4cbf2f02089,68803a54bebdaa1862b857b2,,,,,,,,,,,,,70,0,,./stim/wavs/castilian_mismatch_declarative-broad-focus_La-maestra-vive-en-Paris.wav,,,,,,,,,,,,,,,,,,,,,,404.8327,407.6283,1,0,2.2656,,0,62,62,69,1,0,castilian,,,,,,,,,,,,,,,,,,,,,,,,,,,,,,,,,,,,,,,,,,,,,,,,,,,,,,,,
,,,,,,,,,675c5393b9b2d381baa880c2,spanish,13 or older,"no, only English or Spanish",no,2025-07-22_21h27.30.450,empathy_intonation_perc,2024.2.4,Win32,59.88023952,675c5393b9b2d381baa880c2,687ed1b7e638a4cbf2f02089,68803a54bebdaa1862b857b2,,,,,,,,,,,,,38,1,,./stim/wavs/mexican_mismatch_interrogative-total-yn_Mi-novio-viene-del-lago.wav,,,,,,,,,,,,,,,,,,,,,,407.6296,410.6422,0,0,2.4649,,0,63,63,37,1,0,mexican,,,,,,,,,,,,,,,,,,,,,,,,,,,,,,,,,,,,,,,,,,,,,,,,,,,,,,,,
,,,,,,,,,675c5393b9b2d381baa880c2,spanish,13 or older,"no, only English or Spanish",no,2025-07-22_21h27.30.450,empathy_intonation_perc,2024.2.4,Win32,59.88023952,675c5393b9b2d381baa880c2,687ed1b7e638a4cbf2f02089,68803a54bebdaa1862b857b2,,,,,,,,,,,,,9,1,,./stim/wavs/cuban_match_interrogative-total-yn_Manuela-vende-el-carro.wav,,,,,,,,,,,,,,,,,,,,,,410.6434,412.7403,0,0,1.5685,,0,64,64,8,1,1,cuban,,,,,,,,,,,,,,,,,,,,,,,,,,,,,,,,,,,,,,,,,,,,,,,,,,,,,,,,
,,,,,,,,,675c5393b9b2d381baa880c2,spanish,13 or older,"no, only English or Spanish",no,2025-07-22_21h27.30.450,empathy_intonation_perc,2024.2.4,Win32,59.88023952,675c5393b9b2d381baa880c2,687ed1b7e638a4cbf2f02089,68803a54bebdaa1862b857b2,,,,,,,,,,,,,2,1,,./stim/wavs/castilian_match_interrogative-total-yn_Emilio-ama-la-marcha.wav,,,,,,,,,,,,,,,,,,,,,,412.7415,415.4043,1,1,2.1377,,0,65,65,1,1,0,castilian,,,,,,,,,,,,,,,,,,,,,,,,,,,,,,,,,,,,,,,,,,,,,,,,,,,,,,,,
,,,,,,,,,675c5393b9b2d381baa880c2,spanish,13 or older,"no, only English or Spanish",no,2025-07-22_21h27.30.450,empathy_intonation_perc,2024.2.4,Win32,59.88023952,675c5393b9b2d381baa880c2,687ed1b7e638a4cbf2f02089,68803a54bebdaa1862b857b2,,,,,,,,,,,,,73,0,,./stim/wavs/castilian_mismatch_declarative-broad-focus_Mi-tia-odia-la-lluvia.wav,,,,,,,,,,,,,,,,,,,,,,415.406,419.1504,0,1,3.2152,,0,66,66,72,1,0,castilian,,,,,,,,,,,,,,,,,,,,,,,,,,,,,,,,,,,,,,,,,,,,,,,,,,,,,,,,
,,,,,,,,,675c5393b9b2d381baa880c2,spanish,13 or older,"no, only English or Spanish",no,2025-07-22_21h27.30.450,empathy_intonation_perc,2024.2.4,Win32,59.88023952,675c5393b9b2d381baa880c2,687ed1b7e638a4cbf2f02089,68803a54bebdaa1862b857b2,,,,,,,,,,,,,12,1,,./stim/wavs/cuban_match_interrogative-total-yn_Marta-abre-el-regalo.wav,,,,,,,,,,,,,,,,,,,,,,419.1516,422.4971,0,0,2.8151,,0,67,67,11,1,1,cuban,,,,,,,,,,,,,,,,,,,,,,,,,,,,,,,,,,,,,,,,,,,,,,,,,,,,,,,,
,,,,,,,,,675c5393b9b2d381baa880c2,spanish,13 or older,"no, only English or Spanish",no,2025-07-22_21h27.30.450,empathy_intonation_perc,2024.2.4,Win32,59.88023952,675c5393b9b2d381baa880c2,687ed1b7e638a4cbf2f02089,68803a54bebdaa1862b857b2,,,,,,,,,,,,,50,0,,./stim/wavs/castilian_match_declarative-broad-focus_Marta-abre-el-regalo.wav,,,,,,,,,,,,,,,,,,,,,,422.4983,425.7939,1,0,2.7697,,0,68,68,49,1,0,castilian,,,,,,,,,,,,,,,,,,,,,,,,,,,,,,,,,,,,,,,,,,,,,,,,,,,,,,,,
,,,,,,,,,675c5393b9b2d381baa880c2,spanish,13 or older,"no, only English or Spanish",no,2025-07-22_21h27.30.450,empathy_intonation_perc,2024.2.4,Win32,59.88023952,675c5393b9b2d381baa880c2,687ed1b7e638a4cbf2f02089,68803a54bebdaa1862b857b2,,,,,,,,,,,,,6,1,,./stim/wavs/castilian_match_interrogative-total-yn_Marta-abre-el-regalo.wav,,,,,,,,,,,,,,,,,,,,,,425.7952,429.1907,1,1,2.8565,,0,69,69,5,1,0,castilian,,,,,,,,,,,,,,,,,,,,,,,,,,,,,,,,,,,,,,,,,,,,,,,,,,,,,,,,
,,,,,,,,,675c5393b9b2d381baa880c2,spanish,13 or older,"no, only English or Spanish",no,2025-07-22_21h27.30.450,empathy_intonation_perc,2024.2.4,Win32,59.88023952,675c5393b9b2d381baa880c2,687ed1b7e638a4cbf2f02089,68803a54bebdaa1862b857b2,,,,,,,,,,,,,20,1,,./stim/wavs/puertorican_match_interrogative-total-yn_Daniel-iba-a-Bolivia.wav,,,,,,,,,,,,,,,,,,,,,,429.1919,432.278,0,0,2.5564,,0,70,70,19,1,1,puertorican,,,,,,,,,,,,,,,,,,,,,,,,,,,,,,,,,,,,,,,,,,,,,,,,,,,,,,,,
,,,,,,,,,675c5393b9b2d381baa880c2,spanish,13 or older,"no, only English or Spanish",no,2025-07-22_21h27.30.450,empathy_intonation_perc,2024.2.4,Win32,59.88023952,675c5393b9b2d381baa880c2,687ed1b7e638a4cbf2f02089,68803a54bebdaa1862b857b2,,,,,,,,,,,,,77,0,,./stim/wavs/cuban_mismatch_declarative-broad-focus_Mi-novio-viene-del-lago.wav,,,,,,,,,,,,,,,,,,,,,,432.2794,435.2182,0,1,2.4163,,0,71,71,76,1,0,cuban,,,,,,,,,,,,,,,,,,,,,,,,,,,,,,,,,,,,,,,,,,,,,,,,,,,,,,,,
,,,,,,,,,675c5393b9b2d381baa880c2,spanish,13 or older,"no, only English or Spanish",no,2025-07-22_21h27.30.450,empathy_intonation_perc,2024.2.4,Win32,59.88023952,675c5393b9b2d381baa880c2,687ed1b7e638a4cbf2f02089,68803a54bebdaa1862b857b2,,,,,,,,,,,,,42,1,,./stim/wavs/puertorican_mismatch_interrogative-total-yn_La-maestra-vive-en-Paris.wav,,,,,,,,,,,,,,,,,,,,,,435.2195,437.8324,1,1,2.0849,,0,72,72,41,1,1,puertorican,,,,,,,,,,,,,,,,,,,,,,,,,,,,,,,,,,,,,,,,,,,,,,,,,,,,,,,,
,,,,,,,,,675c5393b9b2d381baa880c2,spanish,13 or older,"no, only English or Spanish",no,2025-07-22_21h27.30.450,empathy_intonation_perc,2024.2.4,Win32,59.88023952,675c5393b9b2d381baa880c2,687ed1b7e638a4cbf2f02089,68803a54bebdaa1862b857b2,,,,,,,,,,,,,34,1,,./stim/wavs/cuban_mismatch_interrogative-total-yn_Mi-tia-odia-la-lluvia.wav,,,,,,,,,,,,,,,,,,,,,,437.8336,441.6114,0,0,3.247,,0,73,73,33,1,1,cuban,,,,,,,,,,,,,,,,,,,,,,,,,,,,,,,,,,,,,,,,,,,,,,,,,,,,,,,,
,,,,,,,,,675c5393b9b2d381baa880c2,spanish,13 or older,"no, only English or Spanish",no,2025-07-22_21h27.30.450,empathy_intonation_perc,2024.2.4,Win32,59.88023952,675c5393b9b2d381baa880c2,687ed1b7e638a4cbf2f02089,68803a54bebdaa1862b857b2,,,,,,,,,,,,,64,0,,./stim/wavs/puertorican_match_declarative-broad-focus_Daniel-iba-a-Bolivia.wav,,,,,,,,,,,,,,,,,,,,,,441.6127,445.4416,1,0,3.2972,,0,74,74,63,1,0,puertorican,,,,,,,,,,,,,,,,,,,,,,,,,,,,,,,,,,,,,,,,,,,,,,,,,,,,,,,,
,,,,,,,,,675c5393b9b2d381baa880c2,spanish,13 or older,"no, only English or Spanish",no,2025-07-22_21h27.30.450,empathy_intonation_perc,2024.2.4,Win32,59.88023952,675c5393b9b2d381baa880c2,687ed1b7e638a4cbf2f02089,68803a54bebdaa1862b857b2,,,,,,,,,,,,,35,1,,./stim/wavs/mexican_mismatch_interrogative-total-yn_El-hombre-mira-la-luna.wav,,,,,,,,,,,,,,,,,,,,,,445.4427,450.2199,1,1,4.246,,0,75,75,34,1,0,mexican,,,,,,,,,,,,,,,,,,,,,,,,,,,,,,,,,,,,,,,,,,,,,,,,,,,,,,,,
,,,,,,,,,675c5393b9b2d381baa880c2,spanish,13 or older,"no, only English or Spanish",no,2025-07-22_21h27.30.450,empathy_intonation_perc,2024.2.4,Win32,59.88023952,675c5393b9b2d381baa880c2,687ed1b7e638a4cbf2f02089,68803a54bebdaa1862b857b2,,,,,,,,,,,,,17,1,,./stim/wavs/mexican_match_interrogative-total-yn_Mariano-habla-del-tiempo.wav,,,,,,,,,,,,,,,,,,,,,,450.2211,453.0502,0,0,2.302,,0,76,76,16,1,0,mexican,,,,,,,,,,,,,,,,,,,,,,,,,,,,,,,,,,,,,,,,,,,,,,,,,,,,,,,,
,,,,,,,,,675c5393b9b2d381baa880c2,spanish,13 or older,"no, only English or Spanish",no,2025-07-22_21h27.30.450,empathy_intonation_perc,2024.2.4,Win32,59.88023952,675c5393b9b2d381baa880c2,687ed1b7e638a4cbf2f02089,68803a54bebdaa1862b857b2,,,,,,,,,,,,,55,0,,./stim/wavs/cuban_match_declarative-broad-focus_Mariano-habla-del-tiempo.wav,,,,,,,,,,,,,,,,,,,,,,453.0515,456.2299,1,0,2.6524,,0,77,77,54,1,0,cuban,,,,,,,,,,,,,,,,,,,,,,,,,,,,,,,,,,,,,,,,,,,,,,,,,,,,,,,,
,,,,,,,,,675c5393b9b2d381baa880c2,spanish,13 or older,"no, only English or Spanish",no,2025-07-22_21h27.30.450,empathy_intonation_perc,2024.2.4,Win32,59.88023952,675c5393b9b2d381baa880c2,687ed1b7e638a4cbf2f02089,68803a54bebdaa1862b857b2,,,,,,,,,,,,,28,1,,./stim/wavs/castilian_mismatch_interrogative-total-yn_Mi-novio-viene-del-lago.wav,,,,,,,,,,,,,,,,,,,,,,456.2308,459.0779,1,1,2.3203,,0,78,78,27,1,0,castilian,,,,,,,,,,,,,,,,,,,,,,,,,,,,,,,,,,,,,,,,,,,,,,,,,,,,,,,,
,,,,,,,,,675c5393b9b2d381baa880c2,spanish,13 or older,"no, only English or Spanish",no,2025-07-22_21h27.30.450,empathy_intonation_perc,2024.2.4,Win32,59.88023952,675c5393b9b2d381baa880c2,687ed1b7e638a4cbf2f02089,68803a54bebdaa1862b857b2,,,,,,,,,,,,,65,0,,./stim/wavs/puertorican_match_declarative-broad-focus_David-leia-el-libro.wav,,,,,,,,,,,,,,,,,,,,,,459.0793,461.9423,0,1,2.3375,,0,79,79,64,1,0,puertorican,,,,,,,,,,,,,,,,,,,,,,,,,,,,,,,,,,,,,,,,,,,,,,,,,,,,,,,,
,,,,,,,,,675c5393b9b2d381baa880c2,spanish,13 or older,"no, only English or Spanish",no,2025-07-22_21h27.30.450,empathy_intonation_perc,2024.2.4,Win32,59.88023952,675c5393b9b2d381baa880c2,687ed1b7e638a4cbf2f02089,68803a54bebdaa1862b857b2,,,,,,,,,,,,,63,0,,./stim/wavs/puertorican_match_declarative-broad-focus_Ana-lleva-el-abrigo.wav,,,,,,,,,,,,,,,,,,,,,,461.9435,464.9332,0,1,2.4646,,0,80,80,62,1,0,puertorican,,,,,,,,,,,,,,,,,,,,,,,,,,,,,,,,,,,,,,,,,,,,,,,,,,,,,,,,
,,,,,,,,,675c5393b9b2d381baa880c2,spanish,13 or older,"no, only English or Spanish",no,2025-07-22_21h27.30.450,empathy_intonation_perc,2024.2.4,Win32,59.88023952,675c5393b9b2d381baa880c2,687ed1b7e638a4cbf2f02089,68803a54bebdaa1862b857b2,,,,,,,,,,,,,31,1,,./stim/wavs/cuban_mismatch_interrogative-total-yn_El-nino-oye-el-rio.wav,,,,,,,,,,,,,,,,,,,,,,464.9344,468.1187,1,1,2.6692,,0,81,81,30,1,1,cuban,,,,,,,,,,,,,,,,,,,,,,,,,,,,,,,,,,,,,,,,,,,,,,,,,,,,,,,,
,,,,,,,,,675c5393b9b2d381baa880c2,spanish,13 or older,"no, only English or Spanish",no,2025-07-22_21h27.30.450,empathy_intonation_perc,2024.2.4,Win32,59.88023952,675c5393b9b2d381baa880c2,687ed1b7e638a4cbf2f02089,68803a54bebdaa1862b857b2,,,,,,,,,,,,,49,0,,./stim/wavs/castilian_match_declarative-broad-focus_Mariano-habla-del-tiempo.wav,,,,,,,,,,,,,,,,,,,,,,468.1198,473.4632,1,0,4.8143,,0,82,82,48,1,0,castilian,,,,,,,,,,,,,,,,,,,,,,,,,,,,,,,,,,,,,,,,,,,,,,,,,,,,,,,,
,,,,,,,,,675c5393b9b2d381baa880c2,spanish,13 or older,"no, only English or Spanish",no,2025-07-22_21h27.30.450,empathy_intonation_perc,2024.2.4,Win32,59.88023952,675c5393b9b2d381baa880c2,687ed1b7e638a4cbf2f02089,68803a54bebdaa1862b857b2,,,,,,,,,,,,,80,0,,./stim/wavs/mexican_mismatch_declarative-broad-focus_El-hombre-mira-la-luna.wav,,,,,,,,,,,,,,,,,,,,,,473.4638,475.994,1,0,1.9986,,0,83,83,79,1,0,mexican,,,,,,,,,,,,,,,,,,,,,,,,,,,,,,,,,,,,,,,,,,,,,,,,,,,,,,,,
,,,,,,,,,675c5393b9b2d381baa880c2,spanish,13 or older,"no, only English or Spanish",no,2025-07-22_21h27.30.450,empathy_intonation_perc,2024.2.4,Win32,59.88023952,675c5393b9b2d381baa880c2,687ed1b7e638a4cbf2f02089,68803a54bebdaa1862b857b2,,,,,,,,,,,,,67,0,,./stim/wavs/puertorican_match_declarative-broad-focus_Manuela-vende-el-carro.wav,,,,,,,,,,,,,,,,,,,,,,475.9946,478.608,1,0,2.0825,,0,84,84,66,1,0,puertorican,,,,,,,,,,,,,,,,,,,,,,,,,,,,,,,,,,,,,,,,,,,,,,,,,,,,,,,,
,,,,,,,,,675c5393b9b2d381baa880c2,spanish,13 or older,"no, only English or Spanish",no,2025-07-22_21h27.30.450,empathy_intonation_perc,2024.2.4,Win32,59.88023952,675c5393b9b2d381baa880c2,687ed1b7e638a4cbf2f02089,68803a54bebdaa1862b857b2,,,,,,,,,,,,,48,0,,./stim/wavs/castilian_match_declarative-broad-focus_Maria-bebe-el-vino.wav,,,,,,,,,,,,,,,,,,,,,,478.6088,481.3387,0,1,2.1993,,0,85,85,47,1,0,castilian,,,,,,,,,,,,,,,,,,,,,,,,,,,,,,,,,,,,,,,,,,,,,,,,,,,,,,,,
,,,,,,,,,675c5393b9b2d381baa880c2,spanish,13 or older,"no, only English or Spanish",no,2025-07-22_21h27.30.450,empathy_intonation_perc,2024.2.4,Win32,59.88023952,675c5393b9b2d381baa880c2,687ed1b7e638a4cbf2f02089,68803a54bebdaa1862b857b2,,,,,,,,,,,,,26,1,,./stim/wavs/castilian_mismatch_interrogative-total-yn_La-nina-lava-el-plato.wav,,,,,,,,,,,,,,,,,,,,,,481.3394,484.619,0,0,2.7494,,0,86,86,25,1,0,castilian,,,,,,,,,,,,,,,,,,,,,,,,,,,,,,,,,,,,,,,,,,,,,,,,,,,,,,,,
,,,,,,,,,675c5393b9b2d381baa880c2,spanish,13 or older,"no, only English or Spanish",no,2025-07-22_21h27.30.450,empathy_intonation_perc,2024.2.4,Win32,59.88023952,675c5393b9b2d381baa880c2,687ed1b7e638a4cbf2f02089,68803a54bebdaa1862b857b2,,,,,,,,,,,,,33,1,,./stim/wavs/cuban_mismatch_interrogative-total-yn_Mi-novio-viene-del-lago.wav,,,,,,,,,,,,,,,,,,,,,,484.6197,486.9666,0,0,1.8136,,0,87,87,32,1,1,cuban,,,,,,,,,,,,,,,,,,,,,,,,,,,,,,,,,,,,,,,,,,,,,,,,,,,,,,,,
,,,,,,,"Great! Now we will move on. The next task consists of about 60 trials, in each of which you will see a string of letters. 
  
  Your task is to decide whether this is a real Spanish word or not.", (press the spacebar to continue),675c5393b9b2d381baa880c2,spanish,13 or older,"no, only English or Spanish",no,2025-07-22_21h27.30.450,empathy_intonation_perc,2024.2.4,Win32,59.88023952,675c5393b9b2d381baa880c2,687ed1b7e638a4cbf2f02089,68803a54bebdaa1862b857b2,,,,,,,,,,,,,,,,,,,,,,,,,,,,,,,,,,,,,,,,,,,,,,,,,,,486.9754,493.2777,0,0,0,0,1,,,,,,,,,,,,,,,,,,,,,,,,,,,,,,,,,,,,,,,,,,,,,,,,,
,,,,,,,"If you think it is an existing Spanish word, you type '1' (for 'REAL'), and if you think it is not an existing Spanish word, you type '0' (for 'FAKE').", (press the spacebar to continue),675c5393b9b2d381baa880c2,spanish,13 or older,"no, only English or Spanish",no,2025-07-22_21h27.30.450,empathy_intonation_perc,2024.2.4,Win32,59.88023952,675c5393b9b2d381baa880c2,687ed1b7e638a4cbf2f02089,68803a54bebdaa1862b857b2,,,,,,,,,,,,,,,,,,,,,,,,,,,,,,,,,,,,,,,,,,,,,,,,,,,493.2806,494.8257,0,1,1,1,1,,,,,,,,,,,,,,,,,,,,,,,,,,,,,,,,,,,,,,,,,,,,,,,,,
,,,,,,,"If you are sure that the word exists, even though you don’t know its exact meaning, you may still respond '1' (REAL). 
  
  But if you are not sure if it is an existing word, you should respond '0' (FAKE).
  
  Let's do a practice round...", (press the spacebar to continue),675c5393b9b2d381baa880c2,spanish,13 or older,"no, only English or Spanish",no,2025-07-22_21h27.30.450,empathy_intonation_perc,2024.2.4,Win32,59.88023952,675c5393b9b2d381baa880c2,687ed1b7e638a4cbf2f02089,68803a54bebdaa1862b857b2,,,,,,,,,,,,,,,,,,,,,,,,,,,,,,,,,,,,,,,,,,,,,,,,,,,494.8286,499.621,0,2,2,2,1,,,,,,,,,,,,,,,,,,,,,,,,,,,,,,,,,,,,,,,,,,,,,,,,,
,,,,,,,,,675c5393b9b2d381baa880c2,spanish,13 or older,"no, only English or Spanish",no,2025-07-22_21h27.30.450,empathy_intonation_perc,2024.2.4,Win32,59.88023952,675c5393b9b2d381baa880c2,687ed1b7e638a4cbf2f02089,68803a54bebdaa1862b857b2,,,,,,,,,,,,,,0,,,,,,,,,,,,,,,,,,,,,,,,,,,,,,,,,,,,,,,,,,,,499.6279,502.7514,1,0,2.5969,,502.7518,503.7504,0,0,0,0,1,0,depiste,REAL,FAKE,,,,,,,,,,,,,,,,,,,,,,,,,,,,,,,,
,,,,,,,,,675c5393b9b2d381baa880c2,spanish,13 or older,"no, only English or Spanish",no,2025-07-22_21h27.30.450,empathy_intonation_perc,2024.2.4,Win32,59.88023952,675c5393b9b2d381baa880c2,687ed1b7e638a4cbf2f02089,68803a54bebdaa1862b857b2,,,,,,,,,,,,,,1,,,,,,,,,,,,,,,,,,,,,,,,,,,,,,,,,,,,,,,,,,,,503.7522,505.4818,1,1,1.1974,,505.4826,506.4808,0,1,1,1,1,0,sí,REAL,FAKE,,,,,,,,,,,,,,,,,,,,,,,,,,,,,,,,
,,,,,,,,,675c5393b9b2d381baa880c2,spanish,13 or older,"no, only English or Spanish",no,2025-07-22_21h27.30.450,empathy_intonation_perc,2024.2.4,Win32,59.88023952,675c5393b9b2d381baa880c2,687ed1b7e638a4cbf2f02089,68803a54bebdaa1862b857b2,,,,,,,,,,,,,,0,,,,,,,,,,,,,,,,,,,,,,,,,,,,,,,,,,,,,,,,,,,,506.4826,509.2448,1,0,2.2325,,509.2457,510.2438,0,2,2,2,1,0,coné,REAL,FAKE,,,,,,,,,,,,,,,,,,,,,,,,,,,,,,,,
,,,,,,,,,675c5393b9b2d381baa880c2,spanish,13 or older,"no, only English or Spanish",no,2025-07-22_21h27.30.450,empathy_intonation_perc,2024.2.4,Win32,59.88023952,675c5393b9b2d381baa880c2,687ed1b7e638a4cbf2f02089,68803a54bebdaa1862b857b2,,,,,,,,,,,,,,0,,,,,,,,,,,,,,,,,,,,,,,,,,,,,,,,,,,,,,,,,,,,510.245,511.7091,1,0,0.9303,,511.7092,512.708,0,3,3,3,1,0,calpar,REAL,FAKE,,,,,,,,,,,,,,,,,,,,,,,,,,,,,,,,
,,,,,,,,,675c5393b9b2d381baa880c2,spanish,13 or older,"no, only English or Spanish",no,2025-07-22_21h27.30.450,empathy_intonation_perc,2024.2.4,Win32,59.88023952,675c5393b9b2d381baa880c2,687ed1b7e638a4cbf2f02089,68803a54bebdaa1862b857b2,,,,,,,,,,,,,,0,,,,,,,,,,,,,,,,,,,,,,,,,,,,,,,,,,,,,,,,,,,,512.7097,514.9563,0,1,1.7043,,514.9573,515.9571,0,4,4,4,1,0,joten,REAL,FAKE,,,,,,,,,,,,,,,,,,,,,,,,,,,,,,,,
,,,,,,,,,675c5393b9b2d381baa880c2,spanish,13 or older,"no, only English or Spanish",no,2025-07-22_21h27.30.450,empathy_intonation_perc,2024.2.4,Win32,59.88023952,675c5393b9b2d381baa880c2,687ed1b7e638a4cbf2f02089,68803a54bebdaa1862b857b2,,,,,,,,,,,,,,1,,,,,,,,,,,,,,,,,,,,,,,,,,,,,,,,,,,,,,,,,,,,515.9587,518.3867,0,0,1.8804,,518.3885,519.3859,0,5,5,5,1,0,sacapuntas,REAL,FAKE,,,,,,,,,,,,,,,,,,,,,,,,,,,,,,,,
,,,,,,,,,675c5393b9b2d381baa880c2,spanish,13 or older,"no, only English or Spanish",no,2025-07-22_21h27.30.450,empathy_intonation_perc,2024.2.4,Win32,59.88023952,675c5393b9b2d381baa880c2,687ed1b7e638a4cbf2f02089,68803a54bebdaa1862b857b2,,,,,,,,,,,,,,0,,,,,,,,,,,,,,,,,,,,,,,,,,,,,,,,,,,,,,,,,,,,519.389,520.7844,0,1,0.8532,,520.7863,521.7836,0,6,6,6,1,0,priba,REAL,FAKE,,,,,,,,,,,,,,,,,,,,,,,,,,,,,,,,
,,,,,,,,,675c5393b9b2d381baa880c2,spanish,13 or older,"no, only English or Spanish",no,2025-07-22_21h27.30.450,empathy_intonation_perc,2024.2.4,Win32,59.88023952,675c5393b9b2d381baa880c2,687ed1b7e638a4cbf2f02089,68803a54bebdaa1862b857b2,,,,,,,,,,,,,,0,,,,,,,,,,,,,,,,,,,,,,,,,,,,,,,,,,,,,,,,,,,,521.7858,524.5639,0,1,2.2325,,524.5641,525.563,0,7,7,7,1,0,pelasula,REAL,FAKE,,,,,,,,,,,,,,,,,,,,,,,,,,,,,,,,
,,,,,,,,,675c5393b9b2d381baa880c2,spanish,13 or older,"no, only English or Spanish",no,2025-07-22_21h27.30.450,empathy_intonation_perc,2024.2.4,Win32,59.88023952,675c5393b9b2d381baa880c2,687ed1b7e638a4cbf2f02089,68803a54bebdaa1862b857b2,,,,,,,,,,,,,,1,,,,,,,,,,,,,,,,,,,,,,,,,,,,,,,,,,,,,,,,,,,,525.5652,527.5772,1,1,1.4878,,527.5773,528.5768,0,8,8,8,1,0,bien,REAL,FAKE,,,,,,,,,,,,,,,,,,,,,,,,,,,,,,,,
,,,,,,,,,675c5393b9b2d381baa880c2,spanish,13 or older,"no, only English or Spanish",no,2025-07-22_21h27.30.450,empathy_intonation_perc,2024.2.4,Win32,59.88023952,675c5393b9b2d381baa880c2,687ed1b7e638a4cbf2f02089,68803a54bebdaa1862b857b2,,,,,,,,,,,,,,1,,,,,,,,,,,,,,,,,,,,,,,,,,,,,,,,,,,,,,,,,,,,528.5791,529.8922,1,1,0.7697,,529.8924,530.8911,0,9,9,9,1,0,casa,REAL,FAKE,,,,,,,,,,,,,,,,,,,,,,,,,,,,,,,,
,,,,,,,,,675c5393b9b2d381baa880c2,spanish,13 or older,"no, only English or Spanish",no,2025-07-22_21h27.30.450,empathy_intonation_perc,2024.2.4,Win32,59.88023952,675c5393b9b2d381baa880c2,687ed1b7e638a4cbf2f02089,68803a54bebdaa1862b857b2,,,,,,,,,,,,,,0,,,,,,,,,,,,,,,,,,,,,,,,,,,,,,,,,,,,,,,,,,,,530.8932,533.3886,0,1,1.949,,533.3888,534.3876,0,10,10,10,1,0,lejo,REAL,FAKE,,,,,,,,,,,,,,,,,,,,,,,,,,,,,,,,
,,,,,,,,,675c5393b9b2d381baa880c2,spanish,13 or older,"no, only English or Spanish",no,2025-07-22_21h27.30.450,empathy_intonation_perc,2024.2.4,Win32,59.88023952,675c5393b9b2d381baa880c2,687ed1b7e638a4cbf2f02089,68803a54bebdaa1862b857b2,,,,,,,,,,,,,,0,,,,,,,,,,,,,,,,,,,,,,,,,,,,,,,,,,,,,,,,,,,,534.3897,537.4463,1,0,2.5151,,537.4479,538.434,0,11,11,11,1,0,pretantas,REAL,FAKE,,,,,,,,,,,,,,,,,,,,,,,,,,,,,,,,
,,,,,,,,,675c5393b9b2d381baa880c2,spanish,13 or older,"no, only English or Spanish",no,2025-07-22_21h27.30.450,empathy_intonation_perc,2024.2.4,Win32,59.88023952,675c5393b9b2d381baa880c2,687ed1b7e638a4cbf2f02089,68803a54bebdaa1862b857b2,,,,,,,,,,,,,,,,,,,,,,,,,,,,,,,,,,,,,,,,,,,,,,,,,,,,,,,,,,,,,,,,,,,,,,,,,,,538.4347,539.9278,,,,,,,,,,,,,,,,,,,,,,,,,,,,,,
,,,,,,,,,675c5393b9b2d381baa880c2,spanish,13 or older,"no, only English or Spanish",no,2025-07-22_21h27.30.450,empathy_intonation_perc,2024.2.4,Win32,59.88023952,675c5393b9b2d381baa880c2,687ed1b7e638a4cbf2f02089,68803a54bebdaa1862b857b2,,,,,,,,,,,,,,1,,,,,,,,,,,,,,,,,,,,,,,,,,,,,,,,,,,,,,,,,,,,,,,,,,,,,,,,,81,pozo,,,,,539.9632,541.9644,1,1,1.4722,,0,0,0,80,1,REAL,FAKE,,,,,,,,,,,,,,,,,
,,,,,,,,,675c5393b9b2d381baa880c2,spanish,13 or older,"no, only English or Spanish",no,2025-07-22_21h27.30.450,empathy_intonation_perc,2024.2.4,Win32,59.88023952,675c5393b9b2d381baa880c2,687ed1b7e638a4cbf2f02089,68803a54bebdaa1862b857b2,,,,,,,,,,,,,,0,,,,,,,,,,,,,,,,,,,,,,,,,,,,,,,,,,,,,,,,,,,,,,,,,,,,,,,,,32,fatacidad,,,,,541.9668,545.4601,1,0,2.9483,,0,1,1,31,1,REAL,FAKE,,,,,,,,,,,,,,,,,
,,,,,,,,,675c5393b9b2d381baa880c2,spanish,13 or older,"no, only English or Spanish",no,2025-07-22_21h27.30.450,empathy_intonation_perc,2024.2.4,Win32,59.88023952,675c5393b9b2d381baa880c2,687ed1b7e638a4cbf2f02089,68803a54bebdaa1862b857b2,,,,,,,,,,,,,,1,,,,,,,,,,,,,,,,,,,,,,,,,,,,,,,,,,,,,,,,,,,,,,,,,,,,,,,,,31,pandilla,,,,,545.4623,547.1576,1,1,1.1482,,0,2,2,30,1,REAL,FAKE,,,,,,,,,,,,,,,,,
,,,,,,,,,675c5393b9b2d381baa880c2,spanish,13 or older,"no, only English or Spanish",no,2025-07-22_21h27.30.450,empathy_intonation_perc,2024.2.4,Win32,59.88023952,675c5393b9b2d381baa880c2,687ed1b7e638a4cbf2f02089,68803a54bebdaa1862b857b2,,,,,,,,,,,,,,1,,,,,,,,,,,,,,,,,,,,,,,,,,,,,,,,,,,,,,,,,,,,,,,,,,,,,,,,,68,alegre,,,,,547.1588,548.8734,1,1,1.166,,0,3,3,67,1,REAL,FAKE,,,,,,,,,,,,,,,,,
,,,,,,,,,675c5393b9b2d381baa880c2,spanish,13 or older,"no, only English or Spanish",no,2025-07-22_21h27.30.450,empathy_intonation_perc,2024.2.4,Win32,59.88023952,675c5393b9b2d381baa880c2,687ed1b7e638a4cbf2f02089,68803a54bebdaa1862b857b2,,,,,,,,,,,,,,1,,,,,,,,,,,,,,,,,,,,,,,,,,,,,,,,,,,,,,,,,,,,,,,,,,,,,,,,,48,ladrón,,,,,548.8767,551.4206,0,0,2.0015,,0,4,4,47,1,REAL,FAKE,,,,,,,,,,,,,,,,,
,,,,,,,,,675c5393b9b2d381baa880c2,spanish,13 or older,"no, only English or Spanish",no,2025-07-22_21h27.30.450,empathy_intonation_perc,2024.2.4,Win32,59.88023952,675c5393b9b2d381baa880c2,687ed1b7e638a4cbf2f02089,68803a54bebdaa1862b857b2,,,,,,,,,,,,,,1,,,,,,,,,,,,,,,,,,,,,,,,,,,,,,,,,,,,,,,,,,,,,,,,,,,,,,,,,73,hervidor,,,,,551.4239,553.1518,0,0,1.1832,,0,5,5,72,1,REAL,FAKE,,,,,,,,,,,,,,,,,
,,,,,,,,,675c5393b9b2d381baa880c2,spanish,13 or older,"no, only English or Spanish",no,2025-07-22_21h27.30.450,empathy_intonation_perc,2024.2.4,Win32,59.88023952,675c5393b9b2d381baa880c2,687ed1b7e638a4cbf2f02089,68803a54bebdaa1862b857b2,,,,,,,,,,,,,,0,,,,,,,,,,,,,,,,,,,,,,,,,,,,,,,,,,,,,,,,,,,,,,,,,,,,,,,,,17,floroso,,,,,553.1529,555.383,0,1,1.6859,,0,6,6,16,1,REAL,FAKE,,,,,,,,,,,,,,,,,
,,,,,,,,,675c5393b9b2d381baa880c2,spanish,13 or older,"no, only English or Spanish",no,2025-07-22_21h27.30.450,empathy_intonation_perc,2024.2.4,Win32,59.88023952,675c5393b9b2d381baa880c2,687ed1b7e638a4cbf2f02089,68803a54bebdaa1862b857b2,,,,,,,,,,,,,,1,,,,,,,,,,,,,,,,,,,,,,,,,,,,,,,,,,,,,,,,,,,,,,,,,,,,,,,,,41,rebuscar,,,,,555.3843,557.5142,1,1,1.5828,,0,7,7,40,1,REAL,FAKE,,,,,,,,,,,,,,,,,
,,,,,,,,,675c5393b9b2d381baa880c2,spanish,13 or older,"no, only English or Spanish",no,2025-07-22_21h27.30.450,empathy_intonation_perc,2024.2.4,Win32,59.88023952,675c5393b9b2d381baa880c2,687ed1b7e638a4cbf2f02089,68803a54bebdaa1862b857b2,,,,,,,,,,,,,,0,,,,,,,,,,,,,,,,,,,,,,,,,,,,,,,,,,,,,,,,,,,,,,,,,,,,,,,,,33,pauca,,,,,557.5155,559.8122,0,1,1.7506,,0,8,8,32,1,REAL,FAKE,,,,,,,,,,,,,,,,,
,,,,,,,,,675c5393b9b2d381baa880c2,spanish,13 or older,"no, only English or Spanish",no,2025-07-22_21h27.30.450,empathy_intonation_perc,2024.2.4,Win32,59.88023952,675c5393b9b2d381baa880c2,687ed1b7e638a4cbf2f02089,68803a54bebdaa1862b857b2,,,,,,,,,,,,,,1,,,,,,,,,,,,,,,,,,,,,,,,,,,,,,,,,,,,,,,,,,,,,,,,,,,,,,,,,14,yunque,,,,,559.8145,562.2768,0,0,1.9174,,0,9,9,13,1,REAL,FAKE,,,,,,,,,,,,,,,,,
,,,,,,,,,675c5393b9b2d381baa880c2,spanish,13 or older,"no, only English or Spanish",no,2025-07-22_21h27.30.450,empathy_intonation_perc,2024.2.4,Win32,59.88023952,675c5393b9b2d381baa880c2,687ed1b7e638a4cbf2f02089,68803a54bebdaa1862b857b2,,,,,,,,,,,,,,0,,,,,,,,,,,,,,,,,,,,,,,,,,,,,,,,,,,,,,,,,,,,,,,,,,,,,,,,,53,vegada,,,,,562.2791,564.6248,1,0,1.7992,,0,10,10,52,1,REAL,FAKE,,,,,,,,,,,,,,,,,
,,,,,,,,,675c5393b9b2d381baa880c2,spanish,13 or older,"no, only English or Spanish",no,2025-07-22_21h27.30.450,empathy_intonation_perc,2024.2.4,Win32,59.88023952,675c5393b9b2d381baa880c2,687ed1b7e638a4cbf2f02089,68803a54bebdaa1862b857b2,,,,,,,,,,,,,,0,,,,,,,,,,,,,,,,,,,,,,,,,,,,,,,,,,,,,,,,,,,,,,,,,,,,,,,,,4,batillón,,,,,564.6272,566.0904,1,0,0.9227,,0,11,11,3,1,REAL,FAKE,,,,,,,,,,,,,,,,,
,,,,,,,,,675c5393b9b2d381baa880c2,spanish,13 or older,"no, only English or Spanish",no,2025-07-22_21h27.30.450,empathy_intonation_perc,2024.2.4,Win32,59.88023952,675c5393b9b2d381baa880c2,687ed1b7e638a4cbf2f02089,68803a54bebdaa1862b857b2,,,,,,,,,,,,,,1,,,,,,,,,,,,,,,,,,,,,,,,,,,,,,,,,,,,,,,,,,,,,,,,,,,,,,,,,6,tergiversar,,,,,566.0925,568.5542,1,1,1.9184,,0,12,12,5,1,REAL,FAKE,,,,,,,,,,,,,,,,,
,,,,,,,,,675c5393b9b2d381baa880c2,spanish,13 or older,"no, only English or Spanish",no,2025-07-22_21h27.30.450,empathy_intonation_perc,2024.2.4,Win32,59.88023952,675c5393b9b2d381baa880c2,687ed1b7e638a4cbf2f02089,68803a54bebdaa1862b857b2,,,,,,,,,,,,,,1,,,,,,,,,,,,,,,,,,,,,,,,,,,,,,,,,,,,,,,,,,,,,,,,,,,,,,,,,45,jilguero,,,,,568.5563,570.7685,0,0,1.6661,,0,13,13,44,1,REAL,FAKE,,,,,,,,,,,,,,,,,
,,,,,,,,,675c5393b9b2d381baa880c2,spanish,13 or older,"no, only English or Spanish",no,2025-07-22_21h27.30.450,empathy_intonation_perc,2024.2.4,Win32,59.88023952,675c5393b9b2d381baa880c2,687ed1b7e638a4cbf2f02089,68803a54bebdaa1862b857b2,,,,,,,,,,,,,,1,,,,,,,,,,,,,,,,,,,,,,,,,,,,,,,,,,,,,,,,,,,,,,,,,,,,,,,,,28,merodear,,,,,570.7707,573.1663,0,0,1.8657,,0,14,14,27,1,REAL,FAKE,,,,,,,,,,,,,,,,,
,,,,,,,,,675c5393b9b2d381baa880c2,spanish,13 or older,"no, only English or Spanish",no,2025-07-22_21h27.30.450,empathy_intonation_perc,2024.2.4,Win32,59.88023952,675c5393b9b2d381baa880c2,687ed1b7e638a4cbf2f02089,68803a54bebdaa1862b857b2,,,,,,,,,,,,,,1,,,,,,,,,,,,,,,,,,,,,,,,,,,,,,,,,,,,,,,,,,,,,,,,,,,,,,,,,7,pésimo,,,,,573.1685,575.281,1,1,1.5663,,0,15,15,6,1,REAL,FAKE,,,,,,,,,,,,,,,,,
,,,,,,,,,675c5393b9b2d381baa880c2,spanish,13 or older,"no, only English or Spanish",no,2025-07-22_21h27.30.450,empathy_intonation_perc,2024.2.4,Win32,59.88023952,675c5393b9b2d381baa880c2,687ed1b7e638a4cbf2f02089,68803a54bebdaa1862b857b2,,,,,,,,,,,,,,1,,,,,,,,,,,,,,,,,,,,,,,,,,,,,,,,,,,,,,,,,,,,,,,,,,,,,,,,,90,clavel,,,,,575.2834,578.5111,1,1,2.6817,,0,16,16,89,1,REAL,FAKE,,,,,,,,,,,,,,,,,
,,,,,,,,,675c5393b9b2d381baa880c2,spanish,13 or older,"no, only English or Spanish",no,2025-07-22_21h27.30.450,empathy_intonation_perc,2024.2.4,Win32,59.88023952,675c5393b9b2d381baa880c2,687ed1b7e638a4cbf2f02089,68803a54bebdaa1862b857b2,,,,,,,,,,,,,,1,,,,,,,,,,,,,,,,,,,,,,,,,,,,,,,,,,,,,,,,,,,,,,,,,,,,,,,,,24,látigo,,,,,578.5145,580.975,0,0,1.9143,,0,17,17,23,1,REAL,FAKE,,,,,,,,,,,,,,,,,
,,,,,,,,,675c5393b9b2d381baa880c2,spanish,13 or older,"no, only English or Spanish",no,2025-07-22_21h27.30.450,empathy_intonation_perc,2024.2.4,Win32,59.88023952,675c5393b9b2d381baa880c2,687ed1b7e638a4cbf2f02089,68803a54bebdaa1862b857b2,,,,,,,,,,,,,,0,,,,,,,,,,,,,,,,,,,,,,,,,,,,,,,,,,,,,,,,,,,,,,,,,,,,,,,,,58,plaudir,,,,,580.9762,583.0889,1,0,1.5654,,0,18,18,57,1,REAL,FAKE,,,,,,,,,,,,,,,,,
,,,,,,,,,675c5393b9b2d381baa880c2,spanish,13 or older,"no, only English or Spanish",no,2025-07-22_21h27.30.450,empathy_intonation_perc,2024.2.4,Win32,59.88023952,675c5393b9b2d381baa880c2,687ed1b7e638a4cbf2f02089,68803a54bebdaa1862b857b2,,,,,,,,,,,,,,1,,,,,,,,,,,,,,,,,,,,,,,,,,,,,,,,,,,,,,,,,,,,,,,,,,,,,,,,,11,cenefa,,,,,583.0898,585.7033,0,0,2.0808,,0,19,19,10,1,REAL,FAKE,,,,,,,,,,,,,,,,,
,,,,,,,,,675c5393b9b2d381baa880c2,spanish,13 or older,"no, only English or Spanish",no,2025-07-22_21h27.30.450,empathy_intonation_perc,2024.2.4,Win32,59.88023952,675c5393b9b2d381baa880c2,687ed1b7e638a4cbf2f02089,68803a54bebdaa1862b857b2,,,,,,,,,,,,,,0,,,,,,,,,,,,,,,,,,,,,,,,,,,,,,,,,,,,,,,,,,,,,,,,,,,,,,,,,63,esposante,,,,,585.7044,588.7336,1,0,2.481,,0,20,20,62,1,REAL,FAKE,,,,,,,,,,,,,,,,,
,,,,,,,,,675c5393b9b2d381baa880c2,spanish,13 or older,"no, only English or Spanish",no,2025-07-22_21h27.30.450,empathy_intonation_perc,2024.2.4,Win32,59.88023952,675c5393b9b2d381baa880c2,687ed1b7e638a4cbf2f02089,68803a54bebdaa1862b857b2,,,,,,,,,,,,,,0,,,,,,,,,,,,,,,,,,,,,,,,,,,,,,,,,,,,,,,,,,,,,,,,,,,,,,,,,74,cintro,,,,,588.7348,591.1654,1,0,1.8849,,0,21,21,73,1,REAL,FAKE,,,,,,,,,,,,,,,,,
,,,,,,,,,675c5393b9b2d381baa880c2,spanish,13 or older,"no, only English or Spanish",no,2025-07-22_21h27.30.450,empathy_intonation_perc,2024.2.4,Win32,59.88023952,675c5393b9b2d381baa880c2,687ed1b7e638a4cbf2f02089,68803a54bebdaa1862b857b2,,,,,,,,,,,,,,1,,,,,,,,,,,,,,,,,,,,,,,,,,,,,,,,,,,,,,,,,,,,,,,,,,,,,,,,,78,frondoso,,,,,591.1678,593.2796,0,0,1.5658,,0,22,22,77,1,REAL,FAKE,,,,,,,,,,,,,,,,,
,,,,,,,,,675c5393b9b2d381baa880c2,spanish,13 or older,"no, only English or Spanish",no,2025-07-22_21h27.30.450,empathy_intonation_perc,2024.2.4,Win32,59.88023952,675c5393b9b2d381baa880c2,687ed1b7e638a4cbf2f02089,68803a54bebdaa1862b857b2,,,,,,,,,,,,,,1,,,,,,,,,,,,,,,,,,,,,,,,,,,,,,,,,,,,,,,,,,,,,,,,,,,,,,,,,15,regar,,,,,593.2808,595.478,1,1,1.6491,,0,23,23,14,1,REAL,FAKE,,,,,,,,,,,,,,,,,
,,,,,,,,,675c5393b9b2d381baa880c2,spanish,13 or older,"no, only English or Spanish",no,2025-07-22_21h27.30.450,empathy_intonation_perc,2024.2.4,Win32,59.88023952,675c5393b9b2d381baa880c2,687ed1b7e638a4cbf2f02089,68803a54bebdaa1862b857b2,,,,,,,,,,,,,,1,,,,,,,,,,,,,,,,,,,,,,,,,,,,,,,,,,,,,,,,,,,,,,,,,,,,,,,,,3,pulmones,,,,,595.4802,597.193,1,1,1.1666,,0,24,24,2,1,REAL,FAKE,,,,,,,,,,,,,,,,,
,,,,,,,,,675c5393b9b2d381baa880c2,spanish,13 or older,"no, only English or Spanish",no,2025-07-22_21h27.30.450,empathy_intonation_perc,2024.2.4,Win32,59.88023952,675c5393b9b2d381baa880c2,687ed1b7e638a4cbf2f02089,68803a54bebdaa1862b857b2,,,,,,,,,,,,,,1,,,,,,,,,,,,,,,,,,,,,,,,,,,,,,,,,,,,,,,,,,,,,,,,,,,,,,,,,89,prisa,,,,,597.1952,598.9577,1,1,1.2166,,0,25,25,88,1,REAL,FAKE,,,,,,,,,,,,,,,,,
,,,,,,,,,675c5393b9b2d381baa880c2,spanish,13 or older,"no, only English or Spanish",no,2025-07-22_21h27.30.450,empathy_intonation_perc,2024.2.4,Win32,59.88023952,675c5393b9b2d381baa880c2,687ed1b7e638a4cbf2f02089,68803a54bebdaa1862b857b2,,,,,,,,,,,,,,1,,,,,,,,,,,,,,,,,,,,,,,,,,,,,,,,,,,,,,,,,,,,,,,,,,,,,,,,,59,besar,,,,,598.96,602.3878,1,1,2.8818,,0,26,26,58,1,REAL,FAKE,,,,,,,,,,,,,,,,,
,,,,,,,,,675c5393b9b2d381baa880c2,spanish,13 or older,"no, only English or Spanish",no,2025-07-22_21h27.30.450,empathy_intonation_perc,2024.2.4,Win32,59.88023952,675c5393b9b2d381baa880c2,687ed1b7e638a4cbf2f02089,68803a54bebdaa1862b857b2,,,,,,,,,,,,,,0,,,,,,,,,,,,,,,,,,,,,,,,,,,,,,,,,,,,,,,,,,,,,,,,,,,,,,,,,92,click the 0 key.,,,,,602.3902,604.8019,0,1,1.8661,,0,27,27,91,1,REAL,FAKE,,,,,,,,,,,,,,,,,
,,,,,,,,,675c5393b9b2d381baa880c2,spanish,13 or older,"no, only English or Spanish",no,2025-07-22_21h27.30.450,empathy_intonation_perc,2024.2.4,Win32,59.88023952,675c5393b9b2d381baa880c2,687ed1b7e638a4cbf2f02089,68803a54bebdaa1862b857b2,,,,,,,,,,,,,,1,,,,,,,,,,,,,,,,,,,,,,,,,,,,,,,,,,,,,,,,,,,,,,,,,,,,,,,,,22,lacayo,,,,,604.8042,606.6835,0,0,1.3355,,0,28,28,21,1,REAL,FAKE,,,,,,,,,,,,,,,,,
,,,,,,,,,675c5393b9b2d381baa880c2,spanish,13 or older,"no, only English or Spanish",no,2025-07-22_21h27.30.450,empathy_intonation_perc,2024.2.4,Win32,59.88023952,675c5393b9b2d381baa880c2,687ed1b7e638a4cbf2f02089,68803a54bebdaa1862b857b2,,,,,,,,,,,,,,1,,,,,,,,,,,,,,,,,,,,,,,,,,,,,,,,,,,,,,,,,,,,,,,,,,,,,,,,,85,laúd,,,,,606.6868,608.2649,0,0,1.0541,,0,29,29,84,1,REAL,FAKE,,,,,,,,,,,,,,,,,
,,,,,,,,,675c5393b9b2d381baa880c2,spanish,13 or older,"no, only English or Spanish",no,2025-07-22_21h27.30.450,empathy_intonation_perc,2024.2.4,Win32,59.88023952,675c5393b9b2d381baa880c2,687ed1b7e638a4cbf2f02089,68803a54bebdaa1862b857b2,,,,,,,,,,,,,,0,,,,,,,,,,,,,,,,,,,,,,,,,,,,,,,,,,,,,,,,,,,,,,,,,,,,,,,,,19,brecedad,,,,,608.2671,610.0468,0,1,1.2331,,0,30,30,18,1,REAL,FAKE,,,,,,,,,,,,,,,,,
,,,,,,,,,675c5393b9b2d381baa880c2,spanish,13 or older,"no, only English or Spanish",no,2025-07-22_21h27.30.450,empathy_intonation_perc,2024.2.4,Win32,59.88023952,675c5393b9b2d381baa880c2,687ed1b7e638a4cbf2f02089,68803a54bebdaa1862b857b2,,,,,,,,,,,,,,0,,,,,,,,,,,,,,,,,,,,,,,,,,,,,,,,,,,,,,,,,,,,,,,,,,,,,,,,,50,flamida,,,,,610.049,612.3279,1,0,1.7356,,0,31,31,49,1,REAL,FAKE,,,,,,,,,,,,,,,,,
,,,,,,,,,675c5393b9b2d381baa880c2,spanish,13 or older,"no, only English or Spanish",no,2025-07-22_21h27.30.450,empathy_intonation_perc,2024.2.4,Win32,59.88023952,675c5393b9b2d381baa880c2,687ed1b7e638a4cbf2f02089,68803a54bebdaa1862b857b2,,,,,,,,,,,,,,1,,,,,,,,,,,,,,,,,,,,,,,,,,,,,,,,,,,,,,,,,,,,,,,,,,,,,,,,,55,nevar,,,,,612.3302,614.1929,0,0,1.3166,,0,32,32,54,1,REAL,FAKE,,,,,,,,,,,,,,,,,
,,,,,,,,,675c5393b9b2d381baa880c2,spanish,13 or older,"no, only English or Spanish",no,2025-07-22_21h27.30.450,empathy_intonation_perc,2024.2.4,Win32,59.88023952,675c5393b9b2d381baa880c2,687ed1b7e638a4cbf2f02089,68803a54bebdaa1862b857b2,,,,,,,,,,,,,,1,,,,,,,,,,,,,,,,,,,,,,,,,,,,,,,,,,,,,,,,,,,,,,,,,,,,,,,,,39,torpe,,,,,614.1949,616.0247,0,0,1.2825,,0,33,33,38,1,REAL,FAKE,,,,,,,,,,,,,,,,,
,,,,,,,,,675c5393b9b2d381baa880c2,spanish,13 or older,"no, only English or Spanish",no,2025-07-22_21h27.30.450,empathy_intonation_perc,2024.2.4,Win32,59.88023952,675c5393b9b2d381baa880c2,687ed1b7e638a4cbf2f02089,68803a54bebdaa1862b857b2,,,,,,,,,,,,,,1,,,,,,,,,,,,,,,,,,,,,,,,,,,,,,,,,,,,,,,,,,,,,,,,,,,,,,,,,43,canela,,,,,616.0268,617.6884,0,0,1.1151,,0,34,34,42,1,REAL,FAKE,,,,,,,,,,,,,,,,,
,,,,,,,,,675c5393b9b2d381baa880c2,spanish,13 or older,"no, only English or Spanish",no,2025-07-22_21h27.30.450,empathy_intonation_perc,2024.2.4,Win32,59.88023952,675c5393b9b2d381baa880c2,687ed1b7e638a4cbf2f02089,68803a54bebdaa1862b857b2,,,,,,,,,,,,,,0,,,,,,,,,,,,,,,,,,,,,,,,,,,,,,,,,,,,,,,,,,,,,,,,,,,,,,,,,72,pemición,,,,,617.6894,619.5708,1,0,1.333,,0,35,35,71,1,REAL,FAKE,,,,,,,,,,,,,,,,,
,,,,,,,,,675c5393b9b2d381baa880c2,spanish,13 or older,"no, only English or Spanish",no,2025-07-22_21h27.30.450,empathy_intonation_perc,2024.2.4,Win32,59.88023952,675c5393b9b2d381baa880c2,687ed1b7e638a4cbf2f02089,68803a54bebdaa1862b857b2,,,,,,,,,,,,,,1,,,,,,,,,,,,,,,,,,,,,,,,,,,,,,,,,,,,,,,,,,,,,,,,,,,,,,,,,57,tacaño,,,,,619.5741,622.1516,1,1,2.0324,,0,36,36,56,1,REAL,FAKE,,,,,,,,,,,,,,,,,
,,,,,,,,,675c5393b9b2d381baa880c2,spanish,13 or older,"no, only English or Spanish",no,2025-07-22_21h27.30.450,empathy_intonation_perc,2024.2.4,Win32,59.88023952,675c5393b9b2d381baa880c2,687ed1b7e638a4cbf2f02089,68803a54bebdaa1862b857b2,,,,,,,,,,,,,,0,,,,,,,,,,,,,,,,,,,,,,,,,,,,,,,,,,,,,,,,,,,,,,,,,,,,,,,,,66,hacido,,,,,622.1538,623.5504,1,0,0.8499,,0,37,37,65,1,REAL,FAKE,,,,,,,,,,,,,,,,,
,,,,,,,,,675c5393b9b2d381baa880c2,spanish,13 or older,"no, only English or Spanish",no,2025-07-22_21h27.30.450,empathy_intonation_perc,2024.2.4,Win32,59.88023952,675c5393b9b2d381baa880c2,687ed1b7e638a4cbf2f02089,68803a54bebdaa1862b857b2,,,,,,,,,,,,,,1,,,,,,,,,,,,,,,,,,,,,,,,,,,,,,,,,,,,,,,,,,,,,,,,,,,,,,,,,75,yacer,,,,,623.5526,627.6631,0,0,3.5813,,0,38,38,74,1,REAL,FAKE,,,,,,,,,,,,,,,,,
,,,,,,,,,675c5393b9b2d381baa880c2,spanish,13 or older,"no, only English or Spanish",no,2025-07-22_21h27.30.450,empathy_intonation_perc,2024.2.4,Win32,59.88023952,675c5393b9b2d381baa880c2,687ed1b7e638a4cbf2f02089,68803a54bebdaa1862b857b2,,,,,,,,,,,,,,1,,,,,,,,,,,,,,,,,,,,,,,,,,,,,,,,,,,,,,,,,,,,,,,,,,,,,,,,,36,loro,,,,,627.6655,632.2415,0,0,4.03,,0,39,39,35,1,REAL,FAKE,,,,,,,,,,,,,,,,,
,,,,,,,,,675c5393b9b2d381baa880c2,spanish,13 or older,"no, only English or Spanish",no,2025-07-22_21h27.30.450,empathy_intonation_perc,2024.2.4,Win32,59.88023952,675c5393b9b2d381baa880c2,687ed1b7e638a4cbf2f02089,68803a54bebdaa1862b857b2,,,,,,,,,,,,,,1,,,,,,,,,,,,,,,,,,,,,,,,,,,,,,,,,,,,,,,,,,,,,,,,,,,,,,,,,71,polvoriento,,,,,632.2436,633.6349,0,0,0.8497,,0,40,40,70,1,REAL,FAKE,,,,,,,,,,,,,,,,,
,,,,,,,,,675c5393b9b2d381baa880c2,spanish,13 or older,"no, only English or Spanish",no,2025-07-22_21h27.30.450,empathy_intonation_perc,2024.2.4,Win32,59.88023952,675c5393b9b2d381baa880c2,687ed1b7e638a4cbf2f02089,68803a54bebdaa1862b857b2,,,,,,,,,,,,,,0,,,,,,,,,,,,,,,,,,,,,,,,,,,,,,,,,,,,,,,,,,,,,,,,,,,,,,,,,87,grodo,,,,,633.637,635.4386,1,0,1.2691,,0,41,41,86,1,REAL,FAKE,,,,,,,,,,,,,,,,,
,,,,,,,,,675c5393b9b2d381baa880c2,spanish,13 or older,"no, only English or Spanish",no,2025-07-22_21h27.30.450,empathy_intonation_perc,2024.2.4,Win32,59.88023952,675c5393b9b2d381baa880c2,687ed1b7e638a4cbf2f02089,68803a54bebdaa1862b857b2,,,,,,,,,,,,,,0,,,,,,,,,,,,,,,,,,,,,,,,,,,,,,,,,,,,,,,,,,,,,,,,,,,,,,,,,10,antar,,,,,635.4408,636.9372,1,0,0.9503,,0,42,42,9,1,REAL,FAKE,,,,,,,,,,,,,,,,,
,,,,,,,,,675c5393b9b2d381baa880c2,spanish,13 or older,"no, only English or Spanish",no,2025-07-22_21h27.30.450,empathy_intonation_perc,2024.2.4,Win32,59.88023952,675c5393b9b2d381baa880c2,687ed1b7e638a4cbf2f02089,68803a54bebdaa1862b857b2,,,,,,,,,,,,,,1,,,,,,,,,,,,,,,,,,,,,,,,,,,,,,,,,,,,,,,,,,,,,,,,,,,,,,,,,56,musgo,,,,,636.9393,639.0343,0,0,1.5487,,0,43,43,55,1,REAL,FAKE,,,,,,,,,,,,,,,,,
,,,,,,,,,675c5393b9b2d381baa880c2,spanish,13 or older,"no, only English or Spanish",no,2025-07-22_21h27.30.450,empathy_intonation_perc,2024.2.4,Win32,59.88023952,675c5393b9b2d381baa880c2,687ed1b7e638a4cbf2f02089,68803a54bebdaa1862b857b2,,,,,,,,,,,,,,1,,,,,,,,,,,,,,,,,,,,,,,,,,,,,,,,,,,,,,,,,,,,,,,,,,,,,,,,,83,guante,,,,,639.0355,640.9,1,1,1.3166,,0,44,44,82,1,REAL,FAKE,,,,,,,,,,,,,,,,,
,,,,,,,,,675c5393b9b2d381baa880c2,spanish,13 or older,"no, only English or Spanish",no,2025-07-22_21h27.30.450,empathy_intonation_perc,2024.2.4,Win32,59.88023952,675c5393b9b2d381baa880c2,687ed1b7e638a4cbf2f02089,68803a54bebdaa1862b857b2,,,,,,,,,,,,,,0,,,,,,,,,,,,,,,,,,,,,,,,,,,,,,,,,,,,,,,,,,,,,,,,,,,,,,,,,84,escuto,,,,,640.9022,642.2266,1,0,0.7837,,0,45,45,83,1,REAL,FAKE,,,,,,,,,,,,,,,,,
,,,,,,,,,675c5393b9b2d381baa880c2,spanish,13 or older,"no, only English or Spanish",no,2025-07-22_21h27.30.450,empathy_intonation_perc,2024.2.4,Win32,59.88023952,675c5393b9b2d381baa880c2,687ed1b7e638a4cbf2f02089,68803a54bebdaa1862b857b2,,,,,,,,,,,,,,1,,,,,,,,,,,,,,,,,,,,,,,,,,,,,,,,,,,,,,,,,,,,,,,,,,,,,,,,,61,seda,,,,,642.2287,643.5967,1,1,0.8384,,0,46,46,60,1,REAL,FAKE,,,,,,,,,,,,,,,,,
,,,,,,,,,675c5393b9b2d381baa880c2,spanish,13 or older,"no, only English or Spanish",no,2025-07-22_21h27.30.450,empathy_intonation_perc,2024.2.4,Win32,59.88023952,675c5393b9b2d381baa880c2,687ed1b7e638a4cbf2f02089,68803a54bebdaa1862b857b2,,,,,,,,,,,,,,0,,,,,,,,,,,,,,,,,,,,,,,,,,,,,,,,,,,,,,,,,,,,,,,,,,,,,,,,,82,empirador,,,,,643.599,649.3751,0,1,5.2293,,0,47,47,81,1,REAL,FAKE,,,,,,,,,,,,,,,,,
,,,,,,,,,675c5393b9b2d381baa880c2,spanish,13 or older,"no, only English or Spanish",no,2025-07-22_21h27.30.450,empathy_intonation_perc,2024.2.4,Win32,59.88023952,675c5393b9b2d381baa880c2,687ed1b7e638a4cbf2f02089,68803a54bebdaa1862b857b2,,,,,,,,,,,,,,1,,,,,,,,,,,,,,,,,,,,,,,,,,,,,,,,,,,,,,,,,,,,,,,,,,,,,,,,,69,engatusar,,,,,649.3775,652.5219,1,1,2.5989,,0,48,48,68,1,REAL,FAKE,,,,,,,,,,,,,,,,,
,,,,,,,,,675c5393b9b2d381baa880c2,spanish,13 or older,"no, only English or Spanish",no,2025-07-22_21h27.30.450,empathy_intonation_perc,2024.2.4,Win32,59.88023952,675c5393b9b2d381baa880c2,687ed1b7e638a4cbf2f02089,68803a54bebdaa1862b857b2,,,,,,,,,,,,,,0,,,,,,,,,,,,,,,,,,,,,,,,,,,,,,,,,,,,,,,,,,,,,,,,,,,,,,,,,42,cadallo,,,,,652.5246,655.8021,0,1,2.7315,,0,49,49,41,1,REAL,FAKE,,,,,,,,,,,,,,,,,
,,,,,,,,,675c5393b9b2d381baa880c2,spanish,13 or older,"no, only English or Spanish",no,2025-07-22_21h27.30.450,empathy_intonation_perc,2024.2.4,Win32,59.88023952,675c5393b9b2d381baa880c2,687ed1b7e638a4cbf2f02089,68803a54bebdaa1862b857b2,,,,,,,,,,,,,,0,,,,,,,,,,,,,,,,,,,,,,,,,,,,,,,,,,,,,,,,,,,,,,,,,,,,,,,,,47,cartinar,,,,,655.8045,657.3007,0,1,0.9534,,0,50,50,46,1,REAL,FAKE,,,,,,,,,,,,,,,,,
,,,,,,,,,675c5393b9b2d381baa880c2,spanish,13 or older,"no, only English or Spanish",no,2025-07-22_21h27.30.450,empathy_intonation_perc,2024.2.4,Win32,59.88023952,675c5393b9b2d381baa880c2,687ed1b7e638a4cbf2f02089,68803a54bebdaa1862b857b2,,,,,,,,,,,,,,1,,,,,,,,,,,,,,,,,,,,,,,,,,,,,,,,,,,,,,,,,,,,,,,,,,,,,,,,,49,ganar,,,,,657.3031,659.5983,1,1,1.7664,,0,51,51,48,1,REAL,FAKE,,,,,,,,,,,,,,,,,
,,,,,,,,,675c5393b9b2d381baa880c2,spanish,13 or older,"no, only English or Spanish",no,2025-07-22_21h27.30.450,empathy_intonation_perc,2024.2.4,Win32,59.88023952,675c5393b9b2d381baa880c2,687ed1b7e638a4cbf2f02089,68803a54bebdaa1862b857b2,,,,,,,,,,,,,,1,,,,,,,,,,,,,,,,,,,,,,,,,,,,,,,,,,,,,,,,,,,,,,,,,,,,,,,,,2,pellizcar,,,,,659.6007,661.4753,1,1,1.334,,0,52,52,1,1,REAL,FAKE,,,,,,,,,,,,,,,,,
,,,,,,,,,675c5393b9b2d381baa880c2,spanish,13 or older,"no, only English or Spanish",no,2025-07-22_21h27.30.450,empathy_intonation_perc,2024.2.4,Win32,59.88023952,675c5393b9b2d381baa880c2,687ed1b7e638a4cbf2f02089,68803a54bebdaa1862b857b2,,,,,,,,,,,,,,1,,,,,,,,,,,,,,,,,,,,,,,,,,,,,,,,,,,,,,,,,,,,,,,,,,,,,,,,,38,estornudar,,,,,661.4775,664.5047,0,0,2.4981,,0,53,53,37,1,REAL,FAKE,,,,,,,,,,,,,,,,,
,,,,,,,,,675c5393b9b2d381baa880c2,spanish,13 or older,"no, only English or Spanish",no,2025-07-22_21h27.30.450,empathy_intonation_perc,2024.2.4,Win32,59.88023952,675c5393b9b2d381baa880c2,687ed1b7e638a4cbf2f02089,68803a54bebdaa1862b857b2,,,,,,,,,,,,,,0,,,,,,,,,,,,,,,,,,,,,,,,,,,,,,,,,,,,,,,,,,,,,,,,,,,,,,,,,27,acutación,,,,,664.5069,668.5729,1,0,3.5329,,0,54,54,26,1,REAL,FAKE,,,,,,,,,,,,,,,,,
,,,,,,,,,675c5393b9b2d381baa880c2,spanish,13 or older,"no, only English or Spanish",no,2025-07-22_21h27.30.450,empathy_intonation_perc,2024.2.4,Win32,59.88023952,675c5393b9b2d381baa880c2,687ed1b7e638a4cbf2f02089,68803a54bebdaa1862b857b2,,,,,,,,,,,,,,1,,,,,,,,,,,,,,,,,,,,,,,,,,,,,,,,,,,,,,,,,,,,,,,,,,,,,,,,,64,orgulloso,,,,,668.5751,672.2858,0,0,3.1643,,0,55,55,63,1,REAL,FAKE,,,,,,,,,,,,,,,,,
,,,,,,,,,675c5393b9b2d381baa880c2,spanish,13 or older,"no, only English or Spanish",no,2025-07-22_21h27.30.450,empathy_intonation_perc,2024.2.4,Win32,59.88023952,675c5393b9b2d381baa880c2,687ed1b7e638a4cbf2f02089,68803a54bebdaa1862b857b2,,,,,,,,,,,,,,1,,,,,,,,,,,,,,,,,,,,,,,,,,,,,,,,,,,,,,,,,,,,,,,,,,,,,,,,,88,acantilado,,,,,672.2882,674.801,1,1,1.9722,,0,56,56,87,1,REAL,FAKE,,,,,,,,,,,,,,,,,
,,,,,,,,,675c5393b9b2d381baa880c2,spanish,13 or older,"no, only English or Spanish",no,2025-07-22_21h27.30.450,empathy_intonation_perc,2024.2.4,Win32,59.88023952,675c5393b9b2d381baa880c2,687ed1b7e638a4cbf2f02089,68803a54bebdaa1862b857b2,,,,,,,,,,,,,,0,,,,,,,,,,,,,,,,,,,,,,,,,,,,,,,,,,,,,,,,,,,,,,,,,,,,,,,,,8,cadeña,,,,,674.8031,676.0674,1,0,0.7244,,0,57,57,7,1,REAL,FAKE,,,,,,,,,,,,,,,,,
,,,,,,,,,675c5393b9b2d381baa880c2,spanish,13 or older,"no, only English or Spanish",no,2025-07-22_21h27.30.450,empathy_intonation_perc,2024.2.4,Win32,59.88023952,675c5393b9b2d381baa880c2,687ed1b7e638a4cbf2f02089,68803a54bebdaa1862b857b2,,,,,,,,,,,,,,0,,,,,,,,,,,,,,,,,,,,,,,,,,,,,,,,,,,,,,,,,,,,,,,,,,,,,,,,,35,rompido,,,,,676.0697,677.7806,1,0,1.1843,,0,58,58,34,1,REAL,FAKE,,,,,,,,,,,,,,,,,
,,,,,,,,,675c5393b9b2d381baa880c2,spanish,13 or older,"no, only English or Spanish",no,2025-07-22_21h27.30.450,empathy_intonation_perc,2024.2.4,Win32,59.88023952,675c5393b9b2d381baa880c2,687ed1b7e638a4cbf2f02089,68803a54bebdaa1862b857b2,,,,,,,,,,,,,,1,,,,,,,,,,,,,,,,,,,,,,,,,,,,,,,,,,,,,,,,,,,,,,,,,,,,,,,,,67,cabello,,,,,677.7827,679.1292,1,1,0.8004,,0,59,59,66,1,REAL,FAKE,,,,,,,,,,,,,,,,,
,,,,,,,,,675c5393b9b2d381baa880c2,spanish,13 or older,"no, only English or Spanish",no,2025-07-22_21h27.30.450,empathy_intonation_perc,2024.2.4,Win32,59.88023952,675c5393b9b2d381baa880c2,687ed1b7e638a4cbf2f02089,68803a54bebdaa1862b857b2,,,,,,,,,,,,,,1,,,,,,,,,,,,,,,,,,,,,,,,,,,,,,,,,,,,,,,,,,,,,,,,,,,,,,,,,12,asesinato,,,,,679.1314,680.9273,1,1,1.2494,,0,60,60,11,1,REAL,FAKE,,,,,,,,,,,,,,,,,
,,,,,,,,,675c5393b9b2d381baa880c2,spanish,13 or older,"no, only English or Spanish",no,2025-07-22_21h27.30.450,empathy_intonation_perc,2024.2.4,Win32,59.88023952,675c5393b9b2d381baa880c2,687ed1b7e638a4cbf2f02089,68803a54bebdaa1862b857b2,,,,,,,,,,,,,,1,,,,,,,,,,,,,,,,,,,,,,,,,,,,,,,,,,,,,,,,,,,,,,,,,,,,,,,,,46,martillo,,,,,680.9295,682.8752,1,1,1.3999,,0,61,61,45,1,REAL,FAKE,,,,,,,,,,,,,,,,,
,,,,,,,,,675c5393b9b2d381baa880c2,spanish,13 or older,"no, only English or Spanish",no,2025-07-22_21h27.30.450,empathy_intonation_perc,2024.2.4,Win32,59.88023952,675c5393b9b2d381baa880c2,687ed1b7e638a4cbf2f02089,68803a54bebdaa1862b857b2,,,,,,,,,,,,,,1,,,,,,,,,,,,,,,,,,,,,,,,,,,,,,,,,,,,,,,,,,,,,,,,,,,,,,,,,52,camisa,,,,,682.8773,684.2075,1,1,0.7838,,0,62,62,51,1,REAL,FAKE,,,,,,,,,,,,,,,,,
,,,,,,,,,675c5393b9b2d381baa880c2,spanish,13 or older,"no, only English or Spanish",no,2025-07-22_21h27.30.450,empathy_intonation_perc,2024.2.4,Win32,59.88023952,675c5393b9b2d381baa880c2,687ed1b7e638a4cbf2f02089,68803a54bebdaa1862b857b2,,,,,,,,,,,,,,1,,,,,,,,,,,,,,,,,,,,,,,,,,,,,,,,,,,,,,,,,,,,,,,,,,,,,,,,,37,granuja,,,,,684.2097,686.5386,0,0,1.7825,,0,63,63,36,1,REAL,FAKE,,,,,,,,,,,,,,,,,
,,,,,,,,,675c5393b9b2d381baa880c2,spanish,13 or older,"no, only English or Spanish",no,2025-07-22_21h27.30.450,empathy_intonation_perc,2024.2.4,Win32,59.88023952,675c5393b9b2d381baa880c2,687ed1b7e638a4cbf2f02089,68803a54bebdaa1862b857b2,,,,,,,,,,,,,,1,,,,,,,,,,,,,,,,,,,,,,,,,,,,,,,,,,,,,,,,,,,,,,,,,,,,,,,,,25,bisagra,,,,,686.5409,687.9207,0,0,0.834,,0,64,64,24,1,REAL,FAKE,,,,,,,,,,,,,,,,,
,,,,,,,,,675c5393b9b2d381baa880c2,spanish,13 or older,"no, only English or Spanish",no,2025-07-22_21h27.30.450,empathy_intonation_perc,2024.2.4,Win32,59.88023952,675c5393b9b2d381baa880c2,687ed1b7e638a4cbf2f02089,68803a54bebdaa1862b857b2,,,,,,,,,,,,,,0,,,,,,,,,,,,,,,,,,,,,,,,,,,,,,,,,,,,,,,,,,,,,,,,,,,,,,,,,29,decar,,,,,687.9227,689.969,1,0,1.5053,,0,65,65,28,1,REAL,FAKE,,,,,,,,,,,,,,,,,
,,,,,,,,,675c5393b9b2d381baa880c2,spanish,13 or older,"no, only English or Spanish",no,2025-07-22_21h27.30.450,empathy_intonation_perc,2024.2.4,Win32,59.88023952,675c5393b9b2d381baa880c2,687ed1b7e638a4cbf2f02089,68803a54bebdaa1862b857b2,,,,,,,,,,,,,,1,,,,,,,,,,,,,,,,,,,,,,,,,,,,,,,,,,,,,,,,,,,,,,,,,,,,,,,,,80,hormiga,,,,,689.9712,691.4171,1,1,0.9,,0,66,66,79,1,REAL,FAKE,,,,,,,,,,,,,,,,,
,,,,,,,,,675c5393b9b2d381baa880c2,spanish,13 or older,"no, only English or Spanish",no,2025-07-22_21h27.30.450,empathy_intonation_perc,2024.2.4,Win32,59.88023952,675c5393b9b2d381baa880c2,687ed1b7e638a4cbf2f02089,68803a54bebdaa1862b857b2,,,,,,,,,,,,,,1,,,,,,,,,,,,,,,,,,,,,,,,,,,,,,,,,,,,,,,,,,,,,,,,,,,,,,,,,77,tiburón,,,,,691.4193,693.0434,1,1,1.0834,,0,67,67,76,1,REAL,FAKE,,,,,,,,,,,,,,,,,
,,,,,,,,,675c5393b9b2d381baa880c2,spanish,13 or older,"no, only English or Spanish",no,2025-07-22_21h27.30.450,empathy_intonation_perc,2024.2.4,Win32,59.88023952,675c5393b9b2d381baa880c2,687ed1b7e638a4cbf2f02089,68803a54bebdaa1862b857b2,,,,,,,,,,,,,,0,,,,,,,,,,,,,,,,,,,,,,,,,,,,,,,,,,,,,,,,,,,,,,,,,,,,,,,,,18,arsa,,,,,693.0456,695.3962,0,1,1.8201,,0,68,68,17,1,REAL,FAKE,,,,,,,,,,,,,,,,,
,,,,,,,,,675c5393b9b2d381baa880c2,spanish,13 or older,"no, only English or Spanish",no,2025-07-22_21h27.30.450,empathy_intonation_perc,2024.2.4,Win32,59.88023952,675c5393b9b2d381baa880c2,687ed1b7e638a4cbf2f02089,68803a54bebdaa1862b857b2,,,,,,,,,,,,,,1,,,,,,,,,,,,,,,,,,,,,,,,,,,,,,,,,,,,,,,,,,,,,,,,,,,,,,,,,91,click the 1 key.,,,,,695.3995,697.2782,1,1,1.3328,,0,69,69,90,1,REAL,FAKE,,,,,,,,,,,,,,,,,
,,,,,,,,,675c5393b9b2d381baa880c2,spanish,13 or older,"no, only English or Spanish",no,2025-07-22_21h27.30.450,empathy_intonation_perc,2024.2.4,Win32,59.88023952,675c5393b9b2d381baa880c2,687ed1b7e638a4cbf2f02089,68803a54bebdaa1862b857b2,,,,,,,,,,,,,,1,,,,,,,,,,,,,,,,,,,,,,,,,,,,,,,,,,,,,,,,,,,,,,,,,,,,,,,,,26,secuestro,,,,,697.2807,699.1095,1,1,1.2835,,0,70,70,25,1,REAL,FAKE,,,,,,,,,,,,,,,,,
,,,,,,,,,675c5393b9b2d381baa880c2,spanish,13 or older,"no, only English or Spanish",no,2025-07-22_21h27.30.450,empathy_intonation_perc,2024.2.4,Win32,59.88023952,675c5393b9b2d381baa880c2,687ed1b7e638a4cbf2f02089,68803a54bebdaa1862b857b2,,,,,,,,,,,,,,1,,,,,,,,,,,,,,,,,,,,,,,,,,,,,,,,,,,,,,,,,,,,,,,,,,,,,,,,,65,bizcocho,,,,,699.1117,702.3061,0,0,2.6483,,0,71,71,64,1,REAL,FAKE,,,,,,,,,,,,,,,,,
,,,,,,,,,675c5393b9b2d381baa880c2,spanish,13 or older,"no, only English or Spanish",no,2025-07-22_21h27.30.450,empathy_intonation_perc,2024.2.4,Win32,59.88023952,675c5393b9b2d381baa880c2,687ed1b7e638a4cbf2f02089,68803a54bebdaa1862b857b2,,,,,,,,,,,,,,1,,,,,,,,,,,,,,,,,,,,,,,,,,,,,,,,,,,,,,,,,,,,,,,,,,,,,,,,,44,cuchara,,,,,702.3082,704.304,1,1,1.4497,,0,72,72,43,1,REAL,FAKE,,,,,,,,,,,,,,,,,
,,,,,,,,,675c5393b9b2d381baa880c2,spanish,13 or older,"no, only English or Spanish",no,2025-07-22_21h27.30.450,empathy_intonation_perc,2024.2.4,Win32,59.88023952,675c5393b9b2d381baa880c2,687ed1b7e638a4cbf2f02089,68803a54bebdaa1862b857b2,,,,,,,,,,,,,,0,,,,,,,,,,,,,,,,,,,,,,,,,,,,,,,,,,,,,,,,,,,,,,,,,,,,,,,,,23,lampera,,,,,704.3064,706.2517,0,1,1.4042,,0,73,73,22,1,REAL,FAKE,,,,,,,,,,,,,,,,,
,,,,,,,,,675c5393b9b2d381baa880c2,spanish,13 or older,"no, only English or Spanish",no,2025-07-22_21h27.30.450,empathy_intonation_perc,2024.2.4,Win32,59.88023952,675c5393b9b2d381baa880c2,687ed1b7e638a4cbf2f02089,68803a54bebdaa1862b857b2,,,,,,,,,,,,,,0,,,,,,,,,,,,,,,,,,,,,,,,,,,,,,,,,,,,,,,,,,,,,,,,,,,,,,,,,30,alardio,,,,,706.2531,707.6507,0,1,0.8561,,0,74,74,29,1,REAL,FAKE,,,,,,,,,,,,,,,,,
,,,,,,,,,675c5393b9b2d381baa880c2,spanish,13 or older,"no, only English or Spanish",no,2025-07-22_21h27.30.450,empathy_intonation_perc,2024.2.4,Win32,59.88023952,675c5393b9b2d381baa880c2,687ed1b7e638a4cbf2f02089,68803a54bebdaa1862b857b2,,,,,,,,,,,,,,1,,,,,,,,,,,,,,,,,,,,,,,,,,,,,,,,,,,,,,,,,,,,,,,,,,,,,,,,,54,fomentar,,,,,707.6518,709.7149,1,1,1.5154,,0,75,75,53,1,REAL,FAKE,,,,,,,,,,,,,,,,,
,,,,,,,,,675c5393b9b2d381baa880c2,spanish,13 or older,"no, only English or Spanish",no,2025-07-22_21h27.30.450,empathy_intonation_perc,2024.2.4,Win32,59.88023952,675c5393b9b2d381baa880c2,687ed1b7e638a4cbf2f02089,68803a54bebdaa1862b857b2,,,,,,,,,,,,,,1,,,,,,,,,,,,,,,,,,,,,,,,,,,,,,,,,,,,,,,,,,,,,,,,,,,,,,,,,60,matar,,,,,709.7162,713.1959,1,1,2.9323,,0,76,76,59,1,REAL,FAKE,,,,,,,,,,,,,,,,,
,,,,,,,,,675c5393b9b2d381baa880c2,spanish,13 or older,"no, only English or Spanish",no,2025-07-22_21h27.30.450,empathy_intonation_perc,2024.2.4,Win32,59.88023952,675c5393b9b2d381baa880c2,687ed1b7e638a4cbf2f02089,68803a54bebdaa1862b857b2,,,,,,,,,,,,,,0,,,,,,,,,,,,,,,,,,,,,,,,,,,,,,,,,,,,,,,,,,,,,,,,,,,,,,,,,21,capillo,,,,,713.1981,714.9938,0,1,1.2547,,0,77,77,20,1,REAL,FAKE,,,,,,,,,,,,,,,,,
,,,,,,,,,675c5393b9b2d381baa880c2,spanish,13 or older,"no, only English or Spanish",no,2025-07-22_21h27.30.450,empathy_intonation_perc,2024.2.4,Win32,59.88023952,675c5393b9b2d381baa880c2,687ed1b7e638a4cbf2f02089,68803a54bebdaa1862b857b2,,,,,,,,,,,,,,1,,,,,,,,,,,,,,,,,,,,,,,,,,,,,,,,,,,,,,,,,,,,,,,,,,,,,,,,,13,helar,,,,,714.996,716.4424,0,0,0.9052,,0,78,78,12,1,REAL,FAKE,,,,,,,,,,,,,,,,,
,,,,,,,,,675c5393b9b2d381baa880c2,spanish,13 or older,"no, only English or Spanish",no,2025-07-22_21h27.30.450,empathy_intonation_perc,2024.2.4,Win32,59.88023952,675c5393b9b2d381baa880c2,687ed1b7e638a4cbf2f02089,68803a54bebdaa1862b857b2,,,,,,,,,,,,,,1,,,,,,,,,,,,,,,,,,,,,,,,,,,,,,,,,,,,,,,,,,,,,,,,,,,,,,,,,34,aviso,,,,,716.4446,718.4573,1,1,1.4669,,0,79,79,33,1,REAL,FAKE,,,,,,,,,,,,,,,,,
,,,,,,,,,675c5393b9b2d381baa880c2,spanish,13 or older,"no, only English or Spanish",no,2025-07-22_21h27.30.450,empathy_intonation_perc,2024.2.4,Win32,59.88023952,675c5393b9b2d381baa880c2,687ed1b7e638a4cbf2f02089,68803a54bebdaa1862b857b2,,,,,,,,,,,,,,0,,,,,,,,,,,,,,,,,,,,,,,,,,,,,,,,,,,,,,,,,,,,,,,,,,,,,,,,,16,abracer,,,,,718.4594,720.3713,1,0,1.3652,,0,80,80,15,1,REAL,FAKE,,,,,,,,,,,,,,,,,
,,,,,,,,,675c5393b9b2d381baa880c2,spanish,13 or older,"no, only English or Spanish",no,2025-07-22_21h27.30.450,empathy_intonation_perc,2024.2.4,Win32,59.88023952,675c5393b9b2d381baa880c2,687ed1b7e638a4cbf2f02089,68803a54bebdaa1862b857b2,,,,,,,,,,,,,,1,,,,,,,,,,,,,,,,,,,,,,,,,,,,,,,,,,,,,,,,,,,,,,,,,,,,,,,,,20,ávido,,,,,720.3726,721.8038,1,1,0.89,,0,81,81,19,1,REAL,FAKE,,,,,,,,,,,,,,,,,
,,,,,,,,,675c5393b9b2d381baa880c2,spanish,13 or older,"no, only English or Spanish",no,2025-07-22_21h27.30.450,empathy_intonation_perc,2024.2.4,Win32,59.88023952,675c5393b9b2d381baa880c2,687ed1b7e638a4cbf2f02089,68803a54bebdaa1862b857b2,,,,,,,,,,,,,,1,,,,,,,,,,,,,,,,,,,,,,,,,,,,,,,,,,,,,,,,,,,,,,,,,,,,,,,,,76,atar,,,,,721.8053,723.8759,0,0,1.5331,,0,82,82,75,1,REAL,FAKE,,,,,,,,,,,,,,,,,
,,,,,,,,,675c5393b9b2d381baa880c2,spanish,13 or older,"no, only English or Spanish",no,2025-07-22_21h27.30.450,empathy_intonation_perc,2024.2.4,Win32,59.88023952,675c5393b9b2d381baa880c2,687ed1b7e638a4cbf2f02089,68803a54bebdaa1862b857b2,,,,,,,,,,,,,,1,,,,,,,,,,,,,,,,,,,,,,,,,,,,,,,,,,,,,,,,,,,,,,,,,,,,,,,,,51,candado,,,,,723.8772,725.3883,0,0,0.9795,,0,83,83,50,1,REAL,FAKE,,,,,,,,,,,,,,,,,
,,,,,,,,,675c5393b9b2d381baa880c2,spanish,13 or older,"no, only English or Spanish",no,2025-07-22_21h27.30.450,empathy_intonation_perc,2024.2.4,Win32,59.88023952,675c5393b9b2d381baa880c2,687ed1b7e638a4cbf2f02089,68803a54bebdaa1862b857b2,,,,,,,,,,,,,,0,,,,,,,,,,,,,,,,,,,,,,,,,,,,,,,,,,,,,,,,,,,,,,,,,,,,,,,,,79,tropaje,,,,,725.3898,726.8567,0,1,0.9041,,0,84,84,78,1,REAL,FAKE,,,,,,,,,,,,,,,,,
,,,,,,,,,675c5393b9b2d381baa880c2,spanish,13 or older,"no, only English or Spanish",no,2025-07-22_21h27.30.450,empathy_intonation_perc,2024.2.4,Win32,59.88023952,675c5393b9b2d381baa880c2,687ed1b7e638a4cbf2f02089,68803a54bebdaa1862b857b2,,,,,,,,,,,,,,1,,,,,,,,,,,,,,,,,,,,,,,,,,,,,,,,,,,,,,,,,,,,,,,,,,,,,,,,,9,hacha,,,,,726.858,728.9244,1,1,1.518,,0,85,85,8,1,REAL,FAKE,,,,,,,,,,,,,,,,,
,,,,,,,,,675c5393b9b2d381baa880c2,spanish,13 or older,"no, only English or Spanish",no,2025-07-22_21h27.30.450,empathy_intonation_perc,2024.2.4,Win32,59.88023952,675c5393b9b2d381baa880c2,687ed1b7e638a4cbf2f02089,68803a54bebdaa1862b857b2,,,,,,,,,,,,,,0,,,,,,,,,,,,,,,,,,,,,,,,,,,,,,,,,,,,,,,,,,,,,,,,,,,,,,,,,1,terzo,,,,,728.9265,730.1459,1,0,0.6842,,0,86,86,0,1,REAL,FAKE,,,,,,,,,,,,,,,,,
,,,,,,,,,675c5393b9b2d381baa880c2,spanish,13 or older,"no, only English or Spanish",no,2025-07-22_21h27.30.450,empathy_intonation_perc,2024.2.4,Win32,59.88023952,675c5393b9b2d381baa880c2,687ed1b7e638a4cbf2f02089,68803a54bebdaa1862b857b2,,,,,,,,,,,,,,1,,,,,,,,,,,,,,,,,,,,,,,,,,,,,,,,,,,,,,,,,,,,,,,,,,,,,,,,,40,alfombra,,,,,730.1481,731.3945,1,1,0.702,,0,87,87,39,1,REAL,FAKE,,,,,,,,,,,,,,,,,
,,,,,,,,,675c5393b9b2d381baa880c2,spanish,13 or older,"no, only English or Spanish",no,2025-07-22_21h27.30.450,empathy_intonation_perc,2024.2.4,Win32,59.88023952,675c5393b9b2d381baa880c2,687ed1b7e638a4cbf2f02089,68803a54bebdaa1862b857b2,,,,,,,,,,,,,,0,,,,,,,,,,,,,,,,,,,,,,,,,,,,,,,,,,,,,,,,,,,,,,,,,,,,,,,,,70,temblo,,,,,731.3966,732.6264,1,0,0.6889,,0,88,88,69,1,REAL,FAKE,,,,,,,,,,,,,,,,,
,,,,,,,,,675c5393b9b2d381baa880c2,spanish,13 or older,"no, only English or Spanish",no,2025-07-22_21h27.30.450,empathy_intonation_perc,2024.2.4,Win32,59.88023952,675c5393b9b2d381baa880c2,687ed1b7e638a4cbf2f02089,68803a54bebdaa1862b857b2,,,,,,,,,,,,,,1,,,,,,,,,,,,,,,,,,,,,,,,,,,,,,,,,,,,,,,,,,,,,,,,,,,,,,,,,5,zapato,,,,,732.6286,734.0918,1,1,0.9164,,0,89,89,4,1,REAL,FAKE,,,,,,,,,,,,,,,,,
,,,,,,,,,675c5393b9b2d381baa880c2,spanish,13 or older,"no, only English or Spanish",no,2025-07-22_21h27.30.450,empathy_intonation_perc,2024.2.4,Win32,59.88023952,675c5393b9b2d381baa880c2,687ed1b7e638a4cbf2f02089,68803a54bebdaa1862b857b2,,,,,,,,,,,,,,1,,,,,,,,,,,,,,,,,,,,,,,,,,,,,,,,,,,,,,,,,,,,,,,,,,,,,,,,,86,barato,,,,,734.0939,736.0568,0,0,1.4163,,0,90,90,85,1,REAL,FAKE,,,,,,,,,,,,,,,,,
,,,,,,,,,675c5393b9b2d381baa880c2,spanish,13 or older,"no, only English or Spanish",no,2025-07-22_21h27.30.450,empathy_intonation_perc,2024.2.4,Win32,59.88023952,675c5393b9b2d381baa880c2,687ed1b7e638a4cbf2f02089,68803a54bebdaa1862b857b2,,,,,,,,,,,,,,1,,,,,,,,,,,,,,,,,,,,,,,,,,,,,,,,,,,,,,,,,,,,,,,,,,,,,,,,,62,flaco,,,,,736.0589,737.8375,1,1,1.2319,,0,91,91,61,1,REAL,FAKE,,,,,,,,,,,,,,,,,
,,,,,,,,,675c5393b9b2d381baa880c2,spanish,13 or older,"no, only English or Spanish",no,2025-07-22_21h27.30.450,empathy_intonation_perc,2024.2.4,Win32,59.88023952,675c5393b9b2d381baa880c2,687ed1b7e638a4cbf2f02089,68803a54bebdaa1862b857b2,,,,,,,,,,,,,,,,,,,,,,,,,,,,,,,,,,,,,,,,,,,,,,,,,,,,,,,,,,,,,,,,,,,,,,,,,,,,,,,,,,,,,,,,,,737.8379,742.3719,,,,,,,,,,,,,,,
,,,,,,,,,675c5393b9b2d381baa880c2,spanish,13 or older,"no, only English or Spanish",no,2025-07-22_21h27.30.450,empathy_intonation_perc,2024.2.4,Win32,59.88023952,675c5393b9b2d381baa880c2,687ed1b7e638a4cbf2f02089,68803a54bebdaa1862b857b2,,,,,,,,,,,,,1,,,,,,,,,,,,,,,,,,,,,,,,,,,,,,,,,,,,,,,,,,,,,,,,,,,,,,,,,,,,,,,,,,,,,,,,,,,,,,,742.3956,748.3612,slightly agree,0,0,0,0,1,I can easily tell if someone else wants to enter a conversation.,1,0,1,0,,
,,,,,,,,,675c5393b9b2d381baa880c2,spanish,13 or older,"no, only English or Spanish",no,2025-07-22_21h27.30.450,empathy_intonation_perc,2024.2.4,Win32,59.88023952,675c5393b9b2d381baa880c2,687ed1b7e638a4cbf2f02089,68803a54bebdaa1862b857b2,,,,,,,,,,,,,2,,,,,,,,,,,,,,,,,,,,,,,,,,,,,,,,,,,,,,,,,,,,,,,,,,,,,,,,,,,,,,,,,,,,,,,,,,,,,,,748.3663,750.9151,slightly disagree,0,1,1,1,1,I prefer animals to humans.,0,1,0,0,,
,,,,,,,,,675c5393b9b2d381baa880c2,spanish,13 or older,"no, only English or Spanish",no,2025-07-22_21h27.30.450,empathy_intonation_perc,2024.2.4,Win32,59.88023952,675c5393b9b2d381baa880c2,687ed1b7e638a4cbf2f02089,68803a54bebdaa1862b857b2,,,,,,,,,,,,,3,,,,,,,,,,,,,,,,,,,,,,,,,,,,,,,,,,,,,,,,,,,,,,,,,,,,,,,,,,,,,,,,,,,,,,,,,,,,,,,750.918,753.5376,slightly disagree,0,2,2,2,1,I try to keep up with the current trends and fashions.,0,1,0,0,,
,,,,,,,,,675c5393b9b2d381baa880c2,spanish,13 or older,"no, only English or Spanish",no,2025-07-22_21h27.30.450,empathy_intonation_perc,2024.2.4,Win32,59.88023952,675c5393b9b2d381baa880c2,687ed1b7e638a4cbf2f02089,68803a54bebdaa1862b857b2,,,,,,,,,,,,,4,,,,,,,,,,,,,,,,,,,,,,,,,,,,,,,,,,,,,,,,,,,,,,,,,,,,,,,,,,,,,,,,,,,,,,,,,,,,,,,753.5414,757.5868,slightly agree,0,3,3,3,1,"I find it difficult to explain to others things that I understand easily,   when they don't understand it first time.",1,0,0,1,,
,,,,,,,,,675c5393b9b2d381baa880c2,spanish,13 or older,"no, only English or Spanish",no,2025-07-22_21h27.30.450,empathy_intonation_perc,2024.2.4,Win32,59.88023952,675c5393b9b2d381baa880c2,687ed1b7e638a4cbf2f02089,68803a54bebdaa1862b857b2,,,,,,,,,,,,,5,,,,,,,,,,,,,,,,,,,,,,,,,,,,,,,,,,,,,,,,,,,,,,,,,,,,,,,,,,,,,,,,,,,,,,,,,,,,,,,757.589,759.0787,slightly agree,0,4,4,4,1,I dream most nights.,0,1,0,0,,
,,,,,,,,,675c5393b9b2d381baa880c2,spanish,13 or older,"no, only English or Spanish",no,2025-07-22_21h27.30.450,empathy_intonation_perc,2024.2.4,Win32,59.88023952,675c5393b9b2d381baa880c2,687ed1b7e638a4cbf2f02089,68803a54bebdaa1862b857b2,,,,,,,,,,,,,6,,,,,,,,,,,,,,,,,,,,,,,,,,,,,,,,,,,,,,,,,,,,,,,,,,,,,,,,,,,,,,,,,,,,,,,,,,,,,,,759.0811,760.7499,slightly agree,0,5,5,5,1,I really enjoy caring for other people.,1,0,1,0,,
,,,,,,,,,675c5393b9b2d381baa880c2,spanish,13 or older,"no, only English or Spanish",no,2025-07-22_21h27.30.450,empathy_intonation_perc,2024.2.4,Win32,59.88023952,675c5393b9b2d381baa880c2,687ed1b7e638a4cbf2f02089,68803a54bebdaa1862b857b2,,,,,,,,,,,,,7,,,,,,,,,,,,,,,,,,,,,,,,,,,,,,,,,,,,,,,,,,,,,,,,,,,,,,,,,,,,,,,,,,,,,,,,,,,,,,,760.7527,762.9211,slightly agree,0,6,6,6,1,I try to solve my own problems rather than discussing them with others.,0,1,0,0,,
,,,,,,,,,675c5393b9b2d381baa880c2,spanish,13 or older,"no, only English or Spanish",no,2025-07-22_21h27.30.450,empathy_intonation_perc,2024.2.4,Win32,59.88023952,675c5393b9b2d381baa880c2,687ed1b7e638a4cbf2f02089,68803a54bebdaa1862b857b2,,,,,,,,,,,,,8,,,,,,,,,,,,,,,,,,,,,,,,,,,,,,,,,,,,,,,,,,,,,,,,,,,,,,,,,,,,,,,,,,,,,,,,,,,,,,,762.9232,765.5969,slightly disagree,0,7,7,7,1,I find it hard to know what to do in a social situation.,1,0,0,1,,
,,,,,,,,,675c5393b9b2d381baa880c2,spanish,13 or older,"no, only English or Spanish",no,2025-07-22_21h27.30.450,empathy_intonation_perc,2024.2.4,Win32,59.88023952,675c5393b9b2d381baa880c2,687ed1b7e638a4cbf2f02089,68803a54bebdaa1862b857b2,,,,,,,,,,,,,9,,,,,,,,,,,,,,,,,,,,,,,,,,,,,,,,,,,,,,,,,,,,,,,,,,,,,,,,,,,,,,,,,,,,,,,,,,,,,,,765.5991,768.8949,strongly agree,0,8,8,8,1,I am at my best first thing in the morning.,0,1,0,0,,
,,,,,,,,,675c5393b9b2d381baa880c2,spanish,13 or older,"no, only English or Spanish",no,2025-07-22_21h27.30.450,empathy_intonation_perc,2024.2.4,Win32,59.88023952,675c5393b9b2d381baa880c2,687ed1b7e638a4cbf2f02089,68803a54bebdaa1862b857b2,,,,,,,,,,,,,10,,,,,,,,,,,,,,,,,,,,,,,,,,,,,,,,,,,,,,,,,,,,,,,,,,,,,,,,,,,,,,,,,,,,,,,,,,,,,,,768.8976,774.2899,slightly agree,0,9,9,9,1,People often tell me that I went too far in driving my point home in a discussion.,1,0,0,1,,
