instructions_exposure.started,instructions_exposure.stopped,instructions_exposure_loop.thisRepN,instructions_exposure_loop.thisTrialN,instructions_exposure_loop.thisN,instructions_exposure_loop.thisIndex,instructions_exposure_loop.ran,instructions_text,continue_text,participant_id,"What variety of Spanish are you most familiar with? (e.g., Peruvian, Spanish, Mexican)",At what age did you begin learning Spanish?,Are you proficient in any languages other than English/Spanish?,"Are you familiar with Caribbean (e.g., Caribbean, Puerto Rican) or Galician Spanish?",date,expName,psychopyVersion,OS,frameRate,id,study_id,session,trial_exposure.started,trial_exposure.stopped,key_resp_exposure.keys,key_resp_exposure.corr,key_resp_exposure.rt,key_resp_exposure.duration,key_resp.keys,exposure_loop.thisRepN,exposure_loop.thisTrialN,exposure_loop.thisN,exposure_loop.thisIndex,exposure_loop.ran,item_num,correct_response,question,path,duration,instructions_2afc.started,instructions_2afc.stopped,instructions_2afc_loop.thisRepN,instructions_2afc_loop.thisTrialN,instructions_2afc_loop.thisN,instructions_2afc_loop.thisIndex,instructions_2afc_loop.ran,practice_2afc.started,practice_2afc.stopped,key_resp_2afc_practice.keys,key_resp_2afc_practice.corr,key_resp_2afc_practice.rt,key_resp_2afc_practice.duration,trials_2afc_practice_loop.thisRepN,trials_2afc_practice_loop.thisTrialN,trials_2afc_practice_loop.thisN,trials_2afc_practice_loop.thisIndex,trials_2afc_practice_loop.ran,check_2afc.started,check_2afc.stopped,trial_2afc.started,trial_2afc.stopped,key_resp_2afc_trial.keys,key_resp_2afc_trial.corr,key_resp_2afc_trial.rt,key_resp_2afc_trial.duration,trials_2afc_loop.thisRepN,trials_2afc_loop.thisTrialN,trials_2afc_loop.thisN,trials_2afc_loop.thisIndex,trials_2afc_loop.ran,target,variety,instructions_lextale.started,instructions_lextale.stopped,instructions_lextale_loop.thisRepN,instructions_lextale_loop.thisTrialN,instructions_lextale_loop.thisN,instructions_lextale_loop.thisIndex,instructions_lextale_loop.ran,practice_lextale.started,practice_lextale.stopped,key_resp_lextale_practice.keys,key_resp_lextale_practice.corr,key_resp_lextale_practice.rt,key_resp_lextale_practice.duration,practice_feedback_lextale.started,practice_feedback_lextale.stopped,trials_lextale_practice_loop.thisRepN,trials_lextale_practice_loop.thisTrialN,trials_lextale_practice_loop.thisN,trials_lextale_practice_loop.thisIndex,trials_lextale_practice_loop.ran,stim,word,prac_button_real,prac_button_false,check_lextale.started,check_lextale.stopped,trial_lextale.started,trial_lextale.stopped,key_resp_lextale_trial.keys,key_resp_lextale_trial.corr,key_resp_lextale_trial.rt,key_resp_lextale_trial.duration,trials_lextale_loop.thisRepN,trials_lextale_loop.thisTrialN,trials_lextale_loop.thisN,trials_lextale_loop.thisIndex,trials_lextale_loop.ran,button_real,button_false,instructions_eq.started,instructions_eq.stopped,trial_eq.started,trial_eq.stopped,slider_eq_trial.response,trials_eq_loop.thisRepN,trials_eq_loop.thisTrialN,trials_eq_loop.thisN,trials_eq_loop.thisIndex,trials_eq_loop.ran,item,is_test_item,is_distractor,is_agree_score,is_disagree_score,end_exp.started,end_exp.stopped
0.0301,3.7427,0,0,0,0,1,"In the following task, you are going to hear a series of conversations.", (press the space bar to continue),6761134a283b8ace0b1e0345,Spanish,13 or older,"no, only English or Spanish",no,2025-07-22_20h41.35.081,empathy_intonation_perc,2024.2.4,Win32,60.60606061,6761134a283b8ace0b1e0345,687ed1b7e638a4cbf2f02089,68802f9cd16cca49356c8927,,,,,,,,,,,,,,,,,,,,,,,,,,,,,,,,,,,,,,,,,,,,,,,,,,,,,,,,,,,,,,,,,,,,,,,,,,,,,,,,,,,,,,,,,,,,,,,,,,,,,,,,,,
3.744,5.3753,0,1,1,1,1,It is okay if you don't not 100% understand them!, (press the space bar to continue),6761134a283b8ace0b1e0345,Spanish,13 or older,"no, only English or Spanish",no,2025-07-22_20h41.35.081,empathy_intonation_perc,2024.2.4,Win32,60.60606061,6761134a283b8ace0b1e0345,687ed1b7e638a4cbf2f02089,68802f9cd16cca49356c8927,,,,,,,,,,,,,,,,,,,,,,,,,,,,,,,,,,,,,,,,,,,,,,,,,,,,,,,,,,,,,,,,,,,,,,,,,,,,,,,,,,,,,,,,,,,,,,,,,,,,,,,,,,
5.3782,12.8118,0,2,2,2,1,"After, you will read a sentence about the conversation and decide if it's true or false.", (press the space bar to continue),6761134a283b8ace0b1e0345,Spanish,13 or older,"no, only English or Spanish",no,2025-07-22_20h41.35.081,empathy_intonation_perc,2024.2.4,Win32,60.60606061,6761134a283b8ace0b1e0345,687ed1b7e638a4cbf2f02089,68802f9cd16cca49356c8927,,,,,,,,,,,,,,,,,,,,,,,,,,,,,,,,,,,,,,,,,,,,,,,,,,,,,,,,,,,,,,,,,,,,,,,,,,,,,,,,,,,,,,,,,,,,,,,,,,,,,,,,,,
12.8134,15.6694,0,3,3,3,1,"If it's true, press '1' (True) and if it's false press '0' (False).", (press the space bar to continue),6761134a283b8ace0b1e0345,Spanish,13 or older,"no, only English or Spanish",no,2025-07-22_20h41.35.081,empathy_intonation_perc,2024.2.4,Win32,60.60606061,6761134a283b8ace0b1e0345,687ed1b7e638a4cbf2f02089,68802f9cd16cca49356c8927,,,,,,,,,,,,,,,,,,,,,,,,,,,,,,,,,,,,,,,,,,,,,,,,,,,,,,,,,,,,,,,,,,,,,,,,,,,,,,,,,,,,,,,,,,,,,,,,,,,,,,,,,,
,,,,,,,,,6761134a283b8ace0b1e0345,Spanish,13 or older,"no, only English or Spanish",no,2025-07-22_20h41.35.081,empathy_intonation_perc,2024.2.4,Win32,60.60606061,6761134a283b8ace0b1e0345,687ed1b7e638a4cbf2f02089,68802f9cd16cca49356c8927,15.6791,78.9195,1,1,3.2005,,,0,0,0,1,1,2,1,The mom asked the daughter if she already went to the supermarket.,./stim/exposure_wavs/dr_stimuli_convo.wav,60,,,,,,,,,,,,,,,,,,,,,,,,,,,,,,,,,,,,,,,,,,,,,,,,,,,,,,,,,,,,,,,,,,,,,,,,,,,,,,,,,,,,,,,,,
,,,,,,,,,6761134a283b8ace0b1e0345,Spanish,13 or older,"no, only English or Spanish",no,2025-07-22_20h41.35.081,empathy_intonation_perc,2024.2.4,Win32,60.60606061,6761134a283b8ace0b1e0345,687ed1b7e638a4cbf2f02089,68802f9cd16cca49356c8927,78.9222,129.4823,0,0,3.5328,,,0,1,1,0,1,1,1,The son asked the mom if Aunt Marina is okay.,./stim/exposure_wavs/ga_stimuli_convo.wav,47,,,,,,,,,,,,,,,,,,,,,,,,,,,,,,,,,,,,,,,,,,,,,,,,,,,,,,,,,,,,,,,,,,,,,,,,,,,,,,,,,,,,,,,,,
,,,,,,,,,6761134a283b8ace0b1e0345,Spanish,13 or older,"no, only English or Spanish",no,2025-07-22_20h41.35.081,empathy_intonation_perc,2024.2.4,Win32,60.60606061,6761134a283b8ace0b1e0345,687ed1b7e638a4cbf2f02089,68802f9cd16cca49356c8927,129.4846,168.897,1,0,3.3788,,,0,2,2,2,1,3,0,The mom already has rice.,./stim/exposure_wavs/pr_stimuli_convo.wav,36,,,,,,,,,,,,,,,,,,,,,,,,,,,,,,,,,,,,,,,,,,,,,,,,,,,,,,,,,,,,,,,,,,,,,,,,,,,,,,,,,,,,,,,,,
,,,,,,,"In the following task you are going to hear a series of utterances. 

  You will decide if the utterances sound like questions or not using your keyboard.", (press the spacebar to continue),6761134a283b8ace0b1e0345,Spanish,13 or older,"no, only English or Spanish",no,2025-07-22_20h41.35.081,empathy_intonation_perc,2024.2.4,Win32,60.60606061,6761134a283b8ace0b1e0345,687ed1b7e638a4cbf2f02089,68802f9cd16cca49356c8927,,,,,,,,,,,,,,,,,,168.9025,174.5121,0,0,0,0,1,,,,,,,,,,,,,,,,,,,,,,,,,,,,,,,,,,,,,,,,,,,,,,,,,,,,,,,,,,,,,,,,,,,,,,,,,,,,,,,,,,
,,,,,,,"If you believe the utterance is a question, type '1' (for 'yes') and if you do not 
  believe it is a question type '0' (for 'no').

  Let's practice a bit...", (press the spacebar to continue),6761134a283b8ace0b1e0345,Spanish,13 or older,"no, only English or Spanish",no,2025-07-22_20h41.35.081,empathy_intonation_perc,2024.2.4,Win32,60.60606061,6761134a283b8ace0b1e0345,687ed1b7e638a4cbf2f02089,68802f9cd16cca49356c8927,,,,,,,,,,,,,,,,,,174.5141,178.2287,0,1,1,1,1,,,,,,,,,,,,,,,,,,,,,,,,,,,,,,,,,,,,,,,,,,,,,,,,,,,,,,,,,,,,,,,,,,,,,,,,,,,,,,,,,,
,,,,,,,,,6761134a283b8ace0b1e0345,Spanish,13 or older,"no, only English or Spanish",no,2025-07-22_20h41.35.081,empathy_intonation_perc,2024.2.4,Win32,60.60606061,6761134a283b8ace0b1e0345,687ed1b7e638a4cbf2f02089,68802f9cd16cca49356c8927,,,,,,,,,,,,,,0,,./stim/wavs/cuban_statement_filler_Cocinabas-por-la-noche.wav,,,,,,,,,178.2356,181.0116,0,1,2.253,,0,0,0,4,1,,,,,,,,,,,,,,,,,,,,,,,,,,,,,,,,,,,,,,,,,,,,,,,,,,,,,,,,,,,,,,,,,,,,,,,
,,,,,,,,,6761134a283b8ace0b1e0345,Spanish,13 or older,"no, only English or Spanish",no,2025-07-22_20h41.35.081,empathy_intonation_perc,2024.2.4,Win32,60.60606061,6761134a283b8ace0b1e0345,687ed1b7e638a4cbf2f02089,68802f9cd16cca49356c8927,,,,,,,,,,,,,,0,,./stim/wavs/puertorican_statement_filler_La-nina-pinta-con-su-amiga.wav,,,,,,,,,181.013,183.5279,0,1,1.9837,,0,1,1,7,1,,,,,,,,,,,,,,,,,,,,,,,,,,,,,,,,,,,,,,,,,,,,,,,,,,,,,,,,,,,,,,,,,,,,,,,
,,,,,,,,,6761134a283b8ace0b1e0345,Spanish,13 or older,"no, only English or Spanish",no,2025-07-22_20h41.35.081,empathy_intonation_perc,2024.2.4,Win32,60.60606061,6761134a283b8ace0b1e0345,687ed1b7e638a4cbf2f02089,68802f9cd16cca49356c8927,,,,,,,,,,,,,,0,,./stim/wavs/peruvian_statement_filler_El-nino-habla-con-su-madre.wav,,,,,,,,,183.5286,186.4943,0,1,2.4414,,0,2,2,6,1,,,,,,,,,,,,,,,,,,,,,,,,,,,,,,,,,,,,,,,,,,,,,,,,,,,,,,,,,,,,,,,,,,,,,,,
,,,,,,,,,6761134a283b8ace0b1e0345,Spanish,13 or older,"no, only English or Spanish",no,2025-07-22_20h41.35.081,empathy_intonation_perc,2024.2.4,Win32,60.60606061,6761134a283b8ace0b1e0345,687ed1b7e638a4cbf2f02089,68802f9cd16cca49356c8927,,,,,,,,,,,,,,1,,./stim/wavs/chilean_question_filler_Mi-padre-cantaba-bien.wav,,,,,,,,,186.4951,188.5108,1,1,1.4876,,0,3,3,2,1,,,,,,,,,,,,,,,,,,,,,,,,,,,,,,,,,,,,,,,,,,,,,,,,,,,,,,,,,,,,,,,,,,,,,,,
,,,,,,,,,6761134a283b8ace0b1e0345,Spanish,13 or older,"no, only English or Spanish",no,2025-07-22_20h41.35.081,empathy_intonation_perc,2024.2.4,Win32,60.60606061,6761134a283b8ace0b1e0345,687ed1b7e638a4cbf2f02089,68802f9cd16cca49356c8927,,,,,,,,,,,,,,1,,./stim/wavs/mexican_question_filler_Felipe-no-tiene-contrasena.wav,,,,,,,,,188.5115,190.7607,1,1,1.7216,,0,4,4,3,1,,,,,,,,,,,,,,,,,,,,,,,,,,,,,,,,,,,,,,,,,,,,,,,,,,,,,,,,,,,,,,,,,,,,,,,
,,,,,,,,,6761134a283b8ace0b1e0345,Spanish,13 or older,"no, only English or Spanish",no,2025-07-22_20h41.35.081,empathy_intonation_perc,2024.2.4,Win32,60.60606061,6761134a283b8ace0b1e0345,687ed1b7e638a4cbf2f02089,68802f9cd16cca49356c8927,,,,,,,,,,,,,,1,,./stim/wavs/argentine_question_filler_Mi-vecino-habla-mucho.wav,,,,,,,,,190.7615,192.8272,1,1,1.5363,,0,5,5,1,1,,,,,,,,,,,,,,,,,,,,,,,,,,,,,,,,,,,,,,,,,,,,,,,,,,,,,,,,,,,,,,,,,,,,,,,
,,,,,,,,,6761134a283b8ace0b1e0345,Spanish,13 or older,"no, only English or Spanish",no,2025-07-22_20h41.35.081,empathy_intonation_perc,2024.2.4,Win32,60.60606061,6761134a283b8ace0b1e0345,687ed1b7e638a4cbf2f02089,68802f9cd16cca49356c8927,,,,,,,,,,,,,,1,,./stim/wavs/castilian_question_filler_Mi-esposo-conoce-al-chico.wav,,,,,,,,,192.828,195.277,1,1,1.9167,,0,6,6,0,1,,,,,,,,,,,,,,,,,,,,,,,,,,,,,,,,,,,,,,,,,,,,,,,,,,,,,,,,,,,,,,,,,,,,,,,
,,,,,,,,,6761134a283b8ace0b1e0345,Spanish,13 or older,"no, only English or Spanish",no,2025-07-22_20h41.35.081,empathy_intonation_perc,2024.2.4,Win32,60.60606061,6761134a283b8ace0b1e0345,687ed1b7e638a4cbf2f02089,68802f9cd16cca49356c8927,,,,,,,,,,,,,,0,,./stim/wavs/andalusian_statement_filler_Alberto-nunca-se-afeita.wav,,,,,,,,,195.278,197.6102,0,1,1.811,,0,7,7,5,1,,,,,,,,,,,,,,,,,,,,,,,,,,,,,,,,,,,,,,,,,,,,,,,,,,,,,,,,,,,,,,,,,,,,,,,
,,,,,,,,,6761134a283b8ace0b1e0345,Spanish,13 or older,"no, only English or Spanish",no,2025-07-22_20h41.35.081,empathy_intonation_perc,2024.2.4,Win32,60.60606061,6761134a283b8ace0b1e0345,687ed1b7e638a4cbf2f02089,68802f9cd16cca49356c8927,,,,,,,,,,,,,,,,,,,,,,,,,,,,,,,,,,,,197.6108,198.6605,,,,,,,,,,,,,,,,,,,,,,,,,,,,,,,,,,,,,,,,,,,,,,,,,,,,,,,,,,,,,,,,,,,,,
,,,,,,,,,6761134a283b8ace0b1e0345,Spanish,13 or older,"no, only English or Spanish",no,2025-07-22_20h41.35.081,empathy_intonation_perc,2024.2.4,Win32,60.60606061,6761134a283b8ace0b1e0345,687ed1b7e638a4cbf2f02089,68802f9cd16cca49356c8927,,,,,,,,,,,,,59,0,,./stim/wavs/mexican_match_declarative-broad-focus_David-leia-el-libro.wav,,,,,,,,,,,,,,,,,,,,,,198.6715,200.5276,0,1,1.3408,,0,0,0,58,1,0,mexican,,,,,,,,,,,,,,,,,,,,,,,,,,,,,,,,,,,,,,,,,,,,,,,,,,,,,,,,
,,,,,,,,,6761134a283b8ace0b1e0345,Spanish,13 or older,"no, only English or Spanish",no,2025-07-22_20h41.35.081,empathy_intonation_perc,2024.2.4,Win32,60.60606061,6761134a283b8ace0b1e0345,687ed1b7e638a4cbf2f02089,68802f9cd16cca49356c8927,,,,,,,,,,,,,74,0,,./stim/wavs/cuban_mismatch_declarative-broad-focus_El-bebe-comia-muy-bien.wav,,,,,,,,,,,,,,,,,,,,,,200.5285,202.3766,0,1,1.3204,,0,1,1,73,1,0,cuban,,,,,,,,,,,,,,,,,,,,,,,,,,,,,,,,,,,,,,,,,,,,,,,,,,,,,,,,
,,,,,,,,,6761134a283b8ace0b1e0345,Spanish,13 or older,"no, only English or Spanish",no,2025-07-22_20h41.35.081,empathy_intonation_perc,2024.2.4,Win32,60.60606061,6761134a283b8ace0b1e0345,687ed1b7e638a4cbf2f02089,68802f9cd16cca49356c8927,,,,,,,,,,,,,33,1,,./stim/wavs/cuban_mismatch_interrogative-total-yn_Mi-novio-viene-del-lago.wav,,,,,,,,,,,,,,,,,,,,,,202.3772,204.4266,0,0,1.5226,,0,2,2,32,1,1,cuban,,,,,,,,,,,,,,,,,,,,,,,,,,,,,,,,,,,,,,,,,,,,,,,,,,,,,,,,
,,,,,,,,,6761134a283b8ace0b1e0345,Spanish,13 or older,"no, only English or Spanish",no,2025-07-22_20h41.35.081,empathy_intonation_perc,2024.2.4,Win32,60.60606061,6761134a283b8ace0b1e0345,687ed1b7e638a4cbf2f02089,68802f9cd16cca49356c8927,,,,,,,,,,,,,11,1,,./stim/wavs/cuban_match_interrogative-total-yn_Mariano-habla-del-tiempo.wav,,,,,,,,,,,,,,,,,,,,,,204.4274,206.6095,0,0,1.655,,0,3,3,10,1,1,cuban,,,,,,,,,,,,,,,,,,,,,,,,,,,,,,,,,,,,,,,,,,,,,,,,,,,,,,,,
,,,,,,,,,6761134a283b8ace0b1e0345,Spanish,13 or older,"no, only English or Spanish",no,2025-07-22_20h41.35.081,empathy_intonation_perc,2024.2.4,Win32,60.60606061,6761134a283b8ace0b1e0345,687ed1b7e638a4cbf2f02089,68802f9cd16cca49356c8927,,,,,,,,,,,,,66,0,,./stim/wavs/puertorican_match_declarative-broad-focus_Emilio-ama-la-marcha.wav,,,,,,,,,,,,,,,,,,,,,,206.6101,208.7259,0,1,1.5887,,0,4,4,65,1,0,puertorican,,,,,,,,,,,,,,,,,,,,,,,,,,,,,,,,,,,,,,,,,,,,,,,,,,,,,,,,
,,,,,,,,,6761134a283b8ace0b1e0345,Spanish,13 or older,"no, only English or Spanish",no,2025-07-22_20h41.35.081,empathy_intonation_perc,2024.2.4,Win32,60.60606061,6761134a283b8ace0b1e0345,687ed1b7e638a4cbf2f02089,68802f9cd16cca49356c8927,,,,,,,,,,,,,51,0,,./stim/wavs/cuban_match_declarative-broad-focus_Ana-lleva-el-abrigo.wav,,,,,,,,,,,,,,,,,,,,,,208.7267,210.7764,0,1,1.5167,,0,5,5,50,1,0,cuban,,,,,,,,,,,,,,,,,,,,,,,,,,,,,,,,,,,,,,,,,,,,,,,,,,,,,,,,
,,,,,,,,,6761134a283b8ace0b1e0345,Spanish,13 or older,"no, only English or Spanish",no,2025-07-22_20h41.35.081,empathy_intonation_perc,2024.2.4,Win32,60.60606061,6761134a283b8ace0b1e0345,687ed1b7e638a4cbf2f02089,68802f9cd16cca49356c8927,,,,,,,,,,,,,79,0,,./stim/wavs/mexican_mismatch_declarative-broad-focus_El-bebe-comia-muy-bien.wav,,,,,,,,,,,,,,,,,,,,,,210.7773,213.0929,1,0,1.7866,,0,6,6,78,1,0,mexican,,,,,,,,,,,,,,,,,,,,,,,,,,,,,,,,,,,,,,,,,,,,,,,,,,,,,,,,
,,,,,,,,,6761134a283b8ace0b1e0345,Spanish,13 or older,"no, only English or Spanish",no,2025-07-22_20h41.35.081,empathy_intonation_perc,2024.2.4,Win32,60.60606061,6761134a283b8ace0b1e0345,687ed1b7e638a4cbf2f02089,68802f9cd16cca49356c8927,,,,,,,,,,,,,26,1,,./stim/wavs/castilian_mismatch_interrogative-total-yn_La-nina-lava-el-plato.wav,,,,,,,,,,,,,,,,,,,,,,213.0939,215.1755,1,1,1.555,,0,7,7,25,1,0,castilian,,,,,,,,,,,,,,,,,,,,,,,,,,,,,,,,,,,,,,,,,,,,,,,,,,,,,,,,
,,,,,,,,,6761134a283b8ace0b1e0345,Spanish,13 or older,"no, only English or Spanish",no,2025-07-22_20h41.35.081,empathy_intonation_perc,2024.2.4,Win32,60.60606061,6761134a283b8ace0b1e0345,687ed1b7e638a4cbf2f02089,68802f9cd16cca49356c8927,,,,,,,,,,,,,4,1,,./stim/wavs/castilian_match_interrogative-total-yn_Maria-bebe-el-vino.wav,,,,,,,,,,,,,,,,,,,,,,215.1761,216.9757,1,1,1.2675,,0,8,8,3,1,0,castilian,,,,,,,,,,,,,,,,,,,,,,,,,,,,,,,,,,,,,,,,,,,,,,,,,,,,,,,,
,,,,,,,,,6761134a283b8ace0b1e0345,Spanish,13 or older,"no, only English or Spanish",no,2025-07-22_20h41.35.081,empathy_intonation_perc,2024.2.4,Win32,60.60606061,6761134a283b8ace0b1e0345,687ed1b7e638a4cbf2f02089,68802f9cd16cca49356c8927,,,,,,,,,,,,,64,0,,./stim/wavs/puertorican_match_declarative-broad-focus_Daniel-iba-a-Bolivia.wav,,,,,,,,,,,,,,,,,,,,,,216.9764,218.9085,0,1,1.4021,,0,9,9,63,1,0,puertorican,,,,,,,,,,,,,,,,,,,,,,,,,,,,,,,,,,,,,,,,,,,,,,,,,,,,,,,,
,,,,,,,,,6761134a283b8ace0b1e0345,Spanish,13 or older,"no, only English or Spanish",no,2025-07-22_20h41.35.081,empathy_intonation_perc,2024.2.4,Win32,60.60606061,6761134a283b8ace0b1e0345,687ed1b7e638a4cbf2f02089,68802f9cd16cca49356c8927,,,,,,,,,,,,,80,0,,./stim/wavs/mexican_mismatch_declarative-broad-focus_El-hombre-mira-la-luna.wav,,,,,,,,,,,,,,,,,,,,,,218.9094,220.9416,0,1,1.5085,,0,10,10,79,1,0,mexican,,,,,,,,,,,,,,,,,,,,,,,,,,,,,,,,,,,,,,,,,,,,,,,,,,,,,,,,
,,,,,,,,,6761134a283b8ace0b1e0345,Spanish,13 or older,"no, only English or Spanish",no,2025-07-22_20h41.35.081,empathy_intonation_perc,2024.2.4,Win32,60.60606061,6761134a283b8ace0b1e0345,687ed1b7e638a4cbf2f02089,68802f9cd16cca49356c8927,,,,,,,,,,,,,2,1,,./stim/wavs/castilian_match_interrogative-total-yn_Emilio-ama-la-marcha.wav,,,,,,,,,,,,,,,,,,,,,,220.9423,223.2753,1,1,1.8009,,0,11,11,1,1,0,castilian,,,,,,,,,,,,,,,,,,,,,,,,,,,,,,,,,,,,,,,,,,,,,,,,,,,,,,,,
,,,,,,,,,6761134a283b8ace0b1e0345,Spanish,13 or older,"no, only English or Spanish",no,2025-07-22_20h41.35.081,empathy_intonation_perc,2024.2.4,Win32,60.60606061,6761134a283b8ace0b1e0345,687ed1b7e638a4cbf2f02089,68802f9cd16cca49356c8927,,,,,,,,,,,,,28,1,,./stim/wavs/castilian_mismatch_interrogative-total-yn_Mi-novio-viene-del-lago.wav,,,,,,,,,,,,,,,,,,,,,,223.2761,225.3419,1,1,1.5335,,0,12,12,27,1,0,castilian,,,,,,,,,,,,,,,,,,,,,,,,,,,,,,,,,,,,,,,,,,,,,,,,,,,,,,,,
,,,,,,,,,6761134a283b8ace0b1e0345,Spanish,13 or older,"no, only English or Spanish",no,2025-07-22_20h41.35.081,empathy_intonation_perc,2024.2.4,Win32,60.60606061,6761134a283b8ace0b1e0345,687ed1b7e638a4cbf2f02089,68802f9cd16cca49356c8927,,,,,,,,,,,,,36,1,,./stim/wavs/mexican_mismatch_interrogative-total-yn_El-nino-oye-el-rio.wav,,,,,,,,,,,,,,,,,,,,,,225.3428,227.3748,1,1,1.5106,,0,13,13,35,1,0,mexican,,,,,,,,,,,,,,,,,,,,,,,,,,,,,,,,,,,,,,,,,,,,,,,,,,,,,,,,
,,,,,,,,,6761134a283b8ace0b1e0345,Spanish,13 or older,"no, only English or Spanish",no,2025-07-22_20h41.35.081,empathy_intonation_perc,2024.2.4,Win32,60.60606061,6761134a283b8ace0b1e0345,687ed1b7e638a4cbf2f02089,68802f9cd16cca49356c8927,,,,,,,,,,,,,30,1,,./stim/wavs/cuban_mismatch_interrogative-total-yn_El-hombre-mira-la-luna.wav,,,,,,,,,,,,,,,,,,,,,,227.3756,229.2749,0,0,1.368,,0,14,14,29,1,1,cuban,,,,,,,,,,,,,,,,,,,,,,,,,,,,,,,,,,,,,,,,,,,,,,,,,,,,,,,,
,,,,,,,,,6761134a283b8ace0b1e0345,Spanish,13 or older,"no, only English or Spanish",no,2025-07-22_20h41.35.081,empathy_intonation_perc,2024.2.4,Win32,60.60606061,6761134a283b8ace0b1e0345,687ed1b7e638a4cbf2f02089,68802f9cd16cca49356c8927,,,,,,,,,,,,,3,1,,./stim/wavs/castilian_match_interrogative-total-yn_Manuela-vende-el-carro.wav,,,,,,,,,,,,,,,,,,,,,,229.2756,231.5747,1,1,1.7671,,0,15,15,2,1,0,castilian,,,,,,,,,,,,,,,,,,,,,,,,,,,,,,,,,,,,,,,,,,,,,,,,,,,,,,,,
,,,,,,,,,6761134a283b8ace0b1e0345,Spanish,13 or older,"no, only English or Spanish",no,2025-07-22_20h41.35.081,empathy_intonation_perc,2024.2.4,Win32,60.60606061,6761134a283b8ace0b1e0345,687ed1b7e638a4cbf2f02089,68802f9cd16cca49356c8927,,,,,,,,,,,,,19,1,,./stim/wavs/puertorican_match_interrogative-total-yn_Ana-lleva-el-abrigo.wav,,,,,,,,,,,,,,,,,,,,,,231.5753,233.8408,0,0,1.7347,,0,16,16,18,1,1,puertorican,,,,,,,,,,,,,,,,,,,,,,,,,,,,,,,,,,,,,,,,,,,,,,,,,,,,,,,,
,,,,,,,,,6761134a283b8ace0b1e0345,Spanish,13 or older,"no, only English or Spanish",no,2025-07-22_20h41.35.081,empathy_intonation_perc,2024.2.4,Win32,60.60606061,6761134a283b8ace0b1e0345,687ed1b7e638a4cbf2f02089,68802f9cd16cca49356c8927,,,,,,,,,,,,,15,1,,./stim/wavs/mexican_match_interrogative-total-yn_David-leia-el-libro.wav,,,,,,,,,,,,,,,,,,,,,,233.8415,236.0407,1,1,1.672,,0,17,17,14,1,0,mexican,,,,,,,,,,,,,,,,,,,,,,,,,,,,,,,,,,,,,,,,,,,,,,,,,,,,,,,,
,,,,,,,,,6761134a283b8ace0b1e0345,Spanish,13 or older,"no, only English or Spanish",no,2025-07-22_20h41.35.081,empathy_intonation_perc,2024.2.4,Win32,60.60606061,6761134a283b8ace0b1e0345,687ed1b7e638a4cbf2f02089,68802f9cd16cca49356c8927,,,,,,,,,,,,,7,1,,./stim/wavs/cuban_match_interrogative-total-yn_Ana-lleva-el-abrigo.wav,,,,,,,,,,,,,,,,,,,,,,236.0413,238.074,0,0,1.5058,,0,18,18,6,1,1,cuban,,,,,,,,,,,,,,,,,,,,,,,,,,,,,,,,,,,,,,,,,,,,,,,,,,,,,,,,
,,,,,,,,,6761134a283b8ace0b1e0345,Spanish,13 or older,"no, only English or Spanish",no,2025-07-22_20h41.35.081,empathy_intonation_perc,2024.2.4,Win32,60.60606061,6761134a283b8ace0b1e0345,687ed1b7e638a4cbf2f02089,68802f9cd16cca49356c8927,,,,,,,,,,,,,55,0,,./stim/wavs/cuban_match_declarative-broad-focus_Mariano-habla-del-tiempo.wav,,,,,,,,,,,,,,,,,,,,,,238.0751,240.5403,0,1,1.943,,0,19,19,54,1,0,cuban,,,,,,,,,,,,,,,,,,,,,,,,,,,,,,,,,,,,,,,,,,,,,,,,,,,,,,,,
,,,,,,,,,6761134a283b8ace0b1e0345,Spanish,13 or older,"no, only English or Spanish",no,2025-07-22_20h41.35.081,empathy_intonation_perc,2024.2.4,Win32,60.60606061,6761134a283b8ace0b1e0345,687ed1b7e638a4cbf2f02089,68802f9cd16cca49356c8927,,,,,,,,,,,,,29,1,,./stim/wavs/castilian_mismatch_interrogative-total-yn_Mi-tia-odia-la-lluvia.wav,,,,,,,,,,,,,,,,,,,,,,240.5409,242.7901,1,1,1.7168,,0,20,20,28,1,0,castilian,,,,,,,,,,,,,,,,,,,,,,,,,,,,,,,,,,,,,,,,,,,,,,,,,,,,,,,,
,,,,,,,,,6761134a283b8ace0b1e0345,Spanish,13 or older,"no, only English or Spanish",no,2025-07-22_20h41.35.081,empathy_intonation_perc,2024.2.4,Win32,60.60606061,6761134a283b8ace0b1e0345,687ed1b7e638a4cbf2f02089,68802f9cd16cca49356c8927,,,,,,,,,,,,,65,0,,./stim/wavs/puertorican_match_declarative-broad-focus_David-leia-el-libro.wav,,,,,,,,,,,,,,,,,,,,,,242.7908,244.7899,0,1,1.4776,,0,21,21,64,1,0,puertorican,,,,,,,,,,,,,,,,,,,,,,,,,,,,,,,,,,,,,,,,,,,,,,,,,,,,,,,,
,,,,,,,,,6761134a283b8ace0b1e0345,Spanish,13 or older,"no, only English or Spanish",no,2025-07-22_20h41.35.081,empathy_intonation_perc,2024.2.4,Win32,60.60606061,6761134a283b8ace0b1e0345,687ed1b7e638a4cbf2f02089,68802f9cd16cca49356c8927,,,,,,,,,,,,,14,1,,./stim/wavs/mexican_match_interrogative-total-yn_Daniel-iba-a-Bolivia.wav,,,,,,,,,,,,,,,,,,,,,,244.7905,246.9234,1,1,1.6005,,0,22,22,13,1,0,mexican,,,,,,,,,,,,,,,,,,,,,,,,,,,,,,,,,,,,,,,,,,,,,,,,,,,,,,,,
,,,,,,,,,6761134a283b8ace0b1e0345,Spanish,13 or older,"no, only English or Spanish",no,2025-07-22_20h41.35.081,empathy_intonation_perc,2024.2.4,Win32,60.60606061,6761134a283b8ace0b1e0345,687ed1b7e638a4cbf2f02089,68802f9cd16cca49356c8927,,,,,,,,,,,,,40,1,,./stim/wavs/puertorican_mismatch_interrogative-total-yn_El-hombre-mira-la-luna.wav,,,,,,,,,,,,,,,,,,,,,,246.9241,249.4398,0,0,1.9883,,0,23,23,39,1,1,puertorican,,,,,,,,,,,,,,,,,,,,,,,,,,,,,,,,,,,,,,,,,,,,,,,,,,,,,,,,
,,,,,,,,,6761134a283b8ace0b1e0345,Spanish,13 or older,"no, only English or Spanish",no,2025-07-22_20h41.35.081,empathy_intonation_perc,2024.2.4,Win32,60.60606061,6761134a283b8ace0b1e0345,687ed1b7e638a4cbf2f02089,68802f9cd16cca49356c8927,,,,,,,,,,,,,52,0,,./stim/wavs/cuban_match_declarative-broad-focus_Daniel-iba-a-Bolivia.wav,,,,,,,,,,,,,,,,,,,,,,249.4403,251.6898,0,1,1.7247,,0,24,24,51,1,0,cuban,,,,,,,,,,,,,,,,,,,,,,,,,,,,,,,,,,,,,,,,,,,,,,,,,,,,,,,,
,,,,,,,,,6761134a283b8ace0b1e0345,Spanish,13 or older,"no, only English or Spanish",no,2025-07-22_20h41.35.081,empathy_intonation_perc,2024.2.4,Win32,60.60606061,6761134a283b8ace0b1e0345,687ed1b7e638a4cbf2f02089,68802f9cd16cca49356c8927,,,,,,,,,,,,,18,1,,./stim/wavs/mexican_match_interrogative-total-yn_Marta-abre-el-regalo.wav,,,,,,,,,,,,,,,,,,,,,,251.6905,254.5892,1,1,2.3679,,0,25,25,17,1,0,mexican,,,,,,,,,,,,,,,,,,,,,,,,,,,,,,,,,,,,,,,,,,,,,,,,,,,,,,,,
,,,,,,,,,6761134a283b8ace0b1e0345,Spanish,13 or older,"no, only English or Spanish",no,2025-07-22_20h41.35.081,empathy_intonation_perc,2024.2.4,Win32,60.60606061,6761134a283b8ace0b1e0345,687ed1b7e638a4cbf2f02089,68802f9cd16cca49356c8927,,,,,,,,,,,,,1,1,,./stim/wavs/castilian_match_interrogative-total-yn_David-leia-el-libro.wav,,,,,,,,,,,,,,,,,,,,,,254.5902,256.6394,1,1,1.5226,,0,26,26,0,1,0,castilian,,,,,,,,,,,,,,,,,,,,,,,,,,,,,,,,,,,,,,,,,,,,,,,,,,,,,,,,
,,,,,,,,,6761134a283b8ace0b1e0345,Spanish,13 or older,"no, only English or Spanish",no,2025-07-22_20h41.35.081,empathy_intonation_perc,2024.2.4,Win32,60.60606061,6761134a283b8ace0b1e0345,687ed1b7e638a4cbf2f02089,68802f9cd16cca49356c8927,,,,,,,,,,,,,73,0,,./stim/wavs/castilian_mismatch_declarative-broad-focus_Mi-tia-odia-la-lluvia.wav,,,,,,,,,,,,,,,,,,,,,,256.6401,258.8892,0,1,1.7194,,0,27,27,72,1,0,castilian,,,,,,,,,,,,,,,,,,,,,,,,,,,,,,,,,,,,,,,,,,,,,,,,,,,,,,,,
,,,,,,,,,6761134a283b8ace0b1e0345,Spanish,13 or older,"no, only English or Spanish",no,2025-07-22_20h41.35.081,empathy_intonation_perc,2024.2.4,Win32,60.60606061,6761134a283b8ace0b1e0345,687ed1b7e638a4cbf2f02089,68802f9cd16cca49356c8927,,,,,,,,,,,,,25,1,,./stim/wavs/castilian_mismatch_interrogative-total-yn_La-maestra-vive-en-Paris.wav,,,,,,,,,,,,,,,,,,,,,,258.8898,261.306,1,1,1.8836,,0,28,28,24,1,0,castilian,,,,,,,,,,,,,,,,,,,,,,,,,,,,,,,,,,,,,,,,,,,,,,,,,,,,,,,,
,,,,,,,,,6761134a283b8ace0b1e0345,Spanish,13 or older,"no, only English or Spanish",no,2025-07-22_20h41.35.081,empathy_intonation_perc,2024.2.4,Win32,60.60606061,6761134a283b8ace0b1e0345,687ed1b7e638a4cbf2f02089,68802f9cd16cca49356c8927,,,,,,,,,,,,,8,1,,./stim/wavs/cuban_match_interrogative-total-yn_Daniel-iba-a-Bolivia.wav,,,,,,,,,,,,,,,,,,,,,,261.3072,263.4886,0,0,1.6566,,0,29,29,7,1,1,cuban,,,,,,,,,,,,,,,,,,,,,,,,,,,,,,,,,,,,,,,,,,,,,,,,,,,,,,,,
,,,,,,,,,6761134a283b8ace0b1e0345,Spanish,13 or older,"no, only English or Spanish",no,2025-07-22_20h41.35.081,empathy_intonation_perc,2024.2.4,Win32,60.60606061,6761134a283b8ace0b1e0345,687ed1b7e638a4cbf2f02089,68802f9cd16cca49356c8927,,,,,,,,,,,,,16,1,,./stim/wavs/mexican_match_interrogative-total-yn_Emilio-ama-la-marcha.wav,,,,,,,,,,,,,,,,,,,,,,263.4892,264.9885,0,0,0.967,,0,30,30,15,1,0,mexican,,,,,,,,,,,,,,,,,,,,,,,,,,,,,,,,,,,,,,,,,,,,,,,,,,,,,,,,
,,,,,,,,,6761134a283b8ace0b1e0345,Spanish,13 or older,"no, only English or Spanish",no,2025-07-22_20h41.35.081,empathy_intonation_perc,2024.2.4,Win32,60.60606061,6761134a283b8ace0b1e0345,687ed1b7e638a4cbf2f02089,68802f9cd16cca49356c8927,,,,,,,,,,,,,48,0,,./stim/wavs/castilian_match_declarative-broad-focus_Maria-bebe-el-vino.wav,,,,,,,,,,,,,,,,,,,,,,264.9892,266.9549,1,0,1.4425,,0,31,31,47,1,0,castilian,,,,,,,,,,,,,,,,,,,,,,,,,,,,,,,,,,,,,,,,,,,,,,,,,,,,,,,,
,,,,,,,,,6761134a283b8ace0b1e0345,Spanish,13 or older,"no, only English or Spanish",no,2025-07-22_20h41.35.081,empathy_intonation_perc,2024.2.4,Win32,60.60606061,6761134a283b8ace0b1e0345,687ed1b7e638a4cbf2f02089,68802f9cd16cca49356c8927,,,,,,,,,,,,,24,1,,./stim/wavs/puertorican_match_interrogative-total-yn_Maria-bebe-el-vino.wav,,,,,,,,,,,,,,,,,,,,,,266.9558,268.955,0,0,1.4668,,0,32,32,23,1,1,puertorican,,,,,,,,,,,,,,,,,,,,,,,,,,,,,,,,,,,,,,,,,,,,,,,,,,,,,,,,
,,,,,,,,,6761134a283b8ace0b1e0345,Spanish,13 or older,"no, only English or Spanish",no,2025-07-22_20h41.35.081,empathy_intonation_perc,2024.2.4,Win32,60.60606061,6761134a283b8ace0b1e0345,687ed1b7e638a4cbf2f02089,68802f9cd16cca49356c8927,,,,,,,,,,,,,86,0,,./stim/wavs/puertorican_mismatch_declarative-broad-focus_El-nino-oye-el-rio.wav,,,,,,,,,,,,,,,,,,,,,,268.9556,270.9551,0,1,1.4681,,0,33,33,85,1,0,puertorican,,,,,,,,,,,,,,,,,,,,,,,,,,,,,,,,,,,,,,,,,,,,,,,,,,,,,,,,
,,,,,,,,,6761134a283b8ace0b1e0345,Spanish,13 or older,"no, only English or Spanish",no,2025-07-22_20h41.35.081,empathy_intonation_perc,2024.2.4,Win32,60.60606061,6761134a283b8ace0b1e0345,687ed1b7e638a4cbf2f02089,68802f9cd16cca49356c8927,,,,,,,,,,,,,46,0,,./stim/wavs/castilian_match_declarative-broad-focus_Emilio-ama-la-marcha.wav,,,,,,,,,,,,,,,,,,,,,,270.956,273.7212,0,1,2.2427,,0,34,34,45,1,0,castilian,,,,,,,,,,,,,,,,,,,,,,,,,,,,,,,,,,,,,,,,,,,,,,,,,,,,,,,,
,,,,,,,,,6761134a283b8ace0b1e0345,Spanish,13 or older,"no, only English or Spanish",no,2025-07-22_20h41.35.081,empathy_intonation_perc,2024.2.4,Win32,60.60606061,6761134a283b8ace0b1e0345,687ed1b7e638a4cbf2f02089,68802f9cd16cca49356c8927,,,,,,,,,,,,,45,0,,./stim/wavs/castilian_match_declarative-broad-focus_David-leia-el-libro.wav,,,,,,,,,,,,,,,,,,,,,,273.722,276.0378,0,1,1.7866,,0,35,35,44,1,0,castilian,,,,,,,,,,,,,,,,,,,,,,,,,,,,,,,,,,,,,,,,,,,,,,,,,,,,,,,,
,,,,,,,,,6761134a283b8ace0b1e0345,Spanish,13 or older,"no, only English or Spanish",no,2025-07-22_20h41.35.081,empathy_intonation_perc,2024.2.4,Win32,60.60606061,6761134a283b8ace0b1e0345,687ed1b7e638a4cbf2f02089,68802f9cd16cca49356c8927,,,,,,,,,,,,,21,1,,./stim/wavs/puertorican_match_interrogative-total-yn_David-leia-el-libro.wav,,,,,,,,,,,,,,,,,,,,,,276.0385,278.2545,0,0,1.6993,,0,36,36,20,1,1,puertorican,,,,,,,,,,,,,,,,,,,,,,,,,,,,,,,,,,,,,,,,,,,,,,,,,,,,,,,,
,,,,,,,,,6761134a283b8ace0b1e0345,Spanish,13 or older,"no, only English or Spanish",no,2025-07-22_20h41.35.081,empathy_intonation_perc,2024.2.4,Win32,60.60606061,6761134a283b8ace0b1e0345,687ed1b7e638a4cbf2f02089,68802f9cd16cca49356c8927,,,,,,,,,,,,,13,1,,./stim/wavs/mexican_match_interrogative-total-yn_Ana-lleva-el-abrigo.wav,,,,,,,,,,,,,,,,,,,,,,278.2557,280.2875,1,1,1.5026,,0,37,37,12,1,0,mexican,,,,,,,,,,,,,,,,,,,,,,,,,,,,,,,,,,,,,,,,,,,,,,,,,,,,,,,,
,,,,,,,,,6761134a283b8ace0b1e0345,Spanish,13 or older,"no, only English or Spanish",no,2025-07-22_20h41.35.081,empathy_intonation_perc,2024.2.4,Win32,60.60606061,6761134a283b8ace0b1e0345,687ed1b7e638a4cbf2f02089,68802f9cd16cca49356c8927,,,,,,,,,,,,,57,0,,./stim/wavs/mexican_match_declarative-broad-focus_Ana-lleva-el-abrigo.wav,,,,,,,,,,,,,,,,,,,,,,280.2881,282.2707,0,1,1.4503,,0,38,38,56,1,0,mexican,,,,,,,,,,,,,,,,,,,,,,,,,,,,,,,,,,,,,,,,,,,,,,,,,,,,,,,,
,,,,,,,,,6761134a283b8ace0b1e0345,Spanish,13 or older,"no, only English or Spanish",no,2025-07-22_20h41.35.081,empathy_intonation_perc,2024.2.4,Win32,60.60606061,6761134a283b8ace0b1e0345,687ed1b7e638a4cbf2f02089,68802f9cd16cca49356c8927,,,,,,,,,,,,,9,1,,./stim/wavs/cuban_match_interrogative-total-yn_Manuela-vende-el-carro.wav,,,,,,,,,,,,,,,,,,,,,,282.2715,284.2043,0,0,1.412,,0,39,39,8,1,1,cuban,,,,,,,,,,,,,,,,,,,,,,,,,,,,,,,,,,,,,,,,,,,,,,,,,,,,,,,,
,,,,,,,,,6761134a283b8ace0b1e0345,Spanish,13 or older,"no, only English or Spanish",no,2025-07-22_20h41.35.081,empathy_intonation_perc,2024.2.4,Win32,60.60606061,6761134a283b8ace0b1e0345,687ed1b7e638a4cbf2f02089,68802f9cd16cca49356c8927,,,,,,,,,,,,,23,1,,./stim/wavs/puertorican_match_interrogative-total-yn_Manuela-vende-el-carro.wav,,,,,,,,,,,,,,,,,,,,,,284.2049,286.4205,0,0,1.6838,,0,40,40,22,1,1,puertorican,,,,,,,,,,,,,,,,,,,,,,,,,,,,,,,,,,,,,,,,,,,,,,,,,,,,,,,,
,,,,,,,,,6761134a283b8ace0b1e0345,Spanish,13 or older,"no, only English or Spanish",no,2025-07-22_20h41.35.081,empathy_intonation_perc,2024.2.4,Win32,60.60606061,6761134a283b8ace0b1e0345,687ed1b7e638a4cbf2f02089,68802f9cd16cca49356c8927,,,,,,,,,,,,,38,1,,./stim/wavs/mexican_mismatch_interrogative-total-yn_Mi-novio-viene-del-lago.wav,,,,,,,,,,,,,,,,,,,,,,286.4216,288.6035,1,1,1.6564,,0,41,41,37,1,0,mexican,,,,,,,,,,,,,,,,,,,,,,,,,,,,,,,,,,,,,,,,,,,,,,,,,,,,,,,,
,,,,,,,,,6761134a283b8ace0b1e0345,Spanish,13 or older,"no, only English or Spanish",no,2025-07-22_20h41.35.081,empathy_intonation_perc,2024.2.4,Win32,60.60606061,6761134a283b8ace0b1e0345,687ed1b7e638a4cbf2f02089,68802f9cd16cca49356c8927,,,,,,,,,,,,,81,0,,./stim/wavs/mexican_mismatch_declarative-broad-focus_La-maestra-vive-en-Paris.wav,,,,,,,,,,,,,,,,,,,,,,288.6041,291.1865,0,1,2.0528,,0,42,42,80,1,0,mexican,,,,,,,,,,,,,,,,,,,,,,,,,,,,,,,,,,,,,,,,,,,,,,,,,,,,,,,,
,,,,,,,,,6761134a283b8ace0b1e0345,Spanish,13 or older,"no, only English or Spanish",no,2025-07-22_20h41.35.081,empathy_intonation_perc,2024.2.4,Win32,60.60606061,6761134a283b8ace0b1e0345,687ed1b7e638a4cbf2f02089,68802f9cd16cca49356c8927,,,,,,,,,,,,,82,0,,./stim/wavs/mexican_mismatch_declarative-broad-focus_Mi-novio-viene-del-lago.wav,,,,,,,,,,,,,,,,,,,,,,291.1873,293.1368,0,1,1.4177,,0,43,43,81,1,0,mexican,,,,,,,,,,,,,,,,,,,,,,,,,,,,,,,,,,,,,,,,,,,,,,,,,,,,,,,,
,,,,,,,,,6761134a283b8ace0b1e0345,Spanish,13 or older,"no, only English or Spanish",no,2025-07-22_20h41.35.081,empathy_intonation_perc,2024.2.4,Win32,60.60606061,6761134a283b8ace0b1e0345,687ed1b7e638a4cbf2f02089,68802f9cd16cca49356c8927,,,,,,,,,,,,,35,1,,./stim/wavs/mexican_mismatch_interrogative-total-yn_El-hombre-mira-la-luna.wav,,,,,,,,,,,,,,,,,,,,,,293.1378,295.303,0,0,1.6442,,0,44,44,34,1,0,mexican,,,,,,,,,,,,,,,,,,,,,,,,,,,,,,,,,,,,,,,,,,,,,,,,,,,,,,,,
,,,,,,,,,6761134a283b8ace0b1e0345,Spanish,13 or older,"no, only English or Spanish",no,2025-07-22_20h41.35.081,empathy_intonation_perc,2024.2.4,Win32,60.60606061,6761134a283b8ace0b1e0345,687ed1b7e638a4cbf2f02089,68802f9cd16cca49356c8927,,,,,,,,,,,,,54,0,,./stim/wavs/cuban_match_declarative-broad-focus_Maria-bebe-el-vino.wav,,,,,,,,,,,,,,,,,,,,,,295.3036,297.5698,0,1,1.7357,,0,45,45,53,1,0,cuban,,,,,,,,,,,,,,,,,,,,,,,,,,,,,,,,,,,,,,,,,,,,,,,,,,,,,,,,
,,,,,,,,,6761134a283b8ace0b1e0345,Spanish,13 or older,"no, only English or Spanish",no,2025-07-22_20h41.35.081,empathy_intonation_perc,2024.2.4,Win32,60.60606061,6761134a283b8ace0b1e0345,687ed1b7e638a4cbf2f02089,68802f9cd16cca49356c8927,,,,,,,,,,,,,62,0,,./stim/wavs/mexican_match_declarative-broad-focus_Marta-abre-el-regalo.wav,,,,,,,,,,,,,,,,,,,,,,297.5708,299.536,0,1,1.4434,,0,46,46,61,1,0,mexican,,,,,,,,,,,,,,,,,,,,,,,,,,,,,,,,,,,,,,,,,,,,,,,,,,,,,,,,
,,,,,,,,,6761134a283b8ace0b1e0345,Spanish,13 or older,"no, only English or Spanish",no,2025-07-22_20h41.35.081,empathy_intonation_perc,2024.2.4,Win32,60.60606061,6761134a283b8ace0b1e0345,687ed1b7e638a4cbf2f02089,68802f9cd16cca49356c8927,,,,,,,,,,,,,20,1,,./stim/wavs/puertorican_match_interrogative-total-yn_Daniel-iba-a-Bolivia.wav,,,,,,,,,,,,,,,,,,,,,,299.5367,301.5359,0,0,1.4664,,0,47,47,19,1,1,puertorican,,,,,,,,,,,,,,,,,,,,,,,,,,,,,,,,,,,,,,,,,,,,,,,,,,,,,,,,
,,,,,,,,,6761134a283b8ace0b1e0345,Spanish,13 or older,"no, only English or Spanish",no,2025-07-22_20h41.35.081,empathy_intonation_perc,2024.2.4,Win32,60.60606061,6761134a283b8ace0b1e0345,687ed1b7e638a4cbf2f02089,68802f9cd16cca49356c8927,,,,,,,,,,,,,77,0,,./stim/wavs/cuban_mismatch_declarative-broad-focus_Mi-novio-viene-del-lago.wav,,,,,,,,,,,,,,,,,,,,,,301.5366,303.6857,0,1,1.6265,,0,48,48,76,1,0,cuban,,,,,,,,,,,,,,,,,,,,,,,,,,,,,,,,,,,,,,,,,,,,,,,,,,,,,,,,
,,,,,,,,,6761134a283b8ace0b1e0345,Spanish,13 or older,"no, only English or Spanish",no,2025-07-22_20h41.35.081,empathy_intonation_perc,2024.2.4,Win32,60.60606061,6761134a283b8ace0b1e0345,687ed1b7e638a4cbf2f02089,68802f9cd16cca49356c8927,,,,,,,,,,,,,58,0,,./stim/wavs/mexican_match_declarative-broad-focus_Daniel-iba-a-Bolivia.wav,,,,,,,,,,,,,,,,,,,,,,303.6863,305.7191,0,1,1.5053,,0,49,49,57,1,0,mexican,,,,,,,,,,,,,,,,,,,,,,,,,,,,,,,,,,,,,,,,,,,,,,,,,,,,,,,,
,,,,,,,,,6761134a283b8ace0b1e0345,Spanish,13 or older,"no, only English or Spanish",no,2025-07-22_20h41.35.081,empathy_intonation_perc,2024.2.4,Win32,60.60606061,6761134a283b8ace0b1e0345,687ed1b7e638a4cbf2f02089,68802f9cd16cca49356c8927,,,,,,,,,,,,,50,0,,./stim/wavs/castilian_match_declarative-broad-focus_Marta-abre-el-regalo.wav,,,,,,,,,,,,,,,,,,,,,,305.7199,308.0355,0,1,1.7943,,0,50,50,49,1,0,castilian,,,,,,,,,,,,,,,,,,,,,,,,,,,,,,,,,,,,,,,,,,,,,,,,,,,,,,,,
,,,,,,,,,6761134a283b8ace0b1e0345,Spanish,13 or older,"no, only English or Spanish",no,2025-07-22_20h41.35.081,empathy_intonation_perc,2024.2.4,Win32,60.60606061,6761134a283b8ace0b1e0345,687ed1b7e638a4cbf2f02089,68802f9cd16cca49356c8927,,,,,,,,,,,,,60,0,,./stim/wavs/mexican_match_declarative-broad-focus_Emilio-ama-la-marcha.wav,,,,,,,,,,,,,,,,,,,,,,308.036,310.2025,0,1,1.638,,0,51,51,59,1,0,mexican,,,,,,,,,,,,,,,,,,,,,,,,,,,,,,,,,,,,,,,,,,,,,,,,,,,,,,,,
,,,,,,,,,6761134a283b8ace0b1e0345,Spanish,13 or older,"no, only English or Spanish",no,2025-07-22_20h41.35.081,empathy_intonation_perc,2024.2.4,Win32,60.60606061,6761134a283b8ace0b1e0345,687ed1b7e638a4cbf2f02089,68802f9cd16cca49356c8927,,,,,,,,,,,,,71,0,,./stim/wavs/castilian_mismatch_declarative-broad-focus_La-nina-lava-el-plato.wav,,,,,,,,,,,,,,,,,,,,,,310.2033,312.5853,0,1,1.8534,,0,52,52,70,1,0,castilian,,,,,,,,,,,,,,,,,,,,,,,,,,,,,,,,,,,,,,,,,,,,,,,,,,,,,,,,
,,,,,,,,,6761134a283b8ace0b1e0345,Spanish,13 or older,"no, only English or Spanish",no,2025-07-22_20h41.35.081,empathy_intonation_perc,2024.2.4,Win32,60.60606061,6761134a283b8ace0b1e0345,687ed1b7e638a4cbf2f02089,68802f9cd16cca49356c8927,,,,,,,,,,,,,22,1,,./stim/wavs/puertorican_match_interrogative-total-yn_Emilio-ama-la-marcha.wav,,,,,,,,,,,,,,,,,,,,,,312.5861,314.5683,0,0,1.4499,,0,53,53,21,1,1,puertorican,,,,,,,,,,,,,,,,,,,,,,,,,,,,,,,,,,,,,,,,,,,,,,,,,,,,,,,,
,,,,,,,,,6761134a283b8ace0b1e0345,Spanish,13 or older,"no, only English or Spanish",no,2025-07-22_20h41.35.081,empathy_intonation_perc,2024.2.4,Win32,60.60606061,6761134a283b8ace0b1e0345,687ed1b7e638a4cbf2f02089,68802f9cd16cca49356c8927,,,,,,,,,,,,,61,0,,./stim/wavs/mexican_match_declarative-broad-focus_Mariano-habla-del-tiempo.wav,,,,,,,,,,,,,,,,,,,,,,314.5689,316.6016,0,1,1.5091,,0,54,54,60,1,0,mexican,,,,,,,,,,,,,,,,,,,,,,,,,,,,,,,,,,,,,,,,,,,,,,,,,,,,,,,,
,,,,,,,,,6761134a283b8ace0b1e0345,Spanish,13 or older,"no, only English or Spanish",no,2025-07-22_20h41.35.081,empathy_intonation_perc,2024.2.4,Win32,60.60606061,6761134a283b8ace0b1e0345,687ed1b7e638a4cbf2f02089,68802f9cd16cca49356c8927,,,,,,,,,,,,,32,1,,./stim/wavs/cuban_mismatch_interrogative-total-yn_Mi-madre-come-la-fruta.wav,,,,,,,,,,,,,,,,,,,,,,316.6022,319.2179,0,0,2.0887,,0,55,55,31,1,1,cuban,,,,,,,,,,,,,,,,,,,,,,,,,,,,,,,,,,,,,,,,,,,,,,,,,,,,,,,,
,,,,,,,,,6761134a283b8ace0b1e0345,Spanish,13 or older,"no, only English or Spanish",no,2025-07-22_20h41.35.081,empathy_intonation_perc,2024.2.4,Win32,60.60606061,6761134a283b8ace0b1e0345,687ed1b7e638a4cbf2f02089,68802f9cd16cca49356c8927,,,,,,,,,,,,,47,0,,./stim/wavs/castilian_match_declarative-broad-focus_Manuela-vende-el-carro.wav,,,,,,,,,,,,,,,,,,,,,,319.2185,321.4844,0,1,1.7361,,0,56,56,46,1,0,castilian,,,,,,,,,,,,,,,,,,,,,,,,,,,,,,,,,,,,,,,,,,,,,,,,,,,,,,,,
,,,,,,,,,6761134a283b8ace0b1e0345,Spanish,13 or older,"no, only English or Spanish",no,2025-07-22_20h41.35.081,empathy_intonation_perc,2024.2.4,Win32,60.60606061,6761134a283b8ace0b1e0345,687ed1b7e638a4cbf2f02089,68802f9cd16cca49356c8927,,,,,,,,,,,,,49,0,,./stim/wavs/castilian_match_declarative-broad-focus_Mariano-habla-del-tiempo.wav,,,,,,,,,,,,,,,,,,,,,,321.4853,323.6843,0,1,1.6668,,0,57,57,48,1,0,castilian,,,,,,,,,,,,,,,,,,,,,,,,,,,,,,,,,,,,,,,,,,,,,,,,,,,,,,,,
,,,,,,,,,6761134a283b8ace0b1e0345,Spanish,13 or older,"no, only English or Spanish",no,2025-07-22_20h41.35.081,empathy_intonation_perc,2024.2.4,Win32,60.60606061,6761134a283b8ace0b1e0345,687ed1b7e638a4cbf2f02089,68802f9cd16cca49356c8927,,,,,,,,,,,,,69,0,,./stim/wavs/castilian_mismatch_declarative-broad-focus_El-nino-oye-el-rio.wav,,,,,,,,,,,,,,,,,,,,,,323.685,325.8677,0,1,1.6499,,0,58,58,68,1,0,castilian,,,,,,,,,,,,,,,,,,,,,,,,,,,,,,,,,,,,,,,,,,,,,,,,,,,,,,,,
,,,,,,,,,6761134a283b8ace0b1e0345,Spanish,13 or older,"no, only English or Spanish",no,2025-07-22_20h41.35.081,empathy_intonation_perc,2024.2.4,Win32,60.60606061,6761134a283b8ace0b1e0345,687ed1b7e638a4cbf2f02089,68802f9cd16cca49356c8927,,,,,,,,,,,,,39,1,,./stim/wavs/mexican_mismatch_interrogative-total-yn_Mi-tia-odia-la-lluvia.wav,,,,,,,,,,,,,,,,,,,,,,325.8687,327.9177,1,1,1.5283,,0,59,59,38,1,0,mexican,,,,,,,,,,,,,,,,,,,,,,,,,,,,,,,,,,,,,,,,,,,,,,,,,,,,,,,,
,,,,,,,,,6761134a283b8ace0b1e0345,Spanish,13 or older,"no, only English or Spanish",no,2025-07-22_20h41.35.081,empathy_intonation_perc,2024.2.4,Win32,60.60606061,6761134a283b8ace0b1e0345,687ed1b7e638a4cbf2f02089,68802f9cd16cca49356c8927,,,,,,,,,,,,,78,0,,./stim/wavs/cuban_mismatch_declarative-broad-focus_Mi-tia-odia-la-lluvia.wav,,,,,,,,,,,,,,,,,,,,,,327.9183,329.9841,0,1,1.5342,,0,60,60,77,1,0,cuban,,,,,,,,,,,,,,,,,,,,,,,,,,,,,,,,,,,,,,,,,,,,,,,,,,,,,,,,
,,,,,,,,,6761134a283b8ace0b1e0345,Spanish,13 or older,"no, only English or Spanish",no,2025-07-22_20h41.35.081,empathy_intonation_perc,2024.2.4,Win32,60.60606061,6761134a283b8ace0b1e0345,687ed1b7e638a4cbf2f02089,68802f9cd16cca49356c8927,,,,,,,,,,,,,68,0,,./stim/wavs/puertorican_match_declarative-broad-focus_Maria-bebe-el-vino.wav,,,,,,,,,,,,,,,,,,,,,,329.985,332.0669,0,1,1.5602,,0,61,61,67,1,0,puertorican,,,,,,,,,,,,,,,,,,,,,,,,,,,,,,,,,,,,,,,,,,,,,,,,,,,,,,,,
,,,,,,,,,6761134a283b8ace0b1e0345,Spanish,13 or older,"no, only English or Spanish",no,2025-07-22_20h41.35.081,empathy_intonation_perc,2024.2.4,Win32,60.60606061,6761134a283b8ace0b1e0345,687ed1b7e638a4cbf2f02089,68802f9cd16cca49356c8927,,,,,,,,,,,,,6,1,,./stim/wavs/castilian_match_interrogative-total-yn_Marta-abre-el-regalo.wav,,,,,,,,,,,,,,,,,,,,,,332.0675,334.234,1,1,1.6333,,0,62,62,5,1,0,castilian,,,,,,,,,,,,,,,,,,,,,,,,,,,,,,,,,,,,,,,,,,,,,,,,,,,,,,,,
,,,,,,,,,6761134a283b8ace0b1e0345,Spanish,13 or older,"no, only English or Spanish",no,2025-07-22_20h41.35.081,empathy_intonation_perc,2024.2.4,Win32,60.60606061,6761134a283b8ace0b1e0345,687ed1b7e638a4cbf2f02089,68802f9cd16cca49356c8927,,,,,,,,,,,,,17,1,,./stim/wavs/mexican_match_interrogative-total-yn_Mariano-habla-del-tiempo.wav,,,,,,,,,,,,,,,,,,,,,,334.235,336.4,1,1,1.6412,,0,63,63,16,1,0,mexican,,,,,,,,,,,,,,,,,,,,,,,,,,,,,,,,,,,,,,,,,,,,,,,,,,,,,,,,
,,,,,,,,,6761134a283b8ace0b1e0345,Spanish,13 or older,"no, only English or Spanish",no,2025-07-22_20h41.35.081,empathy_intonation_perc,2024.2.4,Win32,60.60606061,6761134a283b8ace0b1e0345,687ed1b7e638a4cbf2f02089,68802f9cd16cca49356c8927,,,,,,,,,,,,,31,1,,./stim/wavs/cuban_mismatch_interrogative-total-yn_El-nino-oye-el-rio.wav,,,,,,,,,,,,,,,,,,,,,,336.4006,338.2166,0,0,1.2865,,0,64,64,30,1,1,cuban,,,,,,,,,,,,,,,,,,,,,,,,,,,,,,,,,,,,,,,,,,,,,,,,,,,,,,,,
,,,,,,,,,6761134a283b8ace0b1e0345,Spanish,13 or older,"no, only English or Spanish",no,2025-07-22_20h41.35.081,empathy_intonation_perc,2024.2.4,Win32,60.60606061,6761134a283b8ace0b1e0345,687ed1b7e638a4cbf2f02089,68802f9cd16cca49356c8927,,,,,,,,,,,,,27,1,,./stim/wavs/castilian_mismatch_interrogative-total-yn_Mi-madre-come-la-fruta.wav,,,,,,,,,,,,,,,,,,,,,,338.2172,340.2841,1,1,1.5456,,0,65,65,26,1,0,castilian,,,,,,,,,,,,,,,,,,,,,,,,,,,,,,,,,,,,,,,,,,,,,,,,,,,,,,,,
,,,,,,,,,6761134a283b8ace0b1e0345,Spanish,13 or older,"no, only English or Spanish",no,2025-07-22_20h41.35.081,empathy_intonation_perc,2024.2.4,Win32,60.60606061,6761134a283b8ace0b1e0345,687ed1b7e638a4cbf2f02089,68802f9cd16cca49356c8927,,,,,,,,,,,,,76,0,,./stim/wavs/cuban_mismatch_declarative-broad-focus_La-nina-lava-el-plato.wav,,,,,,,,,,,,,,,,,,,,,,340.2848,342.4327,0,1,1.6258,,0,66,66,75,1,0,cuban,,,,,,,,,,,,,,,,,,,,,,,,,,,,,,,,,,,,,,,,,,,,,,,,,,,,,,,,
,,,,,,,,,6761134a283b8ace0b1e0345,Spanish,13 or older,"no, only English or Spanish",no,2025-07-22_20h41.35.081,empathy_intonation_perc,2024.2.4,Win32,60.60606061,6761134a283b8ace0b1e0345,687ed1b7e638a4cbf2f02089,68802f9cd16cca49356c8927,,,,,,,,,,,,,53,0,,./stim/wavs/cuban_match_declarative-broad-focus_Manuela-vende-el-carro.wav,,,,,,,,,,,,,,,,,,,,,,342.4334,344.616,0,1,1.6504,,0,67,67,52,1,0,cuban,,,,,,,,,,,,,,,,,,,,,,,,,,,,,,,,,,,,,,,,,,,,,,,,,,,,,,,,
,,,,,,,,,6761134a283b8ace0b1e0345,Spanish,13 or older,"no, only English or Spanish",no,2025-07-22_20h41.35.081,empathy_intonation_perc,2024.2.4,Win32,60.60606061,6761134a283b8ace0b1e0345,687ed1b7e638a4cbf2f02089,68802f9cd16cca49356c8927,,,,,,,,,,,,,84,0,,./stim/wavs/puertorican_mismatch_declarative-broad-focus_El-bebe-comia-muy-bien.wav,,,,,,,,,,,,,,,,,,,,,,344.6167,346.6829,0,1,1.5376,,0,68,68,83,1,0,puertorican,,,,,,,,,,,,,,,,,,,,,,,,,,,,,,,,,,,,,,,,,,,,,,,,,,,,,,,,
,,,,,,,,,6761134a283b8ace0b1e0345,Spanish,13 or older,"no, only English or Spanish",no,2025-07-22_20h41.35.081,empathy_intonation_perc,2024.2.4,Win32,60.60606061,6761134a283b8ace0b1e0345,687ed1b7e638a4cbf2f02089,68802f9cd16cca49356c8927,,,,,,,,,,,,,63,0,,./stim/wavs/puertorican_match_declarative-broad-focus_Ana-lleva-el-abrigo.wav,,,,,,,,,,,,,,,,,,,,,,346.6836,348.5658,0,1,1.3563,,0,69,69,62,1,0,puertorican,,,,,,,,,,,,,,,,,,,,,,,,,,,,,,,,,,,,,,,,,,,,,,,,,,,,,,,,
,,,,,,,,,6761134a283b8ace0b1e0345,Spanish,13 or older,"no, only English or Spanish",no,2025-07-22_20h41.35.081,empathy_intonation_perc,2024.2.4,Win32,60.60606061,6761134a283b8ace0b1e0345,687ed1b7e638a4cbf2f02089,68802f9cd16cca49356c8927,,,,,,,,,,,,,5,1,,./stim/wavs/castilian_match_interrogative-total-yn_Mariano-habla-del-tiempo.wav,,,,,,,,,,,,,,,,,,,,,,348.5665,350.6322,1,1,1.5332,,0,70,70,4,1,0,castilian,,,,,,,,,,,,,,,,,,,,,,,,,,,,,,,,,,,,,,,,,,,,,,,,,,,,,,,,
,,,,,,,,,6761134a283b8ace0b1e0345,Spanish,13 or older,"no, only English or Spanish",no,2025-07-22_20h41.35.081,empathy_intonation_perc,2024.2.4,Win32,60.60606061,6761134a283b8ace0b1e0345,687ed1b7e638a4cbf2f02089,68802f9cd16cca49356c8927,,,,,,,,,,,,,70,0,,./stim/wavs/castilian_mismatch_declarative-broad-focus_La-maestra-vive-en-Paris.wav,,,,,,,,,,,,,,,,,,,,,,350.6329,353.0487,0,1,1.8838,,0,71,71,69,1,0,castilian,,,,,,,,,,,,,,,,,,,,,,,,,,,,,,,,,,,,,,,,,,,,,,,,,,,,,,,,
,,,,,,,,,6761134a283b8ace0b1e0345,Spanish,13 or older,"no, only English or Spanish",no,2025-07-22_20h41.35.081,empathy_intonation_perc,2024.2.4,Win32,60.60606061,6761134a283b8ace0b1e0345,687ed1b7e638a4cbf2f02089,68802f9cd16cca49356c8927,,,,,,,,,,,,,56,0,,./stim/wavs/cuban_match_declarative-broad-focus_Marta-abre-el-regalo.wav,,,,,,,,,,,,,,,,,,,,,,353.0495,355.0986,0,1,1.5239,,0,72,72,55,1,0,cuban,,,,,,,,,,,,,,,,,,,,,,,,,,,,,,,,,,,,,,,,,,,,,,,,,,,,,,,,
,,,,,,,,,6761134a283b8ace0b1e0345,Spanish,13 or older,"no, only English or Spanish",no,2025-07-22_20h41.35.081,empathy_intonation_perc,2024.2.4,Win32,60.60606061,6761134a283b8ace0b1e0345,687ed1b7e638a4cbf2f02089,68802f9cd16cca49356c8927,,,,,,,,,,,,,75,0,,./stim/wavs/cuban_mismatch_declarative-broad-focus_El-hombre-mira-la-luna.wav,,,,,,,,,,,,,,,,,,,,,,355.0992,357.2487,0,1,1.6161,,0,73,73,74,1,0,cuban,,,,,,,,,,,,,,,,,,,,,,,,,,,,,,,,,,,,,,,,,,,,,,,,,,,,,,,,
,,,,,,,,,6761134a283b8ace0b1e0345,Spanish,13 or older,"no, only English or Spanish",no,2025-07-22_20h41.35.081,empathy_intonation_perc,2024.2.4,Win32,60.60606061,6761134a283b8ace0b1e0345,687ed1b7e638a4cbf2f02089,68802f9cd16cca49356c8927,,,,,,,,,,,,,42,1,,./stim/wavs/puertorican_mismatch_interrogative-total-yn_La-maestra-vive-en-Paris.wav,,,,,,,,,,,,,,,,,,,,,,357.2497,359.5316,0,0,1.7507,,0,74,74,41,1,1,puertorican,,,,,,,,,,,,,,,,,,,,,,,,,,,,,,,,,,,,,,,,,,,,,,,,,,,,,,,,
,,,,,,,,,6761134a283b8ace0b1e0345,Spanish,13 or older,"no, only English or Spanish",no,2025-07-22_20h41.35.081,empathy_intonation_perc,2024.2.4,Win32,60.60606061,6761134a283b8ace0b1e0345,687ed1b7e638a4cbf2f02089,68802f9cd16cca49356c8927,,,,,,,,,,,,,10,1,,./stim/wavs/cuban_match_interrogative-total-yn_Maria-bebe-el-vino.wav,,,,,,,,,,,,,,,,,,,,,,359.5323,361.4989,0,0,1.4455,,0,75,75,9,1,1,cuban,,,,,,,,,,,,,,,,,,,,,,,,,,,,,,,,,,,,,,,,,,,,,,,,,,,,,,,,
,,,,,,,,,6761134a283b8ace0b1e0345,Spanish,13 or older,"no, only English or Spanish",no,2025-07-22_20h41.35.081,empathy_intonation_perc,2024.2.4,Win32,60.60606061,6761134a283b8ace0b1e0345,687ed1b7e638a4cbf2f02089,68802f9cd16cca49356c8927,,,,,,,,,,,,,88,0,,./stim/wavs/puertorican_mismatch_declarative-broad-focus_La-nina-lava-el-plato.wav,,,,,,,,,,,,,,,,,,,,,,361.4995,363.6145,0,1,1.5925,,0,76,76,87,1,0,puertorican,,,,,,,,,,,,,,,,,,,,,,,,,,,,,,,,,,,,,,,,,,,,,,,,,,,,,,,,
,,,,,,,,,6761134a283b8ace0b1e0345,Spanish,13 or older,"no, only English or Spanish",no,2025-07-22_20h41.35.081,empathy_intonation_perc,2024.2.4,Win32,60.60606061,6761134a283b8ace0b1e0345,687ed1b7e638a4cbf2f02089,68802f9cd16cca49356c8927,,,,,,,,,,,,,67,0,,./stim/wavs/puertorican_match_declarative-broad-focus_Manuela-vende-el-carro.wav,,,,,,,,,,,,,,,,,,,,,,363.6152,365.7478,0,1,1.6094,,0,77,77,66,1,0,puertorican,,,,,,,,,,,,,,,,,,,,,,,,,,,,,,,,,,,,,,,,,,,,,,,,,,,,,,,,
,,,,,,,,,6761134a283b8ace0b1e0345,Spanish,13 or older,"no, only English or Spanish",no,2025-07-22_20h41.35.081,empathy_intonation_perc,2024.2.4,Win32,60.60606061,6761134a283b8ace0b1e0345,687ed1b7e638a4cbf2f02089,68802f9cd16cca49356c8927,,,,,,,,,,,,,37,1,,./stim/wavs/mexican_mismatch_interrogative-total-yn_La-maestra-vive-en-Paris.wav,,,,,,,,,,,,,,,,,,,,,,365.7485,367.7647,0,0,1.487,,0,78,78,36,1,0,mexican,,,,,,,,,,,,,,,,,,,,,,,,,,,,,,,,,,,,,,,,,,,,,,,,,,,,,,,,
,,,,,,,,,6761134a283b8ace0b1e0345,Spanish,13 or older,"no, only English or Spanish",no,2025-07-22_20h41.35.081,empathy_intonation_perc,2024.2.4,Win32,60.60606061,6761134a283b8ace0b1e0345,687ed1b7e638a4cbf2f02089,68802f9cd16cca49356c8927,,,,,,,,,,,,,85,0,,./stim/wavs/puertorican_mismatch_declarative-broad-focus_El-hombre-mira-la-luna.wav,,,,,,,,,,,,,,,,,,,,,,367.7654,369.7808,0,1,1.4842,,0,79,79,84,1,0,puertorican,,,,,,,,,,,,,,,,,,,,,,,,,,,,,,,,,,,,,,,,,,,,,,,,,,,,,,,,
,,,,,,,,,6761134a283b8ace0b1e0345,Spanish,13 or older,"no, only English or Spanish",no,2025-07-22_20h41.35.081,empathy_intonation_perc,2024.2.4,Win32,60.60606061,6761134a283b8ace0b1e0345,687ed1b7e638a4cbf2f02089,68802f9cd16cca49356c8927,,,,,,,,,,,,,44,1,,./stim/wavs/puertorican_mismatch_interrogative-total-yn_Mi-madre-come-la-fruta.wav,,,,,,,,,,,,,,,,,,,,,,369.7816,371.9973,0,0,1.6855,,0,80,80,43,1,1,puertorican,,,,,,,,,,,,,,,,,,,,,,,,,,,,,,,,,,,,,,,,,,,,,,,,,,,,,,,,
,,,,,,,,,6761134a283b8ace0b1e0345,Spanish,13 or older,"no, only English or Spanish",no,2025-07-22_20h41.35.081,empathy_intonation_perc,2024.2.4,Win32,60.60606061,6761134a283b8ace0b1e0345,687ed1b7e638a4cbf2f02089,68802f9cd16cca49356c8927,,,,,,,,,,,,,83,0,,./stim/wavs/mexican_mismatch_declarative-broad-focus_Mi-tia-odia-la-lluvia.wav,,,,,,,,,,,,,,,,,,,,,,371.998,373.9979,0,1,1.4659,,0,81,81,82,1,0,mexican,,,,,,,,,,,,,,,,,,,,,,,,,,,,,,,,,,,,,,,,,,,,,,,,,,,,,,,,
,,,,,,,,,6761134a283b8ace0b1e0345,Spanish,13 or older,"no, only English or Spanish",no,2025-07-22_20h41.35.081,empathy_intonation_perc,2024.2.4,Win32,60.60606061,6761134a283b8ace0b1e0345,687ed1b7e638a4cbf2f02089,68802f9cd16cca49356c8927,,,,,,,,,,,,,12,1,,./stim/wavs/cuban_match_interrogative-total-yn_Marta-abre-el-regalo.wav,,,,,,,,,,,,,,,,,,,,,,373.9986,376.1305,0,0,1.6002,,0,82,82,11,1,1,cuban,,,,,,,,,,,,,,,,,,,,,,,,,,,,,,,,,,,,,,,,,,,,,,,,,,,,,,,,
,,,,,,,,,6761134a283b8ace0b1e0345,Spanish,13 or older,"no, only English or Spanish",no,2025-07-22_20h41.35.081,empathy_intonation_perc,2024.2.4,Win32,60.60606061,6761134a283b8ace0b1e0345,687ed1b7e638a4cbf2f02089,68802f9cd16cca49356c8927,,,,,,,,,,,,,87,0,,./stim/wavs/puertorican_mismatch_declarative-broad-focus_La-maestra-vive-en-Paris.wav,,,,,,,,,,,,,,,,,,,,,,376.1312,378.2806,0,1,1.6227,,0,83,83,86,1,0,puertorican,,,,,,,,,,,,,,,,,,,,,,,,,,,,,,,,,,,,,,,,,,,,,,,,,,,,,,,,
,,,,,,,,,6761134a283b8ace0b1e0345,Spanish,13 or older,"no, only English or Spanish",no,2025-07-22_20h41.35.081,empathy_intonation_perc,2024.2.4,Win32,60.60606061,6761134a283b8ace0b1e0345,687ed1b7e638a4cbf2f02089,68802f9cd16cca49356c8927,,,,,,,,,,,,,41,1,,./stim/wavs/puertorican_mismatch_interrogative-total-yn_El-nino-oye-el-rio.wav,,,,,,,,,,,,,,,,,,,,,,378.2814,380.4467,1,1,1.6335,,0,84,84,40,1,1,puertorican,,,,,,,,,,,,,,,,,,,,,,,,,,,,,,,,,,,,,,,,,,,,,,,,,,,,,,,,
,,,,,,,,,6761134a283b8ace0b1e0345,Spanish,13 or older,"no, only English or Spanish",no,2025-07-22_20h41.35.081,empathy_intonation_perc,2024.2.4,Win32,60.60606061,6761134a283b8ace0b1e0345,687ed1b7e638a4cbf2f02089,68802f9cd16cca49356c8927,,,,,,,,,,,,,34,1,,./stim/wavs/cuban_mismatch_interrogative-total-yn_Mi-tia-odia-la-lluvia.wav,,,,,,,,,,,,,,,,,,,,,,380.4473,382.8303,0,0,1.8526,,0,85,85,33,1,1,cuban,,,,,,,,,,,,,,,,,,,,,,,,,,,,,,,,,,,,,,,,,,,,,,,,,,,,,,,,
,,,,,,,,,6761134a283b8ace0b1e0345,Spanish,13 or older,"no, only English or Spanish",no,2025-07-22_20h41.35.081,empathy_intonation_perc,2024.2.4,Win32,60.60606061,6761134a283b8ace0b1e0345,687ed1b7e638a4cbf2f02089,68802f9cd16cca49356c8927,,,,,,,,,,,,,72,0,,./stim/wavs/castilian_mismatch_declarative-broad-focus_Mi-novio-viene-del-lago.wav,,,,,,,,,,,,,,,,,,,,,,382.8315,385.1465,0,1,1.7917,,0,86,86,71,1,0,castilian,,,,,,,,,,,,,,,,,,,,,,,,,,,,,,,,,,,,,,,,,,,,,,,,,,,,,,,,
,,,,,,,,,6761134a283b8ace0b1e0345,Spanish,13 or older,"no, only English or Spanish",no,2025-07-22_20h41.35.081,empathy_intonation_perc,2024.2.4,Win32,60.60606061,6761134a283b8ace0b1e0345,687ed1b7e638a4cbf2f02089,68802f9cd16cca49356c8927,,,,,,,,,,,,,43,1,,./stim/wavs/puertorican_mismatch_interrogative-total-yn_La-nina-lava-el-plato.wav,,,,,,,,,,,,,,,,,,,,,,385.1471,387.4461,0,0,1.7717,,0,87,87,42,1,1,puertorican,,,,,,,,,,,,,,,,,,,,,,,,,,,,,,,,,,,,,,,,,,,,,,,,,,,,,,,,
,,,,,,,"Great! Now we will move on. The next task consists of about 60 trials, in each of which you will see a string of letters. 
  
  Your task is to decide whether this is a real Spanish word or not.", (press the spacebar to continue),6761134a283b8ace0b1e0345,Spanish,13 or older,"no, only English or Spanish",no,2025-07-22_20h41.35.081,empathy_intonation_perc,2024.2.4,Win32,60.60606061,6761134a283b8ace0b1e0345,687ed1b7e638a4cbf2f02089,68802f9cd16cca49356c8927,,,,,,,,,,,,,,,,,,,,,,,,,,,,,,,,,,,,,,,,,,,,,,,,,,,387.4536,392.1295,0,0,0,0,1,,,,,,,,,,,,,,,,,,,,,,,,,,,,,,,,,,,,,,,,,,,,,,,,,
,,,,,,,"If you think it is an existing Spanish word, you type '1' (for 'REAL'), and if you think it is not an existing Spanish word, you type '0' (for 'FAKE').", (press the spacebar to continue),6761134a283b8ace0b1e0345,Spanish,13 or older,"no, only English or Spanish",no,2025-07-22_20h41.35.081,empathy_intonation_perc,2024.2.4,Win32,60.60606061,6761134a283b8ace0b1e0345,687ed1b7e638a4cbf2f02089,68802f9cd16cca49356c8927,,,,,,,,,,,,,,,,,,,,,,,,,,,,,,,,,,,,,,,,,,,,,,,,,,,392.1317,393.8628,0,1,1,1,1,,,,,,,,,,,,,,,,,,,,,,,,,,,,,,,,,,,,,,,,,,,,,,,,,
,,,,,,,"If you are sure that the word exists, even though you don’t know its exact meaning, you may still respond '1' (REAL). 
  
  But if you are not sure if it is an existing word, you should respond '0' (FAKE).
  
  Let's do a practice round...", (press the spacebar to continue),6761134a283b8ace0b1e0345,Spanish,13 or older,"no, only English or Spanish",no,2025-07-22_20h41.35.081,empathy_intonation_perc,2024.2.4,Win32,60.60606061,6761134a283b8ace0b1e0345,687ed1b7e638a4cbf2f02089,68802f9cd16cca49356c8927,,,,,,,,,,,,,,,,,,,,,,,,,,,,,,,,,,,,,,,,,,,,,,,,,,,393.865,396.929,0,2,2,2,1,,,,,,,,,,,,,,,,,,,,,,,,,,,,,,,,,,,,,,,,,,,,,,,,,
,,,,,,,,,6761134a283b8ace0b1e0345,Spanish,13 or older,"no, only English or Spanish",no,2025-07-22_20h41.35.081,empathy_intonation_perc,2024.2.4,Win32,60.60606061,6761134a283b8ace0b1e0345,687ed1b7e638a4cbf2f02089,68802f9cd16cca49356c8927,,,,,,,,,,,,,,0,,,,,,,,,,,,,,,,,,,,,,,,,,,,,,,,,,,,,,,,,,,,396.9359,399.0124,1,0,1.5524,,399.0128,400.0125,0,0,0,0,1,0,depiste,REAL,FAKE,,,,,,,,,,,,,,,,,,,,,,,,,,,,,,,,
,,,,,,,,,6761134a283b8ace0b1e0345,Spanish,13 or older,"no, only English or Spanish",no,2025-07-22_20h41.35.081,empathy_intonation_perc,2024.2.4,Win32,60.60606061,6761134a283b8ace0b1e0345,687ed1b7e638a4cbf2f02089,68802f9cd16cca49356c8927,,,,,,,,,,,,,,1,,,,,,,,,,,,,,,,,,,,,,,,,,,,,,,,,,,,,,,,,,,,400.0154,401.3288,1,1,0.7881,,401.3296,402.3285,0,1,1,1,1,0,sí,REAL,FAKE,,,,,,,,,,,,,,,,,,,,,,,,,,,,,,,,
,,,,,,,,,6761134a283b8ace0b1e0345,Spanish,13 or older,"no, only English or Spanish",no,2025-07-22_20h41.35.081,empathy_intonation_perc,2024.2.4,Win32,60.60606061,6761134a283b8ace0b1e0345,687ed1b7e638a4cbf2f02089,68802f9cd16cca49356c8927,,,,,,,,,,,,,,0,,,,,,,,,,,,,,,,,,,,,,,,,,,,,,,,,,,,,,,,,,,,402.3302,403.8954,1,0,1.0344,,403.8965,404.8949,0,2,2,2,1,0,coné,REAL,FAKE,,,,,,,,,,,,,,,,,,,,,,,,,,,,,,,,
,,,,,,,,,6761134a283b8ace0b1e0345,Spanish,13 or older,"no, only English or Spanish",no,2025-07-22_20h41.35.081,empathy_intonation_perc,2024.2.4,Win32,60.60606061,6761134a283b8ace0b1e0345,687ed1b7e638a4cbf2f02089,68802f9cd16cca49356c8927,,,,,,,,,,,,,,0,,,,,,,,,,,,,,,,,,,,,,,,,,,,,,,,,,,,,,,,,,,,404.896,406.395,1,0,0.9677,,406.3951,407.3951,0,3,3,3,1,0,calpar,REAL,FAKE,,,,,,,,,,,,,,,,,,,,,,,,,,,,,,,,
,,,,,,,,,6761134a283b8ace0b1e0345,Spanish,13 or older,"no, only English or Spanish",no,2025-07-22_20h41.35.081,empathy_intonation_perc,2024.2.4,Win32,60.60606061,6761134a283b8ace0b1e0345,687ed1b7e638a4cbf2f02089,68802f9cd16cca49356c8927,,,,,,,,,,,,,,0,,,,,,,,,,,,,,,,,,,,,,,,,,,,,,,,,,,,,,,,,,,,407.3978,408.9113,0,1,0.9893,,408.9121,409.9117,0,4,4,4,1,0,joten,REAL,FAKE,,,,,,,,,,,,,,,,,,,,,,,,,,,,,,,,
,,,,,,,,,6761134a283b8ace0b1e0345,Spanish,13 or older,"no, only English or Spanish",no,2025-07-22_20h41.35.081,empathy_intonation_perc,2024.2.4,Win32,60.60606061,6761134a283b8ace0b1e0345,687ed1b7e638a4cbf2f02089,68802f9cd16cca49356c8927,,,,,,,,,,,,,,1,,,,,,,,,,,,,,,,,,,,,,,,,,,,,,,,,,,,,,,,,,,,409.9135,411.2111,0,0,0.7644,,411.2119,412.2114,0,5,5,5,1,0,sacapuntas,REAL,FAKE,,,,,,,,,,,,,,,,,,,,,,,,,,,,,,,,
,,,,,,,,,6761134a283b8ace0b1e0345,Spanish,13 or older,"no, only English or Spanish",no,2025-07-22_20h41.35.081,empathy_intonation_perc,2024.2.4,Win32,60.60606061,6761134a283b8ace0b1e0345,687ed1b7e638a4cbf2f02089,68802f9cd16cca49356c8927,,,,,,,,,,,,,,0,,,,,,,,,,,,,,,,,,,,,,,,,,,,,,,,,,,,,,,,,,,,412.2135,413.9113,0,1,1.1706,,413.9124,414.9113,0,6,6,6,1,0,priba,REAL,FAKE,,,,,,,,,,,,,,,,,,,,,,,,,,,,,,,,
,,,,,,,,,6761134a283b8ace0b1e0345,Spanish,13 or older,"no, only English or Spanish",no,2025-07-22_20h41.35.081,empathy_intonation_perc,2024.2.4,Win32,60.60606061,6761134a283b8ace0b1e0345,687ed1b7e638a4cbf2f02089,68802f9cd16cca49356c8927,,,,,,,,,,,,,,0,,,,,,,,,,,,,,,,,,,,,,,,,,,,,,,,,,,,,,,,,,,,414.9125,416.4945,0,1,1.0487,,416.4947,417.4943,0,7,7,7,1,0,pelasula,REAL,FAKE,,,,,,,,,,,,,,,,,,,,,,,,,,,,,,,,
,,,,,,,,,6761134a283b8ace0b1e0345,Spanish,13 or older,"no, only English or Spanish",no,2025-07-22_20h41.35.081,empathy_intonation_perc,2024.2.4,Win32,60.60606061,6761134a283b8ace0b1e0345,687ed1b7e638a4cbf2f02089,68802f9cd16cca49356c8927,,,,,,,,,,,,,,1,,,,,,,,,,,,,,,,,,,,,,,,,,,,,,,,,,,,,,,,,,,,417.4955,418.6106,1,1,0.5868,,418.6107,419.6109,0,8,8,8,1,0,bien,REAL,FAKE,,,,,,,,,,,,,,,,,,,,,,,,,,,,,,,,
,,,,,,,,,6761134a283b8ace0b1e0345,Spanish,13 or older,"no, only English or Spanish",no,2025-07-22_20h41.35.081,empathy_intonation_perc,2024.2.4,Win32,60.60606061,6761134a283b8ace0b1e0345,687ed1b7e638a4cbf2f02089,68802f9cd16cca49356c8927,,,,,,,,,,,,,,1,,,,,,,,,,,,,,,,,,,,,,,,,,,,,,,,,,,,,,,,,,,,419.612,420.7609,1,1,0.625,,420.761,421.7604,0,9,9,9,1,0,casa,REAL,FAKE,,,,,,,,,,,,,,,,,,,,,,,,,,,,,,,,
,,,,,,,,,6761134a283b8ace0b1e0345,Spanish,13 or older,"no, only English or Spanish",no,2025-07-22_20h41.35.081,empathy_intonation_perc,2024.2.4,Win32,60.60606061,6761134a283b8ace0b1e0345,687ed1b7e638a4cbf2f02089,68802f9cd16cca49356c8927,,,,,,,,,,,,,,0,,,,,,,,,,,,,,,,,,,,,,,,,,,,,,,,,,,,,,,,,,,,421.7615,423.0605,1,0,0.7653,,423.0615,424.0601,0,10,10,10,1,0,lejo,REAL,FAKE,,,,,,,,,,,,,,,,,,,,,,,,,,,,,,,,
,,,,,,,,,6761134a283b8ace0b1e0345,Spanish,13 or older,"no, only English or Spanish",no,2025-07-22_20h41.35.081,empathy_intonation_perc,2024.2.4,Win32,60.60606061,6761134a283b8ace0b1e0345,687ed1b7e638a4cbf2f02089,68802f9cd16cca49356c8927,,,,,,,,,,,,,,0,,,,,,,,,,,,,,,,,,,,,,,,,,,,,,,,,,,,,,,,,,,,424.0612,425.56,0,1,0.9735,,425.5608,426.5599,0,11,11,11,1,0,pretantas,REAL,FAKE,,,,,,,,,,,,,,,,,,,,,,,,,,,,,,,,
,,,,,,,,,6761134a283b8ace0b1e0345,Spanish,13 or older,"no, only English or Spanish",no,2025-07-22_20h41.35.081,empathy_intonation_perc,2024.2.4,Win32,60.60606061,6761134a283b8ace0b1e0345,687ed1b7e638a4cbf2f02089,68802f9cd16cca49356c8927,,,,,,,,,,,,,,,,,,,,,,,,,,,,,,,,,,,,,,,,,,,,,,,,,,,,,,,,,,,,,,,,,,,,,,,,,,,426.5604,427.4273,,,,,,,,,,,,,,,,,,,,,,,,,,,,,,
,,,,,,,,,6761134a283b8ace0b1e0345,Spanish,13 or older,"no, only English or Spanish",no,2025-07-22_20h41.35.081,empathy_intonation_perc,2024.2.4,Win32,60.60606061,6761134a283b8ace0b1e0345,687ed1b7e638a4cbf2f02089,68802f9cd16cca49356c8927,,,,,,,,,,,,,,0,,,,,,,,,,,,,,,,,,,,,,,,,,,,,,,,,,,,,,,,,,,,,,,,,,,,,,,,,87,grodo,,,,,427.436,428.9268,0,1,0.9735,,0,0,0,86,1,REAL,FAKE,,,,,,,,,,,,,,,,,
,,,,,,,,,6761134a283b8ace0b1e0345,Spanish,13 or older,"no, only English or Spanish",no,2025-07-22_20h41.35.081,empathy_intonation_perc,2024.2.4,Win32,60.60606061,6761134a283b8ace0b1e0345,687ed1b7e638a4cbf2f02089,68802f9cd16cca49356c8927,,,,,,,,,,,,,,0,,,,,,,,,,,,,,,,,,,,,,,,,,,,,,,,,,,,,,,,,,,,,,,,,,,,,,,,,19,brecedad,,,,,428.9278,430.5434,0,1,1.0809,,0,1,1,18,1,REAL,FAKE,,,,,,,,,,,,,,,,,
,,,,,,,,,6761134a283b8ace0b1e0345,Spanish,13 or older,"no, only English or Spanish",no,2025-07-22_20h41.35.081,empathy_intonation_perc,2024.2.4,Win32,60.60606061,6761134a283b8ace0b1e0345,687ed1b7e638a4cbf2f02089,68802f9cd16cca49356c8927,,,,,,,,,,,,,,0,,,,,,,,,,,,,,,,,,,,,,,,,,,,,,,,,,,,,,,,,,,,,,,,,,,,,,,,,29,decar,,,,,430.5448,431.7097,1,0,0.6354,,0,2,2,28,1,REAL,FAKE,,,,,,,,,,,,,,,,,
,,,,,,,,,6761134a283b8ace0b1e0345,Spanish,13 or older,"no, only English or Spanish",no,2025-07-22_20h41.35.081,empathy_intonation_perc,2024.2.4,Win32,60.60606061,6761134a283b8ace0b1e0345,687ed1b7e638a4cbf2f02089,68802f9cd16cca49356c8927,,,,,,,,,,,,,,1,,,,,,,,,,,,,,,,,,,,,,,,,,,,,,,,,,,,,,,,,,,,,,,,,,,,,,,,,38,estornudar,,,,,431.7107,434.0429,0,0,1.7976,,0,3,3,37,1,REAL,FAKE,,,,,,,,,,,,,,,,,
,,,,,,,,,6761134a283b8ace0b1e0345,Spanish,13 or older,"no, only English or Spanish",no,2025-07-22_20h41.35.081,empathy_intonation_perc,2024.2.4,Win32,60.60606061,6761134a283b8ace0b1e0345,687ed1b7e638a4cbf2f02089,68802f9cd16cca49356c8927,,,,,,,,,,,,,,0,,,,,,,,,,,,,,,,,,,,,,,,,,,,,,,,,,,,,,,,,,,,,,,,,,,,,,,,,10,antar,,,,,434.0439,435.243,1,0,0.6671,,0,4,4,9,1,REAL,FAKE,,,,,,,,,,,,,,,,,
,,,,,,,,,6761134a283b8ace0b1e0345,Spanish,13 or older,"no, only English or Spanish",no,2025-07-22_20h41.35.081,empathy_intonation_perc,2024.2.4,Win32,60.60606061,6761134a283b8ace0b1e0345,687ed1b7e638a4cbf2f02089,68802f9cd16cca49356c8927,,,,,,,,,,,,,,0,,,,,,,,,,,,,,,,,,,,,,,,,,,,,,,,,,,,,,,,,,,,,,,,,,,,,,,,,4,batillón,,,,,435.2448,436.6096,1,0,0.8333,,0,5,5,3,1,REAL,FAKE,,,,,,,,,,,,,,,,,
,,,,,,,,,6761134a283b8ace0b1e0345,Spanish,13 or older,"no, only English or Spanish",no,2025-07-22_20h41.35.081,empathy_intonation_perc,2024.2.4,Win32,60.60606061,6761134a283b8ace0b1e0345,687ed1b7e638a4cbf2f02089,68802f9cd16cca49356c8927,,,,,,,,,,,,,,0,,,,,,,,,,,,,,,,,,,,,,,,,,,,,,,,,,,,,,,,,,,,,,,,,,,,,,,,,18,arsa,,,,,436.6113,437.9761,0,1,0.8322,,0,6,6,17,1,REAL,FAKE,,,,,,,,,,,,,,,,,
,,,,,,,,,6761134a283b8ace0b1e0345,Spanish,13 or older,"no, only English or Spanish",no,2025-07-22_20h41.35.081,empathy_intonation_perc,2024.2.4,Win32,60.60606061,6761134a283b8ace0b1e0345,687ed1b7e638a4cbf2f02089,68802f9cd16cca49356c8927,,,,,,,,,,,,,,0,,,,,,,,,,,,,,,,,,,,,,,,,,,,,,,,,,,,,,,,,,,,,,,,,,,,,,,,,27,acutación,,,,,437.9776,439.6757,1,0,1.1714,,0,7,7,26,1,REAL,FAKE,,,,,,,,,,,,,,,,,
,,,,,,,,,6761134a283b8ace0b1e0345,Spanish,13 or older,"no, only English or Spanish",no,2025-07-22_20h41.35.081,empathy_intonation_perc,2024.2.4,Win32,60.60606061,6761134a283b8ace0b1e0345,687ed1b7e638a4cbf2f02089,68802f9cd16cca49356c8927,,,,,,,,,,,,,,0,,,,,,,,,,,,,,,,,,,,,,,,,,,,,,,,,,,,,,,,,,,,,,,,,,,,,,,,,84,escuto,,,,,439.6768,441.2599,0,1,1.0577,,0,8,8,83,1,REAL,FAKE,,,,,,,,,,,,,,,,,
,,,,,,,,,6761134a283b8ace0b1e0345,Spanish,13 or older,"no, only English or Spanish",no,2025-07-22_20h41.35.081,empathy_intonation_perc,2024.2.4,Win32,60.60606061,6761134a283b8ace0b1e0345,687ed1b7e638a4cbf2f02089,68802f9cd16cca49356c8927,,,,,,,,,,,,,,0,,,,,,,,,,,,,,,,,,,,,,,,,,,,,,,,,,,,,,,,,,,,,,,,,,,,,,,,,23,lampera,,,,,441.2611,442.8925,0,1,1.1089,,0,9,9,22,1,REAL,FAKE,,,,,,,,,,,,,,,,,
,,,,,,,,,6761134a283b8ace0b1e0345,Spanish,13 or older,"no, only English or Spanish",no,2025-07-22_20h41.35.081,empathy_intonation_perc,2024.2.4,Win32,60.60606061,6761134a283b8ace0b1e0345,687ed1b7e638a4cbf2f02089,68802f9cd16cca49356c8927,,,,,,,,,,,,,,1,,,,,,,,,,,,,,,,,,,,,,,,,,,,,,,,,,,,,,,,,,,,,,,,,,,,,,,,,60,matar,,,,,442.8934,444.1423,1,1,0.714,,0,10,10,59,1,REAL,FAKE,,,,,,,,,,,,,,,,,
,,,,,,,,,6761134a283b8ace0b1e0345,Spanish,13 or older,"no, only English or Spanish",no,2025-07-22_20h41.35.081,empathy_intonation_perc,2024.2.4,Win32,60.60606061,6761134a283b8ace0b1e0345,687ed1b7e638a4cbf2f02089,68802f9cd16cca49356c8927,,,,,,,,,,,,,,1,,,,,,,,,,,,,,,,,,,,,,,,,,,,,,,,,,,,,,,,,,,,,,,,,,,,,,,,,15,regar,,,,,444.1438,445.3757,1,1,0.71,,0,11,11,14,1,REAL,FAKE,,,,,,,,,,,,,,,,,
,,,,,,,,,6761134a283b8ace0b1e0345,Spanish,13 or older,"no, only English or Spanish",no,2025-07-22_20h41.35.081,empathy_intonation_perc,2024.2.4,Win32,60.60606061,6761134a283b8ace0b1e0345,687ed1b7e638a4cbf2f02089,68802f9cd16cca49356c8927,,,,,,,,,,,,,,1,,,,,,,,,,,,,,,,,,,,,,,,,,,,,,,,,,,,,,,,,,,,,,,,,,,,,,,,,6,tergiversar,,,,,445.3772,447.2585,0,0,1.3514,,0,12,12,5,1,REAL,FAKE,,,,,,,,,,,,,,,,,
,,,,,,,,,6761134a283b8ace0b1e0345,Spanish,13 or older,"no, only English or Spanish",no,2025-07-22_20h41.35.081,empathy_intonation_perc,2024.2.4,Win32,60.60606061,6761134a283b8ace0b1e0345,687ed1b7e638a4cbf2f02089,68802f9cd16cca49356c8927,,,,,,,,,,,,,,1,,,,,,,,,,,,,,,,,,,,,,,,,,,,,,,,,,,,,,,,,,,,,,,,,,,,,,,,,89,prisa,,,,,447.2595,448.9916,0,0,1.2073,,0,13,13,88,1,REAL,FAKE,,,,,,,,,,,,,,,,,
,,,,,,,,,6761134a283b8ace0b1e0345,Spanish,13 or older,"no, only English or Spanish",no,2025-07-22_20h41.35.081,empathy_intonation_perc,2024.2.4,Win32,60.60606061,6761134a283b8ace0b1e0345,687ed1b7e638a4cbf2f02089,68802f9cd16cca49356c8927,,,,,,,,,,,,,,0,,,,,,,,,,,,,,,,,,,,,,,,,,,,,,,,,,,,,,,,,,,,,,,,,,,,,,,,,33,pauca,,,,,448.9926,450.3083,0,1,0.7848,,0,14,14,32,1,REAL,FAKE,,,,,,,,,,,,,,,,,
,,,,,,,,,6761134a283b8ace0b1e0345,Spanish,13 or older,"no, only English or Spanish",no,2025-07-22_20h41.35.081,empathy_intonation_perc,2024.2.4,Win32,60.60606061,6761134a283b8ace0b1e0345,687ed1b7e638a4cbf2f02089,68802f9cd16cca49356c8927,,,,,,,,,,,,,,1,,,,,,,,,,,,,,,,,,,,,,,,,,,,,,,,,,,,,,,,,,,,,,,,,,,,,,,,,59,besar,,,,,450.3095,451.4749,1,1,0.6299,,0,15,15,58,1,REAL,FAKE,,,,,,,,,,,,,,,,,
,,,,,,,,,6761134a283b8ace0b1e0345,Spanish,13 or older,"no, only English or Spanish",no,2025-07-22_20h41.35.081,empathy_intonation_perc,2024.2.4,Win32,60.60606061,6761134a283b8ace0b1e0345,687ed1b7e638a4cbf2f02089,68802f9cd16cca49356c8927,,,,,,,,,,,,,,1,,,,,,,,,,,,,,,,,,,,,,,,,,,,,,,,,,,,,,,,,,,,,,,,,,,,,,,,,57,tacaño,,,,,451.4765,452.6753,1,1,0.6635,,0,16,16,56,1,REAL,FAKE,,,,,,,,,,,,,,,,,
,,,,,,,,,6761134a283b8ace0b1e0345,Spanish,13 or older,"no, only English or Spanish",no,2025-07-22_20h41.35.081,empathy_intonation_perc,2024.2.4,Win32,60.60606061,6761134a283b8ace0b1e0345,687ed1b7e638a4cbf2f02089,68802f9cd16cca49356c8927,,,,,,,,,,,,,,0,,,,,,,,,,,,,,,,,,,,,,,,,,,,,,,,,,,,,,,,,,,,,,,,,,,,,,,,,1,terzo,,,,,452.6773,455.0911,1,0,1.8917,,0,17,17,0,1,REAL,FAKE,,,,,,,,,,,,,,,,,
,,,,,,,,,6761134a283b8ace0b1e0345,Spanish,13 or older,"no, only English or Spanish",no,2025-07-22_20h41.35.081,empathy_intonation_perc,2024.2.4,Win32,60.60606061,6761134a283b8ace0b1e0345,687ed1b7e638a4cbf2f02089,68802f9cd16cca49356c8927,,,,,,,,,,,,,,1,,,,,,,,,,,,,,,,,,,,,,,,,,,,,,,,,,,,,,,,,,,,,,,,,,,,,,,,,28,merodear,,,,,455.0922,456.7582,0,0,1.1292,,0,18,18,27,1,REAL,FAKE,,,,,,,,,,,,,,,,,
,,,,,,,,,6761134a283b8ace0b1e0345,Spanish,13 or older,"no, only English or Spanish",no,2025-07-22_20h41.35.081,empathy_intonation_perc,2024.2.4,Win32,60.60606061,6761134a283b8ace0b1e0345,687ed1b7e638a4cbf2f02089,68802f9cd16cca49356c8927,,,,,,,,,,,,,,1,,,,,,,,,,,,,,,,,,,,,,,,,,,,,,,,,,,,,,,,,,,,,,,,,,,,,,,,,24,látigo,,,,,456.7604,458.4414,1,1,1.1495,,0,19,19,23,1,REAL,FAKE,,,,,,,,,,,,,,,,,
,,,,,,,,,6761134a283b8ace0b1e0345,Spanish,13 or older,"no, only English or Spanish",no,2025-07-22_20h41.35.081,empathy_intonation_perc,2024.2.4,Win32,60.60606061,6761134a283b8ace0b1e0345,687ed1b7e638a4cbf2f02089,68802f9cd16cca49356c8927,,,,,,,,,,,,,,0,,,,,,,,,,,,,,,,,,,,,,,,,,,,,,,,,,,,,,,,,,,,,,,,,,,,,,,,,74,cintro,,,,,458.4431,460.0912,1,0,1.1252,,0,20,20,73,1,REAL,FAKE,,,,,,,,,,,,,,,,,
,,,,,,,,,6761134a283b8ace0b1e0345,Spanish,13 or older,"no, only English or Spanish",no,2025-07-22_20h41.35.081,empathy_intonation_perc,2024.2.4,Win32,60.60606061,6761134a283b8ace0b1e0345,687ed1b7e638a4cbf2f02089,68802f9cd16cca49356c8927,,,,,,,,,,,,,,1,,,,,,,,,,,,,,,,,,,,,,,,,,,,,,,,,,,,,,,,,,,,,,,,,,,,,,,,,64,orgulloso,,,,,460.0925,461.2574,0,0,0.6313,,0,21,21,63,1,REAL,FAKE,,,,,,,,,,,,,,,,,
,,,,,,,,,6761134a283b8ace0b1e0345,Spanish,13 or older,"no, only English or Spanish",no,2025-07-22_20h41.35.081,empathy_intonation_perc,2024.2.4,Win32,60.60606061,6761134a283b8ace0b1e0345,687ed1b7e638a4cbf2f02089,68802f9cd16cca49356c8927,,,,,,,,,,,,,,1,,,,,,,,,,,,,,,,,,,,,,,,,,,,,,,,,,,,,,,,,,,,,,,,,,,,,,,,,9,hacha,,,,,461.2585,462.5743,1,1,0.7808,,0,22,22,8,1,REAL,FAKE,,,,,,,,,,,,,,,,,
,,,,,,,,,6761134a283b8ace0b1e0345,Spanish,13 or older,"no, only English or Spanish",no,2025-07-22_20h41.35.081,empathy_intonation_perc,2024.2.4,Win32,60.60606061,6761134a283b8ace0b1e0345,687ed1b7e638a4cbf2f02089,68802f9cd16cca49356c8927,,,,,,,,,,,,,,1,,,,,,,,,,,,,,,,,,,,,,,,,,,,,,,,,,,,,,,,,,,,,,,,,,,,,,,,,7,pésimo,,,,,462.5759,463.9909,1,1,0.8802,,0,23,23,6,1,REAL,FAKE,,,,,,,,,,,,,,,,,
,,,,,,,,,6761134a283b8ace0b1e0345,Spanish,13 or older,"no, only English or Spanish",no,2025-07-22_20h41.35.081,empathy_intonation_perc,2024.2.4,Win32,60.60606061,6761134a283b8ace0b1e0345,687ed1b7e638a4cbf2f02089,68802f9cd16cca49356c8927,,,,,,,,,,,,,,1,,,,,,,,,,,,,,,,,,,,,,,,,,,,,,,,,,,,,,,,,,,,,,,,,,,,,,,,,46,martillo,,,,,463.9926,465.1742,0,0,0.6537,,0,24,24,45,1,REAL,FAKE,,,,,,,,,,,,,,,,,
,,,,,,,,,6761134a283b8ace0b1e0345,Spanish,13 or older,"no, only English or Spanish",no,2025-07-22_20h41.35.081,empathy_intonation_perc,2024.2.4,Win32,60.60606061,6761134a283b8ace0b1e0345,687ed1b7e638a4cbf2f02089,68802f9cd16cca49356c8927,,,,,,,,,,,,,,1,,,,,,,,,,,,,,,,,,,,,,,,,,,,,,,,,,,,,,,,,,,,,,,,,,,,,,,,,86,barato,,,,,465.1757,466.4904,0,0,0.7822,,0,25,25,85,1,REAL,FAKE,,,,,,,,,,,,,,,,,
,,,,,,,,,6761134a283b8ace0b1e0345,Spanish,13 or older,"no, only English or Spanish",no,2025-07-22_20h41.35.081,empathy_intonation_perc,2024.2.4,Win32,60.60606061,6761134a283b8ace0b1e0345,687ed1b7e638a4cbf2f02089,68802f9cd16cca49356c8927,,,,,,,,,,,,,,1,,,,,,,,,,,,,,,,,,,,,,,,,,,,,,,,,,,,,,,,,,,,,,,,,,,,,,,,,52,camisa,,,,,466.4916,467.7903,1,1,0.7744,,0,26,26,51,1,REAL,FAKE,,,,,,,,,,,,,,,,,
,,,,,,,,,6761134a283b8ace0b1e0345,Spanish,13 or older,"no, only English or Spanish",no,2025-07-22_20h41.35.081,empathy_intonation_perc,2024.2.4,Win32,60.60606061,6761134a283b8ace0b1e0345,687ed1b7e638a4cbf2f02089,68802f9cd16cca49356c8927,,,,,,,,,,,,,,0,,,,,,,,,,,,,,,,,,,,,,,,,,,,,,,,,,,,,,,,,,,,,,,,,,,,,,,,,16,abracer,,,,,467.7913,469.1239,1,0,0.7959,,0,27,27,15,1,REAL,FAKE,,,,,,,,,,,,,,,,,
,,,,,,,,,6761134a283b8ace0b1e0345,Spanish,13 or older,"no, only English or Spanish",no,2025-07-22_20h41.35.081,empathy_intonation_perc,2024.2.4,Win32,60.60606061,6761134a283b8ace0b1e0345,687ed1b7e638a4cbf2f02089,68802f9cd16cca49356c8927,,,,,,,,,,,,,,1,,,,,,,,,,,,,,,,,,,,,,,,,,,,,,,,,,,,,,,,,,,,,,,,,,,,,,,,,77,tiburón,,,,,469.125,470.9568,0,0,1.3081,,0,28,28,76,1,REAL,FAKE,,,,,,,,,,,,,,,,,
,,,,,,,,,6761134a283b8ace0b1e0345,Spanish,13 or older,"no, only English or Spanish",no,2025-07-22_20h41.35.081,empathy_intonation_perc,2024.2.4,Win32,60.60606061,6761134a283b8ace0b1e0345,687ed1b7e638a4cbf2f02089,68802f9cd16cca49356c8927,,,,,,,,,,,,,,0,,,,,,,,,,,,,,,,,,,,,,,,,,,,,,,,,,,,,,,,,,,,,,,,,,,,,,,,,82,empirador,,,,,470.9579,472.3567,1,0,0.8709,,0,29,29,81,1,REAL,FAKE,,,,,,,,,,,,,,,,,
,,,,,,,,,6761134a283b8ace0b1e0345,Spanish,13 or older,"no, only English or Spanish",no,2025-07-22_20h41.35.081,empathy_intonation_perc,2024.2.4,Win32,60.60606061,6761134a283b8ace0b1e0345,687ed1b7e638a4cbf2f02089,68802f9cd16cca49356c8927,,,,,,,,,,,,,,0,,,,,,,,,,,,,,,,,,,,,,,,,,,,,,,,,,,,,,,,,,,,,,,,,,,,,,,,,42,cadallo,,,,,472.3577,473.6734,0,1,0.7826,,0,30,30,41,1,REAL,FAKE,,,,,,,,,,,,,,,,,
,,,,,,,,,6761134a283b8ace0b1e0345,Spanish,13 or older,"no, only English or Spanish",no,2025-07-22_20h41.35.081,empathy_intonation_perc,2024.2.4,Win32,60.60606061,6761134a283b8ace0b1e0345,687ed1b7e638a4cbf2f02089,68802f9cd16cca49356c8927,,,,,,,,,,,,,,1,,,,,,,,,,,,,,,,,,,,,,,,,,,,,,,,,,,,,,,,,,,,,,,,,,,,,,,,,25,bisagra,,,,,473.6748,474.9398,0,0,0.7392,,0,31,31,24,1,REAL,FAKE,,,,,,,,,,,,,,,,,
,,,,,,,,,6761134a283b8ace0b1e0345,Spanish,13 or older,"no, only English or Spanish",no,2025-07-22_20h41.35.081,empathy_intonation_perc,2024.2.4,Win32,60.60606061,6761134a283b8ace0b1e0345,687ed1b7e638a4cbf2f02089,68802f9cd16cca49356c8927,,,,,,,,,,,,,,1,,,,,,,,,,,,,,,,,,,,,,,,,,,,,,,,,,,,,,,,,,,,,,,,,,,,,,,,,83,guante,,,,,474.9408,476.1233,1,1,0.6541,,0,32,32,82,1,REAL,FAKE,,,,,,,,,,,,,,,,,
,,,,,,,,,6761134a283b8ace0b1e0345,Spanish,13 or older,"no, only English or Spanish",no,2025-07-22_20h41.35.081,empathy_intonation_perc,2024.2.4,Win32,60.60606061,6761134a283b8ace0b1e0345,687ed1b7e638a4cbf2f02089,68802f9cd16cca49356c8927,,,,,,,,,,,,,,1,,,,,,,,,,,,,,,,,,,,,,,,,,,,,,,,,,,,,,,,,,,,,,,,,,,,,,,,,13,helar,,,,,476.1244,477.24,1,1,0.5868,,0,33,33,12,1,REAL,FAKE,,,,,,,,,,,,,,,,,
,,,,,,,,,6761134a283b8ace0b1e0345,Spanish,13 or older,"no, only English or Spanish",no,2025-07-22_20h41.35.081,empathy_intonation_perc,2024.2.4,Win32,60.60606061,6761134a283b8ace0b1e0345,687ed1b7e638a4cbf2f02089,68802f9cd16cca49356c8927,,,,,,,,,,,,,,1,,,,,,,,,,,,,,,,,,,,,,,,,,,,,,,,,,,,,,,,,,,,,,,,,,,,,,,,,20,ávido,,,,,477.2415,478.6063,1,1,0.8332,,0,34,34,19,1,REAL,FAKE,,,,,,,,,,,,,,,,,
,,,,,,,,,6761134a283b8ace0b1e0345,Spanish,13 or older,"no, only English or Spanish",no,2025-07-22_20h41.35.081,empathy_intonation_perc,2024.2.4,Win32,60.60606061,6761134a283b8ace0b1e0345,687ed1b7e638a4cbf2f02089,68802f9cd16cca49356c8927,,,,,,,,,,,,,,1,,,,,,,,,,,,,,,,,,,,,,,,,,,,,,,,,,,,,,,,,,,,,,,,,,,,,,,,,73,hervidor,,,,,478.6074,479.7898,0,0,0.6517,,0,35,35,72,1,REAL,FAKE,,,,,,,,,,,,,,,,,
,,,,,,,,,6761134a283b8ace0b1e0345,Spanish,13 or older,"no, only English or Spanish",no,2025-07-22_20h41.35.081,empathy_intonation_perc,2024.2.4,Win32,60.60606061,6761134a283b8ace0b1e0345,687ed1b7e638a4cbf2f02089,68802f9cd16cca49356c8927,,,,,,,,,,,,,,1,,,,,,,,,,,,,,,,,,,,,,,,,,,,,,,,,,,,,,,,,,,,,,,,,,,,,,,,,31,pandilla,,,,,479.7908,480.9731,0,0,0.6493,,0,36,36,30,1,REAL,FAKE,,,,,,,,,,,,,,,,,
,,,,,,,,,6761134a283b8ace0b1e0345,Spanish,13 or older,"no, only English or Spanish",no,2025-07-22_20h41.35.081,empathy_intonation_perc,2024.2.4,Win32,60.60606061,6761134a283b8ace0b1e0345,687ed1b7e638a4cbf2f02089,68802f9cd16cca49356c8927,,,,,,,,,,,,,,1,,,,,,,,,,,,,,,,,,,,,,,,,,,,,,,,,,,,,,,,,,,,,,,,,,,,,,,,,49,ganar,,,,,480.9745,482.2728,1,1,0.7719,,0,37,37,48,1,REAL,FAKE,,,,,,,,,,,,,,,,,
,,,,,,,,,6761134a283b8ace0b1e0345,Spanish,13 or older,"no, only English or Spanish",no,2025-07-22_20h41.35.081,empathy_intonation_perc,2024.2.4,Win32,60.60606061,6761134a283b8ace0b1e0345,687ed1b7e638a4cbf2f02089,68802f9cd16cca49356c8927,,,,,,,,,,,,,,1,,,,,,,,,,,,,,,,,,,,,,,,,,,,,,,,,,,,,,,,,,,,,,,,,,,,,,,,,40,alfombra,,,,,482.2742,484.1725,1,1,1.3732,,0,38,38,39,1,REAL,FAKE,,,,,,,,,,,,,,,,,
,,,,,,,,,6761134a283b8ace0b1e0345,Spanish,13 or older,"no, only English or Spanish",no,2025-07-22_20h41.35.081,empathy_intonation_perc,2024.2.4,Win32,60.60606061,6761134a283b8ace0b1e0345,687ed1b7e638a4cbf2f02089,68802f9cd16cca49356c8927,,,,,,,,,,,,,,0,,,,,,,,,,,,,,,,,,,,,,,,,,,,,,,,,,,,,,,,,,,,,,,,,,,,,,,,,21,capillo,,,,,484.1735,485.6559,0,1,0.9517,,0,39,39,20,1,REAL,FAKE,,,,,,,,,,,,,,,,,
,,,,,,,,,6761134a283b8ace0b1e0345,Spanish,13 or older,"no, only English or Spanish",no,2025-07-22_20h41.35.081,empathy_intonation_perc,2024.2.4,Win32,60.60606061,6761134a283b8ace0b1e0345,687ed1b7e638a4cbf2f02089,68802f9cd16cca49356c8927,,,,,,,,,,,,,,1,,,,,,,,,,,,,,,,,,,,,,,,,,,,,,,,,,,,,,,,,,,,,,,,,,,,,,,,,71,polvoriento,,,,,485.6573,487.1395,0,0,0.9576,,0,40,40,70,1,REAL,FAKE,,,,,,,,,,,,,,,,,
,,,,,,,,,6761134a283b8ace0b1e0345,Spanish,13 or older,"no, only English or Spanish",no,2025-07-22_20h41.35.081,empathy_intonation_perc,2024.2.4,Win32,60.60606061,6761134a283b8ace0b1e0345,687ed1b7e638a4cbf2f02089,68802f9cd16cca49356c8927,,,,,,,,,,,,,,1,,,,,,,,,,,,,,,,,,,,,,,,,,,,,,,,,,,,,,,,,,,,,,,,,,,,,,,,,45,jilguero,,,,,487.1404,488.6054,0,0,0.9308,,0,41,41,44,1,REAL,FAKE,,,,,,,,,,,,,,,,,
,,,,,,,,,6761134a283b8ace0b1e0345,Spanish,13 or older,"no, only English or Spanish",no,2025-07-22_20h41.35.081,empathy_intonation_perc,2024.2.4,Win32,60.60606061,6761134a283b8ace0b1e0345,687ed1b7e638a4cbf2f02089,68802f9cd16cca49356c8927,,,,,,,,,,,,,,1,,,,,,,,,,,,,,,,,,,,,,,,,,,,,,,,,,,,,,,,,,,,,,,,,,,,,,,,,36,loro,,,,,488.607,490.789,1,1,1.6519,,0,42,42,35,1,REAL,FAKE,,,,,,,,,,,,,,,,,
,,,,,,,,,6761134a283b8ace0b1e0345,Spanish,13 or older,"no, only English or Spanish",no,2025-07-22_20h41.35.081,empathy_intonation_perc,2024.2.4,Win32,60.60606061,6761134a283b8ace0b1e0345,687ed1b7e638a4cbf2f02089,68802f9cd16cca49356c8927,,,,,,,,,,,,,,1,,,,,,,,,,,,,,,,,,,,,,,,,,,,,,,,,,,,,,,,,,,,,,,,,,,,,,,,,44,cuchara,,,,,490.7908,491.9552,1,1,0.6373,,0,43,43,43,1,REAL,FAKE,,,,,,,,,,,,,,,,,
,,,,,,,,,6761134a283b8ace0b1e0345,Spanish,13 or older,"no, only English or Spanish",no,2025-07-22_20h41.35.081,empathy_intonation_perc,2024.2.4,Win32,60.60606061,6761134a283b8ace0b1e0345,687ed1b7e638a4cbf2f02089,68802f9cd16cca49356c8927,,,,,,,,,,,,,,1,,,,,,,,,,,,,,,,,,,,,,,,,,,,,,,,,,,,,,,,,,,,,,,,,,,,,,,,,67,cabello,,,,,491.9568,493.4887,0,0,1.0008,,0,44,44,66,1,REAL,FAKE,,,,,,,,,,,,,,,,,
,,,,,,,,,6761134a283b8ace0b1e0345,Spanish,13 or older,"no, only English or Spanish",no,2025-07-22_20h41.35.081,empathy_intonation_perc,2024.2.4,Win32,60.60606061,6761134a283b8ace0b1e0345,687ed1b7e638a4cbf2f02089,68802f9cd16cca49356c8927,,,,,,,,,,,,,,0,,,,,,,,,,,,,,,,,,,,,,,,,,,,,,,,,,,,,,,,,,,,,,,,,,,,,,,,,53,vegada,,,,,493.4897,495.3216,0,1,1.3076,,0,45,45,52,1,REAL,FAKE,,,,,,,,,,,,,,,,,
,,,,,,,,,6761134a283b8ace0b1e0345,Spanish,13 or older,"no, only English or Spanish",no,2025-07-22_20h41.35.081,empathy_intonation_perc,2024.2.4,Win32,60.60606061,6761134a283b8ace0b1e0345,687ed1b7e638a4cbf2f02089,68802f9cd16cca49356c8927,,,,,,,,,,,,,,0,,,,,,,,,,,,,,,,,,,,,,,,,,,,,,,,,,,,,,,,,,,,,,,,,,,,,,,,,79,tropaje,,,,,495.3227,496.6883,0,1,0.8305,,0,46,46,78,1,REAL,FAKE,,,,,,,,,,,,,,,,,
,,,,,,,,,6761134a283b8ace0b1e0345,Spanish,13 or older,"no, only English or Spanish",no,2025-07-22_20h41.35.081,empathy_intonation_perc,2024.2.4,Win32,60.60606061,6761134a283b8ace0b1e0345,687ed1b7e638a4cbf2f02089,68802f9cd16cca49356c8927,,,,,,,,,,,,,,1,,,,,,,,,,,,,,,,,,,,,,,,,,,,,,,,,,,,,,,,,,,,,,,,,,,,,,,,,41,rebuscar,,,,,496.6893,498.1389,1,1,0.9246,,0,47,47,40,1,REAL,FAKE,,,,,,,,,,,,,,,,,
,,,,,,,,,6761134a283b8ace0b1e0345,Spanish,13 or older,"no, only English or Spanish",no,2025-07-22_20h41.35.081,empathy_intonation_perc,2024.2.4,Win32,60.60606061,6761134a283b8ace0b1e0345,687ed1b7e638a4cbf2f02089,68802f9cd16cca49356c8927,,,,,,,,,,,,,,1,,,,,,,,,,,,,,,,,,,,,,,,,,,,,,,,,,,,,,,,,,,,,,,,,,,,,,,,,85,laúd,,,,,498.1409,499.2712,1,1,0.6018,,0,48,48,84,1,REAL,FAKE,,,,,,,,,,,,,,,,,
,,,,,,,,,6761134a283b8ace0b1e0345,Spanish,13 or older,"no, only English or Spanish",no,2025-07-22_20h41.35.081,empathy_intonation_perc,2024.2.4,Win32,60.60606061,6761134a283b8ace0b1e0345,687ed1b7e638a4cbf2f02089,68802f9cd16cca49356c8927,,,,,,,,,,,,,,1,,,,,,,,,,,,,,,,,,,,,,,,,,,,,,,,,,,,,,,,,,,,,,,,,,,,,,,,,65,bizcocho,,,,,499.2723,500.6549,0,0,0.8474,,0,49,49,64,1,REAL,FAKE,,,,,,,,,,,,,,,,,
,,,,,,,,,6761134a283b8ace0b1e0345,Spanish,13 or older,"no, only English or Spanish",no,2025-07-22_20h41.35.081,empathy_intonation_perc,2024.2.4,Win32,60.60606061,6761134a283b8ace0b1e0345,687ed1b7e638a4cbf2f02089,68802f9cd16cca49356c8927,,,,,,,,,,,,,,1,,,,,,,,,,,,,,,,,,,,,,,,,,,,,,,,,,,,,,,,,,,,,,,,,,,,,,,,,48,ladrón,,,,,500.6561,502.7211,1,1,1.5365,,0,50,50,47,1,REAL,FAKE,,,,,,,,,,,,,,,,,
,,,,,,,,,6761134a283b8ace0b1e0345,Spanish,13 or older,"no, only English or Spanish",no,2025-07-22_20h41.35.081,empathy_intonation_perc,2024.2.4,Win32,60.60606061,6761134a283b8ace0b1e0345,687ed1b7e638a4cbf2f02089,68802f9cd16cca49356c8927,,,,,,,,,,,,,,1,,,,,,,,,,,,,,,,,,,,,,,,,,,,,,,,,,,,,,,,,,,,,,,,,,,,,,,,,56,musgo,,,,,502.7225,504.1379,0,0,0.8793,,0,51,51,55,1,REAL,FAKE,,,,,,,,,,,,,,,,,
,,,,,,,,,6761134a283b8ace0b1e0345,Spanish,13 or older,"no, only English or Spanish",no,2025-07-22_20h41.35.081,empathy_intonation_perc,2024.2.4,Win32,60.60606061,6761134a283b8ace0b1e0345,687ed1b7e638a4cbf2f02089,68802f9cd16cca49356c8927,,,,,,,,,,,,,,0,,,,,,,,,,,,,,,,,,,,,,,,,,,,,,,,,,,,,,,,,,,,,,,,,,,,,,,,,17,floroso,,,,,504.1395,505.6376,0,1,0.9734,,0,52,52,16,1,REAL,FAKE,,,,,,,,,,,,,,,,,
,,,,,,,,,6761134a283b8ace0b1e0345,Spanish,13 or older,"no, only English or Spanish",no,2025-07-22_20h41.35.081,empathy_intonation_perc,2024.2.4,Win32,60.60606061,6761134a283b8ace0b1e0345,687ed1b7e638a4cbf2f02089,68802f9cd16cca49356c8927,,,,,,,,,,,,,,1,,,,,,,,,,,,,,,,,,,,,,,,,,,,,,,,,,,,,,,,,,,,,,,,,,,,,,,,,90,clavel,,,,,505.6386,507.9875,0,0,1.814,,0,53,53,89,1,REAL,FAKE,,,,,,,,,,,,,,,,,
,,,,,,,,,6761134a283b8ace0b1e0345,Spanish,13 or older,"no, only English or Spanish",no,2025-07-22_20h41.35.081,empathy_intonation_perc,2024.2.4,Win32,60.60606061,6761134a283b8ace0b1e0345,687ed1b7e638a4cbf2f02089,68802f9cd16cca49356c8927,,,,,,,,,,,,,,1,,,,,,,,,,,,,,,,,,,,,,,,,,,,,,,,,,,,,,,,,,,,,,,,,,,,,,,,,55,nevar,,,,,507.9889,509.2042,1,1,0.6798,,0,54,54,54,1,REAL,FAKE,,,,,,,,,,,,,,,,,
,,,,,,,,,6761134a283b8ace0b1e0345,Spanish,13 or older,"no, only English or Spanish",no,2025-07-22_20h41.35.081,empathy_intonation_perc,2024.2.4,Win32,60.60606061,6761134a283b8ace0b1e0345,687ed1b7e638a4cbf2f02089,68802f9cd16cca49356c8927,,,,,,,,,,,,,,0,,,,,,,,,,,,,,,,,,,,,,,,,,,,,,,,,,,,,,,,,,,,,,,,,,,,,,,,,8,cadeña,,,,,509.2051,511.2875,1,0,1.5474,,0,55,55,7,1,REAL,FAKE,,,,,,,,,,,,,,,,,
,,,,,,,,,6761134a283b8ace0b1e0345,Spanish,13 or older,"no, only English or Spanish",no,2025-07-22_20h41.35.081,empathy_intonation_perc,2024.2.4,Win32,60.60606061,6761134a283b8ace0b1e0345,687ed1b7e638a4cbf2f02089,68802f9cd16cca49356c8927,,,,,,,,,,,,,,1,,,,,,,,,,,,,,,,,,,,,,,,,,,,,,,,,,,,,,,,,,,,,,,,,,,,,,,,,22,lacayo,,,,,511.289,512.7708,1,1,0.9502,,0,56,56,21,1,REAL,FAKE,,,,,,,,,,,,,,,,,
,,,,,,,,,6761134a283b8ace0b1e0345,Spanish,13 or older,"no, only English or Spanish",no,2025-07-22_20h41.35.081,empathy_intonation_perc,2024.2.4,Win32,60.60606061,6761134a283b8ace0b1e0345,687ed1b7e638a4cbf2f02089,68802f9cd16cca49356c8927,,,,,,,,,,,,,,0,,,,,,,,,,,,,,,,,,,,,,,,,,,,,,,,,,,,,,,,,,,,,,,,,,,,,,,,,92,click the 0 key.,,,,,512.7721,514.3869,0,1,1.0808,,0,57,57,91,1,REAL,FAKE,,,,,,,,,,,,,,,,,
,,,,,,,,,6761134a283b8ace0b1e0345,Spanish,13 or older,"no, only English or Spanish",no,2025-07-22_20h41.35.081,empathy_intonation_perc,2024.2.4,Win32,60.60606061,6761134a283b8ace0b1e0345,687ed1b7e638a4cbf2f02089,68802f9cd16cca49356c8927,,,,,,,,,,,,,,0,,,,,,,,,,,,,,,,,,,,,,,,,,,,,,,,,,,,,,,,,,,,,,,,,,,,,,,,,58,plaudir,,,,,514.3882,517.8703,1,0,2.9462,,0,58,58,57,1,REAL,FAKE,,,,,,,,,,,,,,,,,
,,,,,,,,,6761134a283b8ace0b1e0345,Spanish,13 or older,"no, only English or Spanish",no,2025-07-22_20h41.35.081,empathy_intonation_perc,2024.2.4,Win32,60.60606061,6761134a283b8ace0b1e0345,687ed1b7e638a4cbf2f02089,68802f9cd16cca49356c8927,,,,,,,,,,,,,,0,,,,,,,,,,,,,,,,,,,,,,,,,,,,,,,,,,,,,,,,,,,,,,,,,,,,,,,,,72,pemición,,,,,517.8716,519.2198,1,0,0.8238,,0,59,59,71,1,REAL,FAKE,,,,,,,,,,,,,,,,,
,,,,,,,,,6761134a283b8ace0b1e0345,Spanish,13 or older,"no, only English or Spanish",no,2025-07-22_20h41.35.081,empathy_intonation_perc,2024.2.4,Win32,60.60606061,6761134a283b8ace0b1e0345,687ed1b7e638a4cbf2f02089,68802f9cd16cca49356c8927,,,,,,,,,,,,,,0,,,,,,,,,,,,,,,,,,,,,,,,,,,,,,,,,,,,,,,,,,,,,,,,,,,,,,,,,50,flamida,,,,,519.2209,520.6868,0,1,0.9348,,0,60,60,49,1,REAL,FAKE,,,,,,,,,,,,,,,,,
,,,,,,,,,6761134a283b8ace0b1e0345,Spanish,13 or older,"no, only English or Spanish",no,2025-07-22_20h41.35.081,empathy_intonation_perc,2024.2.4,Win32,60.60606061,6761134a283b8ace0b1e0345,687ed1b7e638a4cbf2f02089,68802f9cd16cca49356c8927,,,,,,,,,,,,,,1,,,,,,,,,,,,,,,,,,,,,,,,,,,,,,,,,,,,,,,,,,,,,,,,,,,,,,,,,26,secuestro,,,,,520.6883,522.5363,1,1,1.3148,,0,61,61,25,1,REAL,FAKE,,,,,,,,,,,,,,,,,
,,,,,,,,,6761134a283b8ace0b1e0345,Spanish,13 or older,"no, only English or Spanish",no,2025-07-22_20h41.35.081,empathy_intonation_perc,2024.2.4,Win32,60.60606061,6761134a283b8ace0b1e0345,687ed1b7e638a4cbf2f02089,68802f9cd16cca49356c8927,,,,,,,,,,,,,,1,,,,,,,,,,,,,,,,,,,,,,,,,,,,,,,,,,,,,,,,,,,,,,,,,,,,,,,,,37,granuja,,,,,522.5372,524.0865,1,1,1.0135,,0,62,62,36,1,REAL,FAKE,,,,,,,,,,,,,,,,,
,,,,,,,,,6761134a283b8ace0b1e0345,Spanish,13 or older,"no, only English or Spanish",no,2025-07-22_20h41.35.081,empathy_intonation_perc,2024.2.4,Win32,60.60606061,6761134a283b8ace0b1e0345,687ed1b7e638a4cbf2f02089,68802f9cd16cca49356c8927,,,,,,,,,,,,,,0,,,,,,,,,,,,,,,,,,,,,,,,,,,,,,,,,,,,,,,,,,,,,,,,,,,,,,,,,70,temblo,,,,,524.0876,525.4862,0,1,0.8691,,0,63,63,69,1,REAL,FAKE,,,,,,,,,,,,,,,,,
,,,,,,,,,6761134a283b8ace0b1e0345,Spanish,13 or older,"no, only English or Spanish",no,2025-07-22_20h41.35.081,empathy_intonation_perc,2024.2.4,Win32,60.60606061,6761134a283b8ace0b1e0345,687ed1b7e638a4cbf2f02089,68802f9cd16cca49356c8927,,,,,,,,,,,,,,1,,,,,,,,,,,,,,,,,,,,,,,,,,,,,,,,,,,,,,,,,,,,,,,,,,,,,,,,,91,click the 1 key.,,,,,525.4878,526.7027,1,1,0.6804,,0,64,64,90,1,REAL,FAKE,,,,,,,,,,,,,,,,,
,,,,,,,,,6761134a283b8ace0b1e0345,Spanish,13 or older,"no, only English or Spanish",no,2025-07-22_20h41.35.081,empathy_intonation_perc,2024.2.4,Win32,60.60606061,6761134a283b8ace0b1e0345,687ed1b7e638a4cbf2f02089,68802f9cd16cca49356c8927,,,,,,,,,,,,,,1,,,,,,,,,,,,,,,,,,,,,,,,,,,,,,,,,,,,,,,,,,,,,,,,,,,,,,,,,88,acantilado,,,,,526.7036,528.5858,0,0,1.3463,,0,65,65,87,1,REAL,FAKE,,,,,,,,,,,,,,,,,
,,,,,,,,,6761134a283b8ace0b1e0345,Spanish,13 or older,"no, only English or Spanish",no,2025-07-22_20h41.35.081,empathy_intonation_perc,2024.2.4,Win32,60.60606061,6761134a283b8ace0b1e0345,687ed1b7e638a4cbf2f02089,68802f9cd16cca49356c8927,,,,,,,,,,,,,,1,,,,,,,,,,,,,,,,,,,,,,,,,,,,,,,,,,,,,,,,,,,,,,,,,,,,,,,,,14,yunque,,,,,528.5869,529.8695,0,0,0.7476,,0,66,66,13,1,REAL,FAKE,,,,,,,,,,,,,,,,,
,,,,,,,,,6761134a283b8ace0b1e0345,Spanish,13 or older,"no, only English or Spanish",no,2025-07-22_20h41.35.081,empathy_intonation_perc,2024.2.4,Win32,60.60606061,6761134a283b8ace0b1e0345,687ed1b7e638a4cbf2f02089,68802f9cd16cca49356c8927,,,,,,,,,,,,,,1,,,,,,,,,,,,,,,,,,,,,,,,,,,,,,,,,,,,,,,,,,,,,,,,,,,,,,,,,34,aviso,,,,,529.8705,531.2691,0,0,0.8652,,0,67,67,33,1,REAL,FAKE,,,,,,,,,,,,,,,,,
,,,,,,,,,6761134a283b8ace0b1e0345,Spanish,13 or older,"no, only English or Spanish",no,2025-07-22_20h41.35.081,empathy_intonation_perc,2024.2.4,Win32,60.60606061,6761134a283b8ace0b1e0345,687ed1b7e638a4cbf2f02089,68802f9cd16cca49356c8927,,,,,,,,,,,,,,0,,,,,,,,,,,,,,,,,,,,,,,,,,,,,,,,,,,,,,,,,,,,,,,,,,,,,,,,,47,cartinar,,,,,531.2702,532.9859,0,1,1.1872,,0,68,68,46,1,REAL,FAKE,,,,,,,,,,,,,,,,,
,,,,,,,,,6761134a283b8ace0b1e0345,Spanish,13 or older,"no, only English or Spanish",no,2025-07-22_20h41.35.081,empathy_intonation_perc,2024.2.4,Win32,60.60606061,6761134a283b8ace0b1e0345,687ed1b7e638a4cbf2f02089,68802f9cd16cca49356c8927,,,,,,,,,,,,,,1,,,,,,,,,,,,,,,,,,,,,,,,,,,,,,,,,,,,,,,,,,,,,,,,,,,,,,,,,76,atar,,,,,532.9871,534.4692,1,1,0.9487,,0,69,69,75,1,REAL,FAKE,,,,,,,,,,,,,,,,,
,,,,,,,,,6761134a283b8ace0b1e0345,Spanish,13 or older,"no, only English or Spanish",no,2025-07-22_20h41.35.081,empathy_intonation_perc,2024.2.4,Win32,60.60606061,6761134a283b8ace0b1e0345,687ed1b7e638a4cbf2f02089,68802f9cd16cca49356c8927,,,,,,,,,,,,,,1,,,,,,,,,,,,,,,,,,,,,,,,,,,,,,,,,,,,,,,,,,,,,,,,,,,,,,,,,81,pozo,,,,,534.4703,535.8354,1,1,0.8334,,0,70,70,80,1,REAL,FAKE,,,,,,,,,,,,,,,,,
,,,,,,,,,6761134a283b8ace0b1e0345,Spanish,13 or older,"no, only English or Spanish",no,2025-07-22_20h41.35.081,empathy_intonation_perc,2024.2.4,Win32,60.60606061,6761134a283b8ace0b1e0345,687ed1b7e638a4cbf2f02089,68802f9cd16cca49356c8927,,,,,,,,,,,,,,1,,,,,,,,,,,,,,,,,,,,,,,,,,,,,,,,,,,,,,,,,,,,,,,,,,,,,,,,,54,fomentar,,,,,535.8365,537.4353,1,1,1.0652,,0,71,71,53,1,REAL,FAKE,,,,,,,,,,,,,,,,,
,,,,,,,,,6761134a283b8ace0b1e0345,Spanish,13 or older,"no, only English or Spanish",no,2025-07-22_20h41.35.081,empathy_intonation_perc,2024.2.4,Win32,60.60606061,6761134a283b8ace0b1e0345,687ed1b7e638a4cbf2f02089,68802f9cd16cca49356c8927,,,,,,,,,,,,,,1,,,,,,,,,,,,,,,,,,,,,,,,,,,,,,,,,,,,,,,,,,,,,,,,,,,,,,,,,68,alegre,,,,,537.4366,538.9185,1,1,0.9533,,0,72,72,67,1,REAL,FAKE,,,,,,,,,,,,,,,,,
,,,,,,,,,6761134a283b8ace0b1e0345,Spanish,13 or older,"no, only English or Spanish",no,2025-07-22_20h41.35.081,empathy_intonation_perc,2024.2.4,Win32,60.60606061,6761134a283b8ace0b1e0345,687ed1b7e638a4cbf2f02089,68802f9cd16cca49356c8927,,,,,,,,,,,,,,1,,,,,,,,,,,,,,,,,,,,,,,,,,,,,,,,,,,,,,,,,,,,,,,,,,,,,,,,,2,pellizcar,,,,,538.9196,540.4016,0,0,0.9528,,0,73,73,1,1,REAL,FAKE,,,,,,,,,,,,,,,,,
,,,,,,,,,6761134a283b8ace0b1e0345,Spanish,13 or older,"no, only English or Spanish",no,2025-07-22_20h41.35.081,empathy_intonation_perc,2024.2.4,Win32,60.60606061,6761134a283b8ace0b1e0345,687ed1b7e638a4cbf2f02089,68802f9cd16cca49356c8927,,,,,,,,,,,,,,1,,,,,,,,,,,,,,,,,,,,,,,,,,,,,,,,,,,,,,,,,,,,,,,,,,,,,,,,,69,engatusar,,,,,540.4027,541.9019,0,0,0.9646,,0,74,74,68,1,REAL,FAKE,,,,,,,,,,,,,,,,,
,,,,,,,,,6761134a283b8ace0b1e0345,Spanish,13 or older,"no, only English or Spanish",no,2025-07-22_20h41.35.081,empathy_intonation_perc,2024.2.4,Win32,60.60606061,6761134a283b8ace0b1e0345,687ed1b7e638a4cbf2f02089,68802f9cd16cca49356c8927,,,,,,,,,,,,,,0,,,,,,,,,,,,,,,,,,,,,,,,,,,,,,,,,,,,,,,,,,,,,,,,,,,,,,,,,66,hacido,,,,,541.9035,543.2515,1,0,0.8213,,0,75,75,65,1,REAL,FAKE,,,,,,,,,,,,,,,,,
,,,,,,,,,6761134a283b8ace0b1e0345,Spanish,13 or older,"no, only English or Spanish",no,2025-07-22_20h41.35.081,empathy_intonation_perc,2024.2.4,Win32,60.60606061,6761134a283b8ace0b1e0345,687ed1b7e638a4cbf2f02089,68802f9cd16cca49356c8927,,,,,,,,,,,,,,1,,,,,,,,,,,,,,,,,,,,,,,,,,,,,,,,,,,,,,,,,,,,,,,,,,,,,,,,,51,candado,,,,,543.2524,545.9516,1,1,2.1649,,0,76,76,50,1,REAL,FAKE,,,,,,,,,,,,,,,,,
,,,,,,,,,6761134a283b8ace0b1e0345,Spanish,13 or older,"no, only English or Spanish",no,2025-07-22_20h41.35.081,empathy_intonation_perc,2024.2.4,Win32,60.60606061,6761134a283b8ace0b1e0345,687ed1b7e638a4cbf2f02089,68802f9cd16cca49356c8927,,,,,,,,,,,,,,1,,,,,,,,,,,,,,,,,,,,,,,,,,,,,,,,,,,,,,,,,,,,,,,,,,,,,,,,,39,torpe,,,,,545.953,547.3678,0,0,0.8858,,0,77,77,38,1,REAL,FAKE,,,,,,,,,,,,,,,,,
,,,,,,,,,6761134a283b8ace0b1e0345,Spanish,13 or older,"no, only English or Spanish",no,2025-07-22_20h41.35.081,empathy_intonation_perc,2024.2.4,Win32,60.60606061,6761134a283b8ace0b1e0345,687ed1b7e638a4cbf2f02089,68802f9cd16cca49356c8927,,,,,,,,,,,,,,1,,,,,,,,,,,,,,,,,,,,,,,,,,,,,,,,,,,,,,,,,,,,,,,,,,,,,,,,,80,hormiga,,,,,547.3688,548.7514,1,1,0.85,,0,78,78,79,1,REAL,FAKE,,,,,,,,,,,,,,,,,
,,,,,,,,,6761134a283b8ace0b1e0345,Spanish,13 or older,"no, only English or Spanish",no,2025-07-22_20h41.35.081,empathy_intonation_perc,2024.2.4,Win32,60.60606061,6761134a283b8ace0b1e0345,687ed1b7e638a4cbf2f02089,68802f9cd16cca49356c8927,,,,,,,,,,,,,,1,,,,,,,,,,,,,,,,,,,,,,,,,,,,,,,,,,,,,,,,,,,,,,,,,,,,,,,,,5,zapato,,,,,548.7529,550.251,1,1,0.9642,,0,79,79,4,1,REAL,FAKE,,,,,,,,,,,,,,,,,
,,,,,,,,,6761134a283b8ace0b1e0345,Spanish,13 or older,"no, only English or Spanish",no,2025-07-22_20h41.35.081,empathy_intonation_perc,2024.2.4,Win32,60.60606061,6761134a283b8ace0b1e0345,687ed1b7e638a4cbf2f02089,68802f9cd16cca49356c8927,,,,,,,,,,,,,,0,,,,,,,,,,,,,,,,,,,,,,,,,,,,,,,,,,,,,,,,,,,,,,,,,,,,,,,,,30,alardio,,,,,550.252,551.7507,0,1,0.9641,,0,80,80,29,1,REAL,FAKE,,,,,,,,,,,,,,,,,
,,,,,,,,,6761134a283b8ace0b1e0345,Spanish,13 or older,"no, only English or Spanish",no,2025-07-22_20h41.35.081,empathy_intonation_perc,2024.2.4,Win32,60.60606061,6761134a283b8ace0b1e0345,687ed1b7e638a4cbf2f02089,68802f9cd16cca49356c8927,,,,,,,,,,,,,,1,,,,,,,,,,,,,,,,,,,,,,,,,,,,,,,,,,,,,,,,,,,,,,,,,,,,,,,,,62,flaco,,,,,551.7523,553.4511,0,0,1.17,,0,81,81,61,1,REAL,FAKE,,,,,,,,,,,,,,,,,
,,,,,,,,,6761134a283b8ace0b1e0345,Spanish,13 or older,"no, only English or Spanish",no,2025-07-22_20h41.35.081,empathy_intonation_perc,2024.2.4,Win32,60.60606061,6761134a283b8ace0b1e0345,687ed1b7e638a4cbf2f02089,68802f9cd16cca49356c8927,,,,,,,,,,,,,,1,,,,,,,,,,,,,,,,,,,,,,,,,,,,,,,,,,,,,,,,,,,,,,,,,,,,,,,,,61,seda,,,,,553.4525,554.8842,1,1,0.9001,,0,82,82,60,1,REAL,FAKE,,,,,,,,,,,,,,,,,
,,,,,,,,,6761134a283b8ace0b1e0345,Spanish,13 or older,"no, only English or Spanish",no,2025-07-22_20h41.35.081,empathy_intonation_perc,2024.2.4,Win32,60.60606061,6761134a283b8ace0b1e0345,687ed1b7e638a4cbf2f02089,68802f9cd16cca49356c8927,,,,,,,,,,,,,,1,,,,,,,,,,,,,,,,,,,,,,,,,,,,,,,,,,,,,,,,,,,,,,,,,,,,,,,,,11,cenefa,,,,,554.8856,556.1673,0,0,0.7528,,0,83,83,10,1,REAL,FAKE,,,,,,,,,,,,,,,,,
,,,,,,,,,6761134a283b8ace0b1e0345,Spanish,13 or older,"no, only English or Spanish",no,2025-07-22_20h41.35.081,empathy_intonation_perc,2024.2.4,Win32,60.60606061,6761134a283b8ace0b1e0345,687ed1b7e638a4cbf2f02089,68802f9cd16cca49356c8927,,,,,,,,,,,,,,1,,,,,,,,,,,,,,,,,,,,,,,,,,,,,,,,,,,,,,,,,,,,,,,,,,,,,,,,,43,canela,,,,,556.1684,557.5673,0,0,0.8656,,0,84,84,42,1,REAL,FAKE,,,,,,,,,,,,,,,,,
,,,,,,,,,6761134a283b8ace0b1e0345,Spanish,13 or older,"no, only English or Spanish",no,2025-07-22_20h41.35.081,empathy_intonation_perc,2024.2.4,Win32,60.60606061,6761134a283b8ace0b1e0345,687ed1b7e638a4cbf2f02089,68802f9cd16cca49356c8927,,,,,,,,,,,,,,1,,,,,,,,,,,,,,,,,,,,,,,,,,,,,,,,,,,,,,,,,,,,,,,,,,,,,,,,,12,asesinato,,,,,557.5689,558.8505,0,0,0.7467,,0,85,85,11,1,REAL,FAKE,,,,,,,,,,,,,,,,,
,,,,,,,,,6761134a283b8ace0b1e0345,Spanish,13 or older,"no, only English or Spanish",no,2025-07-22_20h41.35.081,empathy_intonation_perc,2024.2.4,Win32,60.60606061,6761134a283b8ace0b1e0345,687ed1b7e638a4cbf2f02089,68802f9cd16cca49356c8927,,,,,,,,,,,,,,1,,,,,,,,,,,,,,,,,,,,,,,,,,,,,,,,,,,,,,,,,,,,,,,,,,,,,,,,,75,yacer,,,,,558.8515,560.2835,0,0,0.9074,,0,86,86,74,1,REAL,FAKE,,,,,,,,,,,,,,,,,
,,,,,,,,,6761134a283b8ace0b1e0345,Spanish,13 or older,"no, only English or Spanish",no,2025-07-22_20h41.35.081,empathy_intonation_perc,2024.2.4,Win32,60.60606061,6761134a283b8ace0b1e0345,687ed1b7e638a4cbf2f02089,68802f9cd16cca49356c8927,,,,,,,,,,,,,,1,,,,,,,,,,,,,,,,,,,,,,,,,,,,,,,,,,,,,,,,,,,,,,,,,,,,,,,,,3,pulmones,,,,,560.2845,562.3171,1,1,1.5,,0,87,87,2,1,REAL,FAKE,,,,,,,,,,,,,,,,,
,,,,,,,,,6761134a283b8ace0b1e0345,Spanish,13 or older,"no, only English or Spanish",no,2025-07-22_20h41.35.081,empathy_intonation_perc,2024.2.4,Win32,60.60606061,6761134a283b8ace0b1e0345,687ed1b7e638a4cbf2f02089,68802f9cd16cca49356c8927,,,,,,,,,,,,,,0,,,,,,,,,,,,,,,,,,,,,,,,,,,,,,,,,,,,,,,,,,,,,,,,,,,,,,,,,63,esposante,,,,,562.3185,564.0667,0,1,1.2141,,0,88,88,62,1,REAL,FAKE,,,,,,,,,,,,,,,,,
,,,,,,,,,6761134a283b8ace0b1e0345,Spanish,13 or older,"no, only English or Spanish",no,2025-07-22_20h41.35.081,empathy_intonation_perc,2024.2.4,Win32,60.60606061,6761134a283b8ace0b1e0345,687ed1b7e638a4cbf2f02089,68802f9cd16cca49356c8927,,,,,,,,,,,,,,0,,,,,,,,,,,,,,,,,,,,,,,,,,,,,,,,,,,,,,,,,,,,,,,,,,,,,,,,,32,fatacidad,,,,,564.0681,565.4831,0,1,0.8825,,0,89,89,31,1,REAL,FAKE,,,,,,,,,,,,,,,,,
,,,,,,,,,6761134a283b8ace0b1e0345,Spanish,13 or older,"no, only English or Spanish",no,2025-07-22_20h41.35.081,empathy_intonation_perc,2024.2.4,Win32,60.60606061,6761134a283b8ace0b1e0345,687ed1b7e638a4cbf2f02089,68802f9cd16cca49356c8927,,,,,,,,,,,,,,1,,,,,,,,,,,,,,,,,,,,,,,,,,,,,,,,,,,,,,,,,,,,,,,,,,,,,,,,,78,frondoso,,,,,565.4841,567.1163,0,0,1.1038,,0,90,90,77,1,REAL,FAKE,,,,,,,,,,,,,,,,,
,,,,,,,,,6761134a283b8ace0b1e0345,Spanish,13 or older,"no, only English or Spanish",no,2025-07-22_20h41.35.081,empathy_intonation_perc,2024.2.4,Win32,60.60606061,6761134a283b8ace0b1e0345,687ed1b7e638a4cbf2f02089,68802f9cd16cca49356c8927,,,,,,,,,,,,,,0,,,,,,,,,,,,,,,,,,,,,,,,,,,,,,,,,,,,,,,,,,,,,,,,,,,,,,,,,35,rompido,,,,,567.1175,568.2331,0,1,0.588,,0,91,91,34,1,REAL,FAKE,,,,,,,,,,,,,,,,,
,,,,,,,,,6761134a283b8ace0b1e0345,Spanish,13 or older,"no, only English or Spanish",no,2025-07-22_20h41.35.081,empathy_intonation_perc,2024.2.4,Win32,60.60606061,6761134a283b8ace0b1e0345,687ed1b7e638a4cbf2f02089,68802f9cd16cca49356c8927,,,,,,,,,,,,,,,,,,,,,,,,,,,,,,,,,,,,,,,,,,,,,,,,,,,,,,,,,,,,,,,,,,,,,,,,,,,,,,,,,,,,,,,,,,568.2335,571.8001,,,,,,,,,,,,,,,
,,,,,,,,,6761134a283b8ace0b1e0345,Spanish,13 or older,"no, only English or Spanish",no,2025-07-22_20h41.35.081,empathy_intonation_perc,2024.2.4,Win32,60.60606061,6761134a283b8ace0b1e0345,687ed1b7e638a4cbf2f02089,68802f9cd16cca49356c8927,,,,,,,,,,,,,1,,,,,,,,,,,,,,,,,,,,,,,,,,,,,,,,,,,,,,,,,,,,,,,,,,,,,,,,,,,,,,,,,,,,,,,,,,,,,,,571.8106,576.1495,slightly agree,0,0,0,0,1,I can easily tell if someone else wants to enter a conversation.,1,0,1,0,,
,,,,,,,,,6761134a283b8ace0b1e0345,Spanish,13 or older,"no, only English or Spanish",no,2025-07-22_20h41.35.081,empathy_intonation_perc,2024.2.4,Win32,60.60606061,6761134a283b8ace0b1e0345,687ed1b7e638a4cbf2f02089,68802f9cd16cca49356c8927,,,,,,,,,,,,,2,,,,,,,,,,,,,,,,,,,,,,,,,,,,,,,,,,,,,,,,,,,,,,,,,,,,,,,,,,,,,,,,,,,,,,,,,,,,,,,576.1518,579.5322,strongly disagree,0,1,1,1,1,I prefer animals to humans.,0,1,0,0,,
,,,,,,,,,6761134a283b8ace0b1e0345,Spanish,13 or older,"no, only English or Spanish",no,2025-07-22_20h41.35.081,empathy_intonation_perc,2024.2.4,Win32,60.60606061,6761134a283b8ace0b1e0345,687ed1b7e638a4cbf2f02089,68802f9cd16cca49356c8927,,,,,,,,,,,,,3,,,,,,,,,,,,,,,,,,,,,,,,,,,,,,,,,,,,,,,,,,,,,,,,,,,,,,,,,,,,,,,,,,,,,,,,,,,,,,,579.5349,582.5988,strongly disagree,0,2,2,2,1,I try to keep up with the current trends and fashions.,0,1,0,0,,
,,,,,,,,,6761134a283b8ace0b1e0345,Spanish,13 or older,"no, only English or Spanish",no,2025-07-22_20h41.35.081,empathy_intonation_perc,2024.2.4,Win32,60.60606061,6761134a283b8ace0b1e0345,687ed1b7e638a4cbf2f02089,68802f9cd16cca49356c8927,,,,,,,,,,,,,4,,,,,,,,,,,,,,,,,,,,,,,,,,,,,,,,,,,,,,,,,,,,,,,,,,,,,,,,,,,,,,,,,,,,,,,,,,,,,,,582.6016,586.1027,slightly disagree,0,3,3,3,1,"I find it difficult to explain to others things that I understand easily,   when they don't understand it first time.",1,0,0,1,,
,,,,,,,,,6761134a283b8ace0b1e0345,Spanish,13 or older,"no, only English or Spanish",no,2025-07-22_20h41.35.081,empathy_intonation_perc,2024.2.4,Win32,60.60606061,6761134a283b8ace0b1e0345,687ed1b7e638a4cbf2f02089,68802f9cd16cca49356c8927,,,,,,,,,,,,,5,,,,,,,,,,,,,,,,,,,,,,,,,,,,,,,,,,,,,,,,,,,,,,,,,,,,,,,,,,,,,,,,,,,,,,,,,,,,,,,586.104,587.6818,slightly disagree,0,4,4,4,1,I dream most nights.,0,1,0,0,,
,,,,,,,,,6761134a283b8ace0b1e0345,Spanish,13 or older,"no, only English or Spanish",no,2025-07-22_20h41.35.081,empathy_intonation_perc,2024.2.4,Win32,60.60606061,6761134a283b8ace0b1e0345,687ed1b7e638a4cbf2f02089,68802f9cd16cca49356c8927,,,,,,,,,,,,,6,,,,,,,,,,,,,,,,,,,,,,,,,,,,,,,,,,,,,,,,,,,,,,,,,,,,,,,,,,,,,,,,,,,,,,,,,,,,,,,587.6841,589.6818,slightly agree,0,5,5,5,1,I really enjoy caring for other people.,1,0,1,0,,
,,,,,,,,,6761134a283b8ace0b1e0345,Spanish,13 or older,"no, only English or Spanish",no,2025-07-22_20h41.35.081,empathy_intonation_perc,2024.2.4,Win32,60.60606061,6761134a283b8ace0b1e0345,687ed1b7e638a4cbf2f02089,68802f9cd16cca49356c8927,,,,,,,,,,,,,7,,,,,,,,,,,,,,,,,,,,,,,,,,,,,,,,,,,,,,,,,,,,,,,,,,,,,,,,,,,,,,,,,,,,,,,,,,,,,,,589.6844,593.1658,slightly agree,0,6,6,6,1,I try to solve my own problems rather than discussing them with others.,0,1,0,0,,
,,,,,,,,,6761134a283b8ace0b1e0345,Spanish,13 or older,"no, only English or Spanish",no,2025-07-22_20h41.35.081,empathy_intonation_perc,2024.2.4,Win32,60.60606061,6761134a283b8ace0b1e0345,687ed1b7e638a4cbf2f02089,68802f9cd16cca49356c8927,,,,,,,,,,,,,8,,,,,,,,,,,,,,,,,,,,,,,,,,,,,,,,,,,,,,,,,,,,,,,,,,,,,,,,,,,,,,,,,,,,,,,,,,,,,,,593.1676,596.1312,slightly disagree,0,7,7,7,1,I find it hard to know what to do in a social situation.,1,0,0,1,,
,,,,,,,,,6761134a283b8ace0b1e0345,Spanish,13 or older,"no, only English or Spanish",no,2025-07-22_20h41.35.081,empathy_intonation_perc,2024.2.4,Win32,60.60606061,6761134a283b8ace0b1e0345,687ed1b7e638a4cbf2f02089,68802f9cd16cca49356c8927,,,,,,,,,,,,,9,,,,,,,,,,,,,,,,,,,,,,,,,,,,,,,,,,,,,,,,,,,,,,,,,,,,,,,,,,,,,,,,,,,,,,,,,,,,,,,596.1334,601.1188,slightly disagree,0,8,8,8,1,I am at my best first thing in the morning.,0,1,0,0,,
,,,,,,,,,6761134a283b8ace0b1e0345,Spanish,13 or older,"no, only English or Spanish",no,2025-07-22_20h41.35.081,empathy_intonation_perc,2024.2.4,Win32,60.60606061,6761134a283b8ace0b1e0345,687ed1b7e638a4cbf2f02089,68802f9cd16cca49356c8927,,,,,,,,,,,,,10,,,,,,,,,,,,,,,,,,,,,,,,,,,,,,,,,,,,,,,,,,,,,,,,,,,,,,,,,,,,,,,,,,,,,,,,,,,,,,,601.1204,605.8519,slightly disagree,0,9,9,9,1,People often tell me that I went too far in driving my point home in a discussion.,1,0,0,1,,
