instructions_exposure.started,instructions_exposure.stopped,instructions_exposure_loop.thisRepN,instructions_exposure_loop.thisTrialN,instructions_exposure_loop.thisN,instructions_exposure_loop.thisIndex,instructions_exposure_loop.ran,instructions_text,continue_text,participant_id,"What variety of Spanish are you most familiar with? (e.g., Peruvian, Spanish, Mexican)",At what age did you begin learning Spanish?,Are you proficient in any languages other than English/Spanish?,"Are you familiar with Caribbean (e.g., Caribbean, Puerto Rican) or Galician Spanish?",date,expName,psychopyVersion,OS,frameRate,id,study_id,session,trial_exposure.started,trial_exposure.stopped,key_resp_exposure.keys,key_resp_exposure.corr,key_resp_exposure.rt,key_resp_exposure.duration,key_resp.keys,exposure_loop.thisRepN,exposure_loop.thisTrialN,exposure_loop.thisN,exposure_loop.thisIndex,exposure_loop.ran,item_num,correct_response,question,path,duration,instructions_2afc.started,instructions_2afc.stopped,instructions_2afc_loop.thisRepN,instructions_2afc_loop.thisTrialN,instructions_2afc_loop.thisN,instructions_2afc_loop.thisIndex,instructions_2afc_loop.ran,practice_2afc.started,practice_2afc.stopped,key_resp_2afc_practice.keys,key_resp_2afc_practice.corr,key_resp_2afc_practice.rt,key_resp_2afc_practice.duration,trials_2afc_practice_loop.thisRepN,trials_2afc_practice_loop.thisTrialN,trials_2afc_practice_loop.thisN,trials_2afc_practice_loop.thisIndex,trials_2afc_practice_loop.ran,check_2afc.started,check_2afc.stopped,trial_2afc.started,trial_2afc.stopped,key_resp_2afc_trial.keys,key_resp_2afc_trial.corr,key_resp_2afc_trial.rt,key_resp_2afc_trial.duration,trials_2afc_loop.thisRepN,trials_2afc_loop.thisTrialN,trials_2afc_loop.thisN,trials_2afc_loop.thisIndex,trials_2afc_loop.ran,target,variety,instructions_lextale.started,instructions_lextale.stopped,instructions_lextale_loop.thisRepN,instructions_lextale_loop.thisTrialN,instructions_lextale_loop.thisN,instructions_lextale_loop.thisIndex,instructions_lextale_loop.ran,practice_lextale.started,practice_lextale.stopped,key_resp_lextale_practice.keys,key_resp_lextale_practice.corr,key_resp_lextale_practice.rt,key_resp_lextale_practice.duration,practice_feedback_lextale.started,practice_feedback_lextale.stopped,trials_lextale_practice_loop.thisRepN,trials_lextale_practice_loop.thisTrialN,trials_lextale_practice_loop.thisN,trials_lextale_practice_loop.thisIndex,trials_lextale_practice_loop.ran,stim,word,prac_button_real,prac_button_false,check_lextale.started,check_lextale.stopped,trial_lextale.started,trial_lextale.stopped,key_resp_lextale_trial.keys,key_resp_lextale_trial.corr,key_resp_lextale_trial.rt,key_resp_lextale_trial.duration,trials_lextale_loop.thisRepN,trials_lextale_loop.thisTrialN,trials_lextale_loop.thisN,trials_lextale_loop.thisIndex,trials_lextale_loop.ran,button_real,button_false,instructions_eq.started,instructions_eq.stopped,trial_eq.started,trial_eq.stopped,slider_eq_trial.response,trials_eq_loop.thisRepN,trials_eq_loop.thisTrialN,trials_eq_loop.thisN,trials_eq_loop.thisIndex,trials_eq_loop.ran,item,is_test_item,is_distractor,is_agree_score,is_disagree_score,end_exp.started,end_exp.stopped
0.007,4.121,0,0,0,0,1,"In the following task, you are going to hear a series of conversations.", (press the space bar to continue),6784863a028ac25ee3f395ee,Spanish,13 or older,"no, only English or Spanish",no,2025-07-22_21h09.36.696,empathy_intonation_perc,2024.2.4,Win32,120.1923077,6784863a028ac25ee3f395ee,687ed1b7e638a4cbf2f02089,6880362662d8a648d7c2b5e6,,,,,,,,,,,,,,,,,,,,,,,,,,,,,,,,,,,,,,,,,,,,,,,,,,,,,,,,,,,,,,,,,,,,,,,,,,,,,,,,,,,,,,,,,,,,,,,,,,,,,,,,,,
4.121,5.791,0,1,1,1,1,It is okay if you don't not 100% understand them!, (press the space bar to continue),6784863a028ac25ee3f395ee,Spanish,13 or older,"no, only English or Spanish",no,2025-07-22_21h09.36.696,empathy_intonation_perc,2024.2.4,Win32,120.1923077,6784863a028ac25ee3f395ee,687ed1b7e638a4cbf2f02089,6880362662d8a648d7c2b5e6,,,,,,,,,,,,,,,,,,,,,,,,,,,,,,,,,,,,,,,,,,,,,,,,,,,,,,,,,,,,,,,,,,,,,,,,,,,,,,,,,,,,,,,,,,,,,,,,,,,,,,,,,,
5.792,12.567,0,2,2,2,1,"After, you will read a sentence about the conversation and decide if it's true or false.", (press the space bar to continue),6784863a028ac25ee3f395ee,Spanish,13 or older,"no, only English or Spanish",no,2025-07-22_21h09.36.696,empathy_intonation_perc,2024.2.4,Win32,120.1923077,6784863a028ac25ee3f395ee,687ed1b7e638a4cbf2f02089,6880362662d8a648d7c2b5e6,,,,,,,,,,,,,,,,,,,,,,,,,,,,,,,,,,,,,,,,,,,,,,,,,,,,,,,,,,,,,,,,,,,,,,,,,,,,,,,,,,,,,,,,,,,,,,,,,,,,,,,,,,
12.568,14.747,0,3,3,3,1,"If it's true, press '1' (True) and if it's false press '0' (False).", (press the space bar to continue),6784863a028ac25ee3f395ee,Spanish,13 or older,"no, only English or Spanish",no,2025-07-22_21h09.36.696,empathy_intonation_perc,2024.2.4,Win32,120.1923077,6784863a028ac25ee3f395ee,687ed1b7e638a4cbf2f02089,6880362662d8a648d7c2b5e6,,,,,,,,,,,,,,,,,,,,,,,,,,,,,,,,,,,,,,,,,,,,,,,,,,,,,,,,,,,,,,,,,,,,,,,,,,,,,,,,,,,,,,,,,,,,,,,,,,,,,,,,,,
,,,,,,,,,6784863a028ac25ee3f395ee,Spanish,13 or older,"no, only English or Spanish",no,2025-07-22_21h09.36.696,empathy_intonation_perc,2024.2.4,Win32,120.1923077,6784863a028ac25ee3f395ee,687ed1b7e638a4cbf2f02089,6880362662d8a648d7c2b5e6,14.753,80.658,1,1,5.837,,,0,0,0,1,1,2,1,The mom asked the daughter if she already went to the supermarket.,./stim/exposure_wavs/dr_stimuli_convo.wav,60,,,,,,,,,,,,,,,,,,,,,,,,,,,,,,,,,,,,,,,,,,,,,,,,,,,,,,,,,,,,,,,,,,,,,,,,,,,,,,,,,,,,,,,,,
,,,,,,,,,6784863a028ac25ee3f395ee,Spanish,13 or older,"no, only English or Spanish",no,2025-07-22_21h09.36.696,empathy_intonation_perc,2024.2.4,Win32,120.1923077,6784863a028ac25ee3f395ee,687ed1b7e638a4cbf2f02089,6880362662d8a648d7c2b5e6,80.663,135.905,0,0,8.193,,,0,1,1,0,1,1,1,The son asked the mom if Aunt Marina is okay.,./stim/exposure_wavs/ga_stimuli_convo.wav,47,,,,,,,,,,,,,,,,,,,,,,,,,,,,,,,,,,,,,,,,,,,,,,,,,,,,,,,,,,,,,,,,,,,,,,,,,,,,,,,,,,,,,,,,,
,,,,,,,,,6784863a028ac25ee3f395ee,Spanish,13 or older,"no, only English or Spanish",no,2025-07-22_21h09.36.696,empathy_intonation_perc,2024.2.4,Win32,120.1923077,6784863a028ac25ee3f395ee,687ed1b7e638a4cbf2f02089,6880362662d8a648d7c2b5e6,135.909,179.164,0,1,7.221,,,0,2,2,2,1,3,0,The mom already has rice.,./stim/exposure_wavs/pr_stimuli_convo.wav,36,,,,,,,,,,,,,,,,,,,,,,,,,,,,,,,,,,,,,,,,,,,,,,,,,,,,,,,,,,,,,,,,,,,,,,,,,,,,,,,,,,,,,,,,,
,,,,,,,"In the following task you are going to hear a series of utterances. 

  You will decide if the utterances sound like questions or not using your keyboard.", (press the spacebar to continue),6784863a028ac25ee3f395ee,Spanish,13 or older,"no, only English or Spanish",no,2025-07-22_21h09.36.696,empathy_intonation_perc,2024.2.4,Win32,120.1923077,6784863a028ac25ee3f395ee,687ed1b7e638a4cbf2f02089,6880362662d8a648d7c2b5e6,,,,,,,,,,,,,,,,,,179.174,188.841,0,0,0,0,1,,,,,,,,,,,,,,,,,,,,,,,,,,,,,,,,,,,,,,,,,,,,,,,,,,,,,,,,,,,,,,,,,,,,,,,,,,,,,,,,,,
,,,,,,,"If you believe the utterance is a question, type '1' (for 'yes') and if you do not 
  believe it is a question type '0' (for 'no').

  Let's practice a bit...", (press the spacebar to continue),6784863a028ac25ee3f395ee,Spanish,13 or older,"no, only English or Spanish",no,2025-07-22_21h09.36.696,empathy_intonation_perc,2024.2.4,Win32,120.1923077,6784863a028ac25ee3f395ee,687ed1b7e638a4cbf2f02089,6880362662d8a648d7c2b5e6,,,,,,,,,,,,,,,,,,188.844,196.12,0,1,1,1,1,,,,,,,,,,,,,,,,,,,,,,,,,,,,,,,,,,,,,,,,,,,,,,,,,,,,,,,,,,,,,,,,,,,,,,,,,,,,,,,,,,
,,,,,,,,,6784863a028ac25ee3f395ee,Spanish,13 or older,"no, only English or Spanish",no,2025-07-22_21h09.36.696,empathy_intonation_perc,2024.2.4,Win32,120.1923077,6784863a028ac25ee3f395ee,687ed1b7e638a4cbf2f02089,6880362662d8a648d7c2b5e6,,,,,,,,,,,,,,0,,./stim/wavs/andalusian_statement_filler_Alberto-nunca-se-afeita.wav,,,,,,,,,196.132,202.29,0,1,5.648,0,0,0,0,5,1,,,,,,,,,,,,,,,,,,,,,,,,,,,,,,,,,,,,,,,,,,,,,,,,,,,,,,,,,,,,,,,,,,,,,,,
,,,,,,,,,6784863a028ac25ee3f395ee,Spanish,13 or older,"no, only English or Spanish",no,2025-07-22_21h09.36.696,empathy_intonation_perc,2024.2.4,Win32,120.1923077,6784863a028ac25ee3f395ee,687ed1b7e638a4cbf2f02089,6880362662d8a648d7c2b5e6,,,,,,,,,,,,,,1,,./stim/wavs/argentine_question_filler_Mi-vecino-habla-mucho.wav,,,,,,,,,202.29,205.581,1,1,2.779,,0,1,1,1,1,,,,,,,,,,,,,,,,,,,,,,,,,,,,,,,,,,,,,,,,,,,,,,,,,,,,,,,,,,,,,,,,,,,,,,,
,,,,,,,,,6784863a028ac25ee3f395ee,Spanish,13 or older,"no, only English or Spanish",no,2025-07-22_21h09.36.696,empathy_intonation_perc,2024.2.4,Win32,120.1923077,6784863a028ac25ee3f395ee,687ed1b7e638a4cbf2f02089,6880362662d8a648d7c2b5e6,,,,,,,,,,,,,,0,,./stim/wavs/puertorican_statement_filler_La-nina-pinta-con-su-amiga.wav,,,,,,,,,205.581,208.747,0,1,2.655,,0,2,2,7,1,,,,,,,,,,,,,,,,,,,,,,,,,,,,,,,,,,,,,,,,,,,,,,,,,,,,,,,,,,,,,,,,,,,,,,,
,,,,,,,,,6784863a028ac25ee3f395ee,Spanish,13 or older,"no, only English or Spanish",no,2025-07-22_21h09.36.696,empathy_intonation_perc,2024.2.4,Win32,120.1923077,6784863a028ac25ee3f395ee,687ed1b7e638a4cbf2f02089,6880362662d8a648d7c2b5e6,,,,,,,,,,,,,,0,,./stim/wavs/peruvian_statement_filler_El-nino-habla-con-su-madre.wav,,,,,,,,,208.748,213.352,0,1,4.094,,0,3,3,6,1,,,,,,,,,,,,,,,,,,,,,,,,,,,,,,,,,,,,,,,,,,,,,,,,,,,,,,,,,,,,,,,,,,,,,,,
,,,,,,,,,6784863a028ac25ee3f395ee,Spanish,13 or older,"no, only English or Spanish",no,2025-07-22_21h09.36.696,empathy_intonation_perc,2024.2.4,Win32,120.1923077,6784863a028ac25ee3f395ee,687ed1b7e638a4cbf2f02089,6880362662d8a648d7c2b5e6,,,,,,,,,,,,,,0,,./stim/wavs/cuban_statement_filler_Cocinabas-por-la-noche.wav,,,,,,,,,213.353,219.245,1,0,5.384,,0,4,4,4,1,,,,,,,,,,,,,,,,,,,,,,,,,,,,,,,,,,,,,,,,,,,,,,,,,,,,,,,,,,,,,,,,,,,,,,,
,,,,,,,,,6784863a028ac25ee3f395ee,Spanish,13 or older,"no, only English or Spanish",no,2025-07-22_21h09.36.696,empathy_intonation_perc,2024.2.4,Win32,120.1923077,6784863a028ac25ee3f395ee,687ed1b7e638a4cbf2f02089,6880362662d8a648d7c2b5e6,,,,,,,,,,,,,,1,,./stim/wavs/chilean_question_filler_Mi-padre-cantaba-bien.wav,,,,,,,,,219.246,229.178,0,0,9.421,,0,5,5,2,1,,,,,,,,,,,,,,,,,,,,,,,,,,,,,,,,,,,,,,,,,,,,,,,,,,,,,,,,,,,,,,,,,,,,,,,
,,,,,,,,,6784863a028ac25ee3f395ee,Spanish,13 or older,"no, only English or Spanish",no,2025-07-22_21h09.36.696,empathy_intonation_perc,2024.2.4,Win32,120.1923077,6784863a028ac25ee3f395ee,687ed1b7e638a4cbf2f02089,6880362662d8a648d7c2b5e6,,,,,,,,,,,,,,1,,./stim/wavs/mexican_question_filler_Felipe-no-tiene-contrasena.wav,,,,,,,,,229.181,233.62,1,1,3.932,,0,6,6,3,1,,,,,,,,,,,,,,,,,,,,,,,,,,,,,,,,,,,,,,,,,,,,,,,,,,,,,,,,,,,,,,,,,,,,,,,
,,,,,,,,,6784863a028ac25ee3f395ee,Spanish,13 or older,"no, only English or Spanish",no,2025-07-22_21h09.36.696,empathy_intonation_perc,2024.2.4,Win32,120.1923077,6784863a028ac25ee3f395ee,687ed1b7e638a4cbf2f02089,6880362662d8a648d7c2b5e6,,,,,,,,,,,,,,1,,./stim/wavs/castilian_question_filler_Mi-esposo-conoce-al-chico.wav,,,,,,,,,233.622,237.389,1,1,3.258,,0,7,7,0,1,,,,,,,,,,,,,,,,,,,,,,,,,,,,,,,,,,,,,,,,,,,,,,,,,,,,,,,,,,,,,,,,,,,,,,,
,,,,,,,,,6784863a028ac25ee3f395ee,Spanish,13 or older,"no, only English or Spanish",no,2025-07-22_21h09.36.696,empathy_intonation_perc,2024.2.4,Win32,120.1923077,6784863a028ac25ee3f395ee,687ed1b7e638a4cbf2f02089,6880362662d8a648d7c2b5e6,,,,,,,,,,,,,,,,,,,,,,,,,,,,,,,,,,,,237.389,242.683,,,,,,,,,,,,,,,,,,,,,,,,,,,,,,,,,,,,,,,,,,,,,,,,,,,,,,,,,,,,,,,,,,,,,
,,,,,,,,,6784863a028ac25ee3f395ee,Spanish,13 or older,"no, only English or Spanish",no,2025-07-22_21h09.36.696,empathy_intonation_perc,2024.2.4,Win32,120.1923077,6784863a028ac25ee3f395ee,687ed1b7e638a4cbf2f02089,6880362662d8a648d7c2b5e6,,,,,,,,,,,,,83,0,,./stim/wavs/mexican_mismatch_declarative-broad-focus_Mi-tia-odia-la-lluvia.wav,,,,,,,,,,,,,,,,,,,,,,242.7,247.847,0,1,4.635,,0,0,0,82,1,0,mexican,,,,,,,,,,,,,,,,,,,,,,,,,,,,,,,,,,,,,,,,,,,,,,,,,,,,,,,,
,,,,,,,,,6784863a028ac25ee3f395ee,Spanish,13 or older,"no, only English or Spanish",no,2025-07-22_21h09.36.696,empathy_intonation_perc,2024.2.4,Win32,120.1923077,6784863a028ac25ee3f395ee,687ed1b7e638a4cbf2f02089,6880362662d8a648d7c2b5e6,,,,,,,,,,,,,67,0,,./stim/wavs/puertorican_match_declarative-broad-focus_Manuela-vende-el-carro.wav,,,,,,,,,,,,,,,,,,,,,,247.848,252.891,0,1,4.533,,0,1,1,66,1,0,puertorican,,,,,,,,,,,,,,,,,,,,,,,,,,,,,,,,,,,,,,,,,,,,,,,,,,,,,,,,
,,,,,,,,,6784863a028ac25ee3f395ee,Spanish,13 or older,"no, only English or Spanish",no,2025-07-22_21h09.36.696,empathy_intonation_perc,2024.2.4,Win32,120.1923077,6784863a028ac25ee3f395ee,687ed1b7e638a4cbf2f02089,6880362662d8a648d7c2b5e6,,,,,,,,,,,,,46,0,,./stim/wavs/castilian_match_declarative-broad-focus_Emilio-ama-la-marcha.wav,,,,,,,,,,,,,,,,,,,,,,252.892,255.763,1,0,2.363,,0,2,2,45,1,0,castilian,,,,,,,,,,,,,,,,,,,,,,,,,,,,,,,,,,,,,,,,,,,,,,,,,,,,,,,,
,,,,,,,,,6784863a028ac25ee3f395ee,Spanish,13 or older,"no, only English or Spanish",no,2025-07-22_21h09.36.696,empathy_intonation_perc,2024.2.4,Win32,120.1923077,6784863a028ac25ee3f395ee,687ed1b7e638a4cbf2f02089,6880362662d8a648d7c2b5e6,,,,,,,,,,,,,58,0,,./stim/wavs/mexican_match_declarative-broad-focus_Daniel-iba-a-Bolivia.wav,,,,,,,,,,,,,,,,,,,,,,255.763,259.858,0,1,3.584,,0,3,3,57,1,0,mexican,,,,,,,,,,,,,,,,,,,,,,,,,,,,,,,,,,,,,,,,,,,,,,,,,,,,,,,,
,,,,,,,,,6784863a028ac25ee3f395ee,Spanish,13 or older,"no, only English or Spanish",no,2025-07-22_21h09.36.696,empathy_intonation_perc,2024.2.4,Win32,120.1923077,6784863a028ac25ee3f395ee,687ed1b7e638a4cbf2f02089,6880362662d8a648d7c2b5e6,,,,,,,,,,,,,10,1,,./stim/wavs/cuban_match_interrogative-total-yn_Maria-bebe-el-vino.wav,,,,,,,,,,,,,,,,,,,,,,259.862,262.649,0,0,2.277,,0,4,4,9,1,1,cuban,,,,,,,,,,,,,,,,,,,,,,,,,,,,,,,,,,,,,,,,,,,,,,,,,,,,,,,,
,,,,,,,,,6784863a028ac25ee3f395ee,Spanish,13 or older,"no, only English or Spanish",no,2025-07-22_21h09.36.696,empathy_intonation_perc,2024.2.4,Win32,120.1923077,6784863a028ac25ee3f395ee,687ed1b7e638a4cbf2f02089,6880362662d8a648d7c2b5e6,,,,,,,,,,,,,77,0,,./stim/wavs/cuban_mismatch_declarative-broad-focus_Mi-novio-viene-del-lago.wav,,,,,,,,,,,,,,,,,,,,,,262.65,265.974,1,0,2.813,,0,5,5,76,1,0,cuban,,,,,,,,,,,,,,,,,,,,,,,,,,,,,,,,,,,,,,,,,,,,,,,,,,,,,,,,
,,,,,,,,,6784863a028ac25ee3f395ee,Spanish,13 or older,"no, only English or Spanish",no,2025-07-22_21h09.36.696,empathy_intonation_perc,2024.2.4,Win32,120.1923077,6784863a028ac25ee3f395ee,687ed1b7e638a4cbf2f02089,6880362662d8a648d7c2b5e6,,,,,,,,,,,,,71,0,,./stim/wavs/castilian_mismatch_declarative-broad-focus_La-nina-lava-el-plato.wav,,,,,,,,,,,,,,,,,,,,,,265.975,269.537,0,1,3.051,,0,6,6,70,1,0,castilian,,,,,,,,,,,,,,,,,,,,,,,,,,,,,,,,,,,,,,,,,,,,,,,,,,,,,,,,
,,,,,,,,,6784863a028ac25ee3f395ee,Spanish,13 or older,"no, only English or Spanish",no,2025-07-22_21h09.36.696,empathy_intonation_perc,2024.2.4,Win32,120.1923077,6784863a028ac25ee3f395ee,687ed1b7e638a4cbf2f02089,6880362662d8a648d7c2b5e6,,,,,,,,,,,,,42,1,,./stim/wavs/puertorican_mismatch_interrogative-total-yn_La-maestra-vive-en-Paris.wav,,,,,,,,,,,,,,,,,,,,,,269.538,272.976,1,1,2.93,,0,7,7,41,1,1,puertorican,,,,,,,,,,,,,,,,,,,,,,,,,,,,,,,,,,,,,,,,,,,,,,,,,,,,,,,,
,,,,,,,,,6784863a028ac25ee3f395ee,Spanish,13 or older,"no, only English or Spanish",no,2025-07-22_21h09.36.696,empathy_intonation_perc,2024.2.4,Win32,120.1923077,6784863a028ac25ee3f395ee,687ed1b7e638a4cbf2f02089,6880362662d8a648d7c2b5e6,,,,,,,,,,,,,87,0,,./stim/wavs/puertorican_mismatch_declarative-broad-focus_La-maestra-vive-en-Paris.wav,,,,,,,,,,,,,,,,,,,,,,272.977,279.419,1,0,5.93,,0,8,8,86,1,0,puertorican,,,,,,,,,,,,,,,,,,,,,,,,,,,,,,,,,,,,,,,,,,,,,,,,,,,,,,,,
,,,,,,,,,6784863a028ac25ee3f395ee,Spanish,13 or older,"no, only English or Spanish",no,2025-07-22_21h09.36.696,empathy_intonation_perc,2024.2.4,Win32,120.1923077,6784863a028ac25ee3f395ee,687ed1b7e638a4cbf2f02089,6880362662d8a648d7c2b5e6,,,,,,,,,,,,,62,0,,./stim/wavs/mexican_match_declarative-broad-focus_Marta-abre-el-regalo.wav,,,,,,,,,,,,,,,,,,,,,,279.419,283.274,0,1,3.345,,0,9,9,61,1,0,mexican,,,,,,,,,,,,,,,,,,,,,,,,,,,,,,,,,,,,,,,,,,,,,,,,,,,,,,,,
,,,,,,,,,6784863a028ac25ee3f395ee,Spanish,13 or older,"no, only English or Spanish",no,2025-07-22_21h09.36.696,empathy_intonation_perc,2024.2.4,Win32,120.1923077,6784863a028ac25ee3f395ee,687ed1b7e638a4cbf2f02089,6880362662d8a648d7c2b5e6,,,,,,,,,,,,,41,1,,./stim/wavs/puertorican_mismatch_interrogative-total-yn_El-nino-oye-el-rio.wav,,,,,,,,,,,,,,,,,,,,,,283.275,286.365,1,1,2.583,,0,10,10,40,1,1,puertorican,,,,,,,,,,,,,,,,,,,,,,,,,,,,,,,,,,,,,,,,,,,,,,,,,,,,,,,,
,,,,,,,,,6784863a028ac25ee3f395ee,Spanish,13 or older,"no, only English or Spanish",no,2025-07-22_21h09.36.696,empathy_intonation_perc,2024.2.4,Win32,120.1923077,6784863a028ac25ee3f395ee,687ed1b7e638a4cbf2f02089,6880362662d8a648d7c2b5e6,,,,,,,,,,,,,79,0,,./stim/wavs/mexican_mismatch_declarative-broad-focus_El-bebe-comia-muy-bien.wav,,,,,,,,,,,,,,,,,,,,,,286.366,290.379,1,0,3.506,,0,11,11,78,1,0,mexican,,,,,,,,,,,,,,,,,,,,,,,,,,,,,,,,,,,,,,,,,,,,,,,,,,,,,,,,
,,,,,,,,,6784863a028ac25ee3f395ee,Spanish,13 or older,"no, only English or Spanish",no,2025-07-22_21h09.36.696,empathy_intonation_perc,2024.2.4,Win32,120.1923077,6784863a028ac25ee3f395ee,687ed1b7e638a4cbf2f02089,6880362662d8a648d7c2b5e6,,,,,,,,,,,,,81,0,,./stim/wavs/mexican_mismatch_declarative-broad-focus_La-maestra-vive-en-Paris.wav,,,,,,,,,,,,,,,,,,,,,,290.382,293.165,0,1,2.275,,0,12,12,80,1,0,mexican,,,,,,,,,,,,,,,,,,,,,,,,,,,,,,,,,,,,,,,,,,,,,,,,,,,,,,,,
,,,,,,,,,6784863a028ac25ee3f395ee,Spanish,13 or older,"no, only English or Spanish",no,2025-07-22_21h09.36.696,empathy_intonation_perc,2024.2.4,Win32,120.1923077,6784863a028ac25ee3f395ee,687ed1b7e638a4cbf2f02089,6880362662d8a648d7c2b5e6,,,,,,,,,,,,,8,1,,./stim/wavs/cuban_match_interrogative-total-yn_Daniel-iba-a-Bolivia.wav,,,,,,,,,,,,,,,,,,,,,,293.166,295.628,0,0,1.949,,0,13,13,7,1,1,cuban,,,,,,,,,,,,,,,,,,,,,,,,,,,,,,,,,,,,,,,,,,,,,,,,,,,,,,,,
,,,,,,,,,6784863a028ac25ee3f395ee,Spanish,13 or older,"no, only English or Spanish",no,2025-07-22_21h09.36.696,empathy_intonation_perc,2024.2.4,Win32,120.1923077,6784863a028ac25ee3f395ee,687ed1b7e638a4cbf2f02089,6880362662d8a648d7c2b5e6,,,,,,,,,,,,,60,0,,./stim/wavs/mexican_match_declarative-broad-focus_Emilio-ama-la-marcha.wav,,,,,,,,,,,,,,,,,,,,,,295.629,301.814,0,1,5.673,,0,14,14,59,1,0,mexican,,,,,,,,,,,,,,,,,,,,,,,,,,,,,,,,,,,,,,,,,,,,,,,,,,,,,,,,
,,,,,,,,,6784863a028ac25ee3f395ee,Spanish,13 or older,"no, only English or Spanish",no,2025-07-22_21h09.36.696,empathy_intonation_perc,2024.2.4,Win32,120.1923077,6784863a028ac25ee3f395ee,687ed1b7e638a4cbf2f02089,6880362662d8a648d7c2b5e6,,,,,,,,,,,,,76,0,,./stim/wavs/cuban_mismatch_declarative-broad-focus_La-nina-lava-el-plato.wav,,,,,,,,,,,,,,,,,,,,,,301.815,304.822,1,0,2.501,,0,15,15,75,1,0,cuban,,,,,,,,,,,,,,,,,,,,,,,,,,,,,,,,,,,,,,,,,,,,,,,,,,,,,,,,
,,,,,,,,,6784863a028ac25ee3f395ee,Spanish,13 or older,"no, only English or Spanish",no,2025-07-22_21h09.36.696,empathy_intonation_perc,2024.2.4,Win32,120.1923077,6784863a028ac25ee3f395ee,687ed1b7e638a4cbf2f02089,6880362662d8a648d7c2b5e6,,,,,,,,,,,,,24,1,,./stim/wavs/puertorican_match_interrogative-total-yn_Maria-bebe-el-vino.wav,,,,,,,,,,,,,,,,,,,,,,304.822,307.834,0,0,2.502,,0,16,16,23,1,1,puertorican,,,,,,,,,,,,,,,,,,,,,,,,,,,,,,,,,,,,,,,,,,,,,,,,,,,,,,,,
,,,,,,,,,6784863a028ac25ee3f395ee,Spanish,13 or older,"no, only English or Spanish",no,2025-07-22_21h09.36.696,empathy_intonation_perc,2024.2.4,Win32,120.1923077,6784863a028ac25ee3f395ee,687ed1b7e638a4cbf2f02089,6880362662d8a648d7c2b5e6,,,,,,,,,,,,,5,1,,./stim/wavs/castilian_match_interrogative-total-yn_Mariano-habla-del-tiempo.wav,,,,,,,,,,,,,,,,,,,,,,307.835,311.009,1,1,2.66,,0,17,17,4,1,0,castilian,,,,,,,,,,,,,,,,,,,,,,,,,,,,,,,,,,,,,,,,,,,,,,,,,,,,,,,,
,,,,,,,,,6784863a028ac25ee3f395ee,Spanish,13 or older,"no, only English or Spanish",no,2025-07-22_21h09.36.696,empathy_intonation_perc,2024.2.4,Win32,120.1923077,6784863a028ac25ee3f395ee,687ed1b7e638a4cbf2f02089,6880362662d8a648d7c2b5e6,,,,,,,,,,,,,31,1,,./stim/wavs/cuban_mismatch_interrogative-total-yn_El-nino-oye-el-rio.wav,,,,,,,,,,,,,,,,,,,,,,311.01,314.42,0,0,2.899,,0,18,18,30,1,1,cuban,,,,,,,,,,,,,,,,,,,,,,,,,,,,,,,,,,,,,,,,,,,,,,,,,,,,,,,,
,,,,,,,,,6784863a028ac25ee3f395ee,Spanish,13 or older,"no, only English or Spanish",no,2025-07-22_21h09.36.696,empathy_intonation_perc,2024.2.4,Win32,120.1923077,6784863a028ac25ee3f395ee,687ed1b7e638a4cbf2f02089,6880362662d8a648d7c2b5e6,,,,,,,,,,,,,57,0,,./stim/wavs/mexican_match_declarative-broad-focus_Ana-lleva-el-abrigo.wav,,,,,,,,,,,,,,,,,,,,,,314.421,317.737,0,1,2.808,,0,19,19,56,1,0,mexican,,,,,,,,,,,,,,,,,,,,,,,,,,,,,,,,,,,,,,,,,,,,,,,,,,,,,,,,
,,,,,,,,,6784863a028ac25ee3f395ee,Spanish,13 or older,"no, only English or Spanish",no,2025-07-22_21h09.36.696,empathy_intonation_perc,2024.2.4,Win32,120.1923077,6784863a028ac25ee3f395ee,687ed1b7e638a4cbf2f02089,6880362662d8a648d7c2b5e6,,,,,,,,,,,,,82,0,,./stim/wavs/mexican_mismatch_declarative-broad-focus_Mi-novio-viene-del-lago.wav,,,,,,,,,,,,,,,,,,,,,,317.739,320.39,1,0,2.139,,0,20,20,81,1,0,mexican,,,,,,,,,,,,,,,,,,,,,,,,,,,,,,,,,,,,,,,,,,,,,,,,,,,,,,,,
,,,,,,,,,6784863a028ac25ee3f395ee,Spanish,13 or older,"no, only English or Spanish",no,2025-07-22_21h09.36.696,empathy_intonation_perc,2024.2.4,Win32,120.1923077,6784863a028ac25ee3f395ee,687ed1b7e638a4cbf2f02089,6880362662d8a648d7c2b5e6,,,,,,,,,,,,,29,1,,./stim/wavs/castilian_mismatch_interrogative-total-yn_Mi-tia-odia-la-lluvia.wav,,,,,,,,,,,,,,,,,,,,,,320.39,323.311,1,1,2.41,,0,21,21,28,1,0,castilian,,,,,,,,,,,,,,,,,,,,,,,,,,,,,,,,,,,,,,,,,,,,,,,,,,,,,,,,
,,,,,,,,,6784863a028ac25ee3f395ee,Spanish,13 or older,"no, only English or Spanish",no,2025-07-22_21h09.36.696,empathy_intonation_perc,2024.2.4,Win32,120.1923077,6784863a028ac25ee3f395ee,687ed1b7e638a4cbf2f02089,6880362662d8a648d7c2b5e6,,,,,,,,,,,,,3,1,,./stim/wavs/castilian_match_interrogative-total-yn_Manuela-vende-el-carro.wav,,,,,,,,,,,,,,,,,,,,,,323.311,325.732,1,1,1.91,,0,22,22,2,1,0,castilian,,,,,,,,,,,,,,,,,,,,,,,,,,,,,,,,,,,,,,,,,,,,,,,,,,,,,,,,
,,,,,,,,,6784863a028ac25ee3f395ee,Spanish,13 or older,"no, only English or Spanish",no,2025-07-22_21h09.36.696,empathy_intonation_perc,2024.2.4,Win32,120.1923077,6784863a028ac25ee3f395ee,687ed1b7e638a4cbf2f02089,6880362662d8a648d7c2b5e6,,,,,,,,,,,,,64,0,,./stim/wavs/puertorican_match_declarative-broad-focus_Daniel-iba-a-Bolivia.wav,,,,,,,,,,,,,,,,,,,,,,325.733,328.047,0,1,1.805,,0,23,23,63,1,0,puertorican,,,,,,,,,,,,,,,,,,,,,,,,,,,,,,,,,,,,,,,,,,,,,,,,,,,,,,,,
,,,,,,,,,6784863a028ac25ee3f395ee,Spanish,13 or older,"no, only English or Spanish",no,2025-07-22_21h09.36.696,empathy_intonation_perc,2024.2.4,Win32,120.1923077,6784863a028ac25ee3f395ee,687ed1b7e638a4cbf2f02089,6880362662d8a648d7c2b5e6,,,,,,,,,,,,,47,0,,./stim/wavs/castilian_match_declarative-broad-focus_Manuela-vende-el-carro.wav,,,,,,,,,,,,,,,,,,,,,,328.049,333.08,0,1,4.523,,0,24,24,46,1,0,castilian,,,,,,,,,,,,,,,,,,,,,,,,,,,,,,,,,,,,,,,,,,,,,,,,,,,,,,,,
,,,,,,,,,6784863a028ac25ee3f395ee,Spanish,13 or older,"no, only English or Spanish",no,2025-07-22_21h09.36.696,empathy_intonation_perc,2024.2.4,Win32,120.1923077,6784863a028ac25ee3f395ee,687ed1b7e638a4cbf2f02089,6880362662d8a648d7c2b5e6,,,,,,,,,,,,,48,0,,./stim/wavs/castilian_match_declarative-broad-focus_Maria-bebe-el-vino.wav,,,,,,,,,,,,,,,,,,,,,,333.082,339.486,1,0,5.893,,0,25,25,47,1,0,castilian,,,,,,,,,,,,,,,,,,,,,,,,,,,,,,,,,,,,,,,,,,,,,,,,,,,,,,,,
,,,,,,,,,6784863a028ac25ee3f395ee,Spanish,13 or older,"no, only English or Spanish",no,2025-07-22_21h09.36.696,empathy_intonation_perc,2024.2.4,Win32,120.1923077,6784863a028ac25ee3f395ee,687ed1b7e638a4cbf2f02089,6880362662d8a648d7c2b5e6,,,,,,,,,,,,,72,0,,./stim/wavs/castilian_mismatch_declarative-broad-focus_Mi-novio-viene-del-lago.wav,,,,,,,,,,,,,,,,,,,,,,339.488,342.198,0,1,2.195,,0,26,26,71,1,0,castilian,,,,,,,,,,,,,,,,,,,,,,,,,,,,,,,,,,,,,,,,,,,,,,,,,,,,,,,,
,,,,,,,,,6784863a028ac25ee3f395ee,Spanish,13 or older,"no, only English or Spanish",no,2025-07-22_21h09.36.696,empathy_intonation_perc,2024.2.4,Win32,120.1923077,6784863a028ac25ee3f395ee,687ed1b7e638a4cbf2f02089,6880362662d8a648d7c2b5e6,,,,,,,,,,,,,35,1,,./stim/wavs/mexican_mismatch_interrogative-total-yn_El-hombre-mira-la-luna.wav,,,,,,,,,,,,,,,,,,,,,,342.198,344.952,1,1,2.246,,0,27,27,34,1,0,mexican,,,,,,,,,,,,,,,,,,,,,,,,,,,,,,,,,,,,,,,,,,,,,,,,,,,,,,,,
,,,,,,,,,6784863a028ac25ee3f395ee,Spanish,13 or older,"no, only English or Spanish",no,2025-07-22_21h09.36.696,empathy_intonation_perc,2024.2.4,Win32,120.1923077,6784863a028ac25ee3f395ee,687ed1b7e638a4cbf2f02089,6880362662d8a648d7c2b5e6,,,,,,,,,,,,,17,1,,./stim/wavs/mexican_match_interrogative-total-yn_Mariano-habla-del-tiempo.wav,,,,,,,,,,,,,,,,,,,,,,344.953,348.896,0,0,3.434,,0,28,28,16,1,0,mexican,,,,,,,,,,,,,,,,,,,,,,,,,,,,,,,,,,,,,,,,,,,,,,,,,,,,,,,,
,,,,,,,,,6784863a028ac25ee3f395ee,Spanish,13 or older,"no, only English or Spanish",no,2025-07-22_21h09.36.696,empathy_intonation_perc,2024.2.4,Win32,120.1923077,6784863a028ac25ee3f395ee,687ed1b7e638a4cbf2f02089,6880362662d8a648d7c2b5e6,,,,,,,,,,,,,1,1,,./stim/wavs/castilian_match_interrogative-total-yn_David-leia-el-libro.wav,,,,,,,,,,,,,,,,,,,,,,348.897,352.517,1,1,3.114,,0,29,29,0,1,0,castilian,,,,,,,,,,,,,,,,,,,,,,,,,,,,,,,,,,,,,,,,,,,,,,,,,,,,,,,,
,,,,,,,,,6784863a028ac25ee3f395ee,Spanish,13 or older,"no, only English or Spanish",no,2025-07-22_21h09.36.696,empathy_intonation_perc,2024.2.4,Win32,120.1923077,6784863a028ac25ee3f395ee,687ed1b7e638a4cbf2f02089,6880362662d8a648d7c2b5e6,,,,,,,,,,,,,2,1,,./stim/wavs/castilian_match_interrogative-total-yn_Emilio-ama-la-marcha.wav,,,,,,,,,,,,,,,,,,,,,,352.518,356.325,1,1,3.3,,0,30,30,1,1,0,castilian,,,,,,,,,,,,,,,,,,,,,,,,,,,,,,,,,,,,,,,,,,,,,,,,,,,,,,,,
,,,,,,,,,6784863a028ac25ee3f395ee,Spanish,13 or older,"no, only English or Spanish",no,2025-07-22_21h09.36.696,empathy_intonation_perc,2024.2.4,Win32,120.1923077,6784863a028ac25ee3f395ee,687ed1b7e638a4cbf2f02089,6880362662d8a648d7c2b5e6,,,,,,,,,,,,,7,1,,./stim/wavs/cuban_match_interrogative-total-yn_Ana-lleva-el-abrigo.wav,,,,,,,,,,,,,,,,,,,,,,356.325,359.545,0,0,2.712,,0,31,31,6,1,1,cuban,,,,,,,,,,,,,,,,,,,,,,,,,,,,,,,,,,,,,,,,,,,,,,,,,,,,,,,,
,,,,,,,,,6784863a028ac25ee3f395ee,Spanish,13 or older,"no, only English or Spanish",no,2025-07-22_21h09.36.696,empathy_intonation_perc,2024.2.4,Win32,120.1923077,6784863a028ac25ee3f395ee,687ed1b7e638a4cbf2f02089,6880362662d8a648d7c2b5e6,,,,,,,,,,,,,44,1,,./stim/wavs/puertorican_mismatch_interrogative-total-yn_Mi-madre-come-la-fruta.wav,,,,,,,,,,,,,,,,,,,,,,359.547,362.089,0,0,2.034,,0,32,32,43,1,1,puertorican,,,,,,,,,,,,,,,,,,,,,,,,,,,,,,,,,,,,,,,,,,,,,,,,,,,,,,,,
,,,,,,,,,6784863a028ac25ee3f395ee,Spanish,13 or older,"no, only English or Spanish",no,2025-07-22_21h09.36.696,empathy_intonation_perc,2024.2.4,Win32,120.1923077,6784863a028ac25ee3f395ee,687ed1b7e638a4cbf2f02089,6880362662d8a648d7c2b5e6,,,,,,,,,,,,,63,0,,./stim/wavs/puertorican_match_declarative-broad-focus_Ana-lleva-el-abrigo.wav,,,,,,,,,,,,,,,,,,,,,,362.09,365.256,0,1,2.658,,0,33,33,62,1,0,puertorican,,,,,,,,,,,,,,,,,,,,,,,,,,,,,,,,,,,,,,,,,,,,,,,,,,,,,,,,
,,,,,,,,,6784863a028ac25ee3f395ee,Spanish,13 or older,"no, only English or Spanish",no,2025-07-22_21h09.36.696,empathy_intonation_perc,2024.2.4,Win32,120.1923077,6784863a028ac25ee3f395ee,687ed1b7e638a4cbf2f02089,6880362662d8a648d7c2b5e6,,,,,,,,,,,,,9,1,,./stim/wavs/cuban_match_interrogative-total-yn_Manuela-vende-el-carro.wav,,,,,,,,,,,,,,,,,,,,,,365.257,370.774,1,1,5.01,,0,34,34,8,1,1,cuban,,,,,,,,,,,,,,,,,,,,,,,,,,,,,,,,,,,,,,,,,,,,,,,,,,,,,,,,
,,,,,,,,,6784863a028ac25ee3f395ee,Spanish,13 or older,"no, only English or Spanish",no,2025-07-22_21h09.36.696,empathy_intonation_perc,2024.2.4,Win32,120.1923077,6784863a028ac25ee3f395ee,687ed1b7e638a4cbf2f02089,6880362662d8a648d7c2b5e6,,,,,,,,,,,,,70,0,,./stim/wavs/castilian_mismatch_declarative-broad-focus_La-maestra-vive-en-Paris.wav,,,,,,,,,,,,,,,,,,,,,,370.775,374.571,0,1,3.285,,0,35,35,69,1,0,castilian,,,,,,,,,,,,,,,,,,,,,,,,,,,,,,,,,,,,,,,,,,,,,,,,,,,,,,,,
,,,,,,,,,6784863a028ac25ee3f395ee,Spanish,13 or older,"no, only English or Spanish",no,2025-07-22_21h09.36.696,empathy_intonation_perc,2024.2.4,Win32,120.1923077,6784863a028ac25ee3f395ee,687ed1b7e638a4cbf2f02089,6880362662d8a648d7c2b5e6,,,,,,,,,,,,,14,1,,./stim/wavs/mexican_match_interrogative-total-yn_Daniel-iba-a-Bolivia.wav,,,,,,,,,,,,,,,,,,,,,,374.572,376.793,0,0,1.711,,0,36,36,13,1,0,mexican,,,,,,,,,,,,,,,,,,,,,,,,,,,,,,,,,,,,,,,,,,,,,,,,,,,,,,,,
,,,,,,,,,6784863a028ac25ee3f395ee,Spanish,13 or older,"no, only English or Spanish",no,2025-07-22_21h09.36.696,empathy_intonation_perc,2024.2.4,Win32,120.1923077,6784863a028ac25ee3f395ee,687ed1b7e638a4cbf2f02089,6880362662d8a648d7c2b5e6,,,,,,,,,,,,,27,1,,./stim/wavs/castilian_mismatch_interrogative-total-yn_Mi-madre-come-la-fruta.wav,,,,,,,,,,,,,,,,,,,,,,376.793,380.98,0,0,3.679,,0,37,37,26,1,0,castilian,,,,,,,,,,,,,,,,,,,,,,,,,,,,,,,,,,,,,,,,,,,,,,,,,,,,,,,,
,,,,,,,,,6784863a028ac25ee3f395ee,Spanish,13 or older,"no, only English or Spanish",no,2025-07-22_21h09.36.696,empathy_intonation_perc,2024.2.4,Win32,120.1923077,6784863a028ac25ee3f395ee,687ed1b7e638a4cbf2f02089,6880362662d8a648d7c2b5e6,,,,,,,,,,,,,32,1,,./stim/wavs/cuban_mismatch_interrogative-total-yn_Mi-madre-come-la-fruta.wav,,,,,,,,,,,,,,,,,,,,,,380.981,383.317,0,0,1.825,,0,38,38,31,1,1,cuban,,,,,,,,,,,,,,,,,,,,,,,,,,,,,,,,,,,,,,,,,,,,,,,,,,,,,,,,
,,,,,,,,,6784863a028ac25ee3f395ee,Spanish,13 or older,"no, only English or Spanish",no,2025-07-22_21h09.36.696,empathy_intonation_perc,2024.2.4,Win32,120.1923077,6784863a028ac25ee3f395ee,687ed1b7e638a4cbf2f02089,6880362662d8a648d7c2b5e6,,,,,,,,,,,,,65,0,,./stim/wavs/puertorican_match_declarative-broad-focus_David-leia-el-libro.wav,,,,,,,,,,,,,,,,,,,,,,383.318,389.929,0,1,6.101,,0,39,39,64,1,0,puertorican,,,,,,,,,,,,,,,,,,,,,,,,,,,,,,,,,,,,,,,,,,,,,,,,,,,,,,,,
,,,,,,,,,6784863a028ac25ee3f395ee,Spanish,13 or older,"no, only English or Spanish",no,2025-07-22_21h09.36.696,empathy_intonation_perc,2024.2.4,Win32,120.1923077,6784863a028ac25ee3f395ee,687ed1b7e638a4cbf2f02089,6880362662d8a648d7c2b5e6,,,,,,,,,,,,,40,1,,./stim/wavs/puertorican_mismatch_interrogative-total-yn_El-hombre-mira-la-luna.wav,,,,,,,,,,,,,,,,,,,,,,389.93,392.349,1,1,1.908,,0,40,40,39,1,1,puertorican,,,,,,,,,,,,,,,,,,,,,,,,,,,,,,,,,,,,,,,,,,,,,,,,,,,,,,,,
,,,,,,,,,6784863a028ac25ee3f395ee,Spanish,13 or older,"no, only English or Spanish",no,2025-07-22_21h09.36.696,empathy_intonation_perc,2024.2.4,Win32,120.1923077,6784863a028ac25ee3f395ee,687ed1b7e638a4cbf2f02089,6880362662d8a648d7c2b5e6,,,,,,,,,,,,,69,0,,./stim/wavs/castilian_mismatch_declarative-broad-focus_El-nino-oye-el-rio.wav,,,,,,,,,,,,,,,,,,,,,,392.351,396.87,0,1,4.011,,0,41,41,68,1,0,castilian,,,,,,,,,,,,,,,,,,,,,,,,,,,,,,,,,,,,,,,,,,,,,,,,,,,,,,,,
,,,,,,,,,6784863a028ac25ee3f395ee,Spanish,13 or older,"no, only English or Spanish",no,2025-07-22_21h09.36.696,empathy_intonation_perc,2024.2.4,Win32,120.1923077,6784863a028ac25ee3f395ee,687ed1b7e638a4cbf2f02089,6880362662d8a648d7c2b5e6,,,,,,,,,,,,,39,1,,./stim/wavs/mexican_mismatch_interrogative-total-yn_Mi-tia-odia-la-lluvia.wav,,,,,,,,,,,,,,,,,,,,,,396.871,400.158,1,1,2.778,,0,42,42,38,1,0,mexican,,,,,,,,,,,,,,,,,,,,,,,,,,,,,,,,,,,,,,,,,,,,,,,,,,,,,,,,
,,,,,,,,,6784863a028ac25ee3f395ee,Spanish,13 or older,"no, only English or Spanish",no,2025-07-22_21h09.36.696,empathy_intonation_perc,2024.2.4,Win32,120.1923077,6784863a028ac25ee3f395ee,687ed1b7e638a4cbf2f02089,6880362662d8a648d7c2b5e6,,,,,,,,,,,,,18,1,,./stim/wavs/mexican_match_interrogative-total-yn_Marta-abre-el-regalo.wav,,,,,,,,,,,,,,,,,,,,,,400.16,402.916,1,1,2.249,,0,43,43,17,1,0,mexican,,,,,,,,,,,,,,,,,,,,,,,,,,,,,,,,,,,,,,,,,,,,,,,,,,,,,,,,
,,,,,,,,,6784863a028ac25ee3f395ee,Spanish,13 or older,"no, only English or Spanish",no,2025-07-22_21h09.36.696,empathy_intonation_perc,2024.2.4,Win32,120.1923077,6784863a028ac25ee3f395ee,687ed1b7e638a4cbf2f02089,6880362662d8a648d7c2b5e6,,,,,,,,,,,,,56,0,,./stim/wavs/cuban_match_declarative-broad-focus_Marta-abre-el-regalo.wav,,,,,,,,,,,,,,,,,,,,,,402.916,406.682,0,1,3.256,,0,44,44,55,1,0,cuban,,,,,,,,,,,,,,,,,,,,,,,,,,,,,,,,,,,,,,,,,,,,,,,,,,,,,,,,
,,,,,,,,,6784863a028ac25ee3f395ee,Spanish,13 or older,"no, only English or Spanish",no,2025-07-22_21h09.36.696,empathy_intonation_perc,2024.2.4,Win32,120.1923077,6784863a028ac25ee3f395ee,687ed1b7e638a4cbf2f02089,6880362662d8a648d7c2b5e6,,,,,,,,,,,,,20,1,,./stim/wavs/puertorican_match_interrogative-total-yn_Daniel-iba-a-Bolivia.wav,,,,,,,,,,,,,,,,,,,,,,406.682,410.422,0,0,3.229,,0,45,45,19,1,1,puertorican,,,,,,,,,,,,,,,,,,,,,,,,,,,,,,,,,,,,,,,,,,,,,,,,,,,,,,,,
,,,,,,,,,6784863a028ac25ee3f395ee,Spanish,13 or older,"no, only English or Spanish",no,2025-07-22_21h09.36.696,empathy_intonation_perc,2024.2.4,Win32,120.1923077,6784863a028ac25ee3f395ee,687ed1b7e638a4cbf2f02089,6880362662d8a648d7c2b5e6,,,,,,,,,,,,,78,0,,./stim/wavs/cuban_mismatch_declarative-broad-focus_Mi-tia-odia-la-lluvia.wav,,,,,,,,,,,,,,,,,,,,,,410.423,417.241,0,1,6.308,0.001,0,46,46,77,1,0,cuban,,,,,,,,,,,,,,,,,,,,,,,,,,,,,,,,,,,,,,,,,,,,,,,,,,,,,,,,
,,,,,,,,,6784863a028ac25ee3f395ee,Spanish,13 or older,"no, only English or Spanish",no,2025-07-22_21h09.36.696,empathy_intonation_perc,2024.2.4,Win32,120.1923077,6784863a028ac25ee3f395ee,687ed1b7e638a4cbf2f02089,6880362662d8a648d7c2b5e6,,,,,,,,,,,,,13,1,,./stim/wavs/mexican_match_interrogative-total-yn_Ana-lleva-el-abrigo.wav,,,,,,,,,,,,,,,,,,,,,,417.242,420.131,1,1,2.383,,0,47,47,12,1,0,mexican,,,,,,,,,,,,,,,,,,,,,,,,,,,,,,,,,,,,,,,,,,,,,,,,,,,,,,,,
,,,,,,,,,6784863a028ac25ee3f395ee,Spanish,13 or older,"no, only English or Spanish",no,2025-07-22_21h09.36.696,empathy_intonation_perc,2024.2.4,Win32,120.1923077,6784863a028ac25ee3f395ee,687ed1b7e638a4cbf2f02089,6880362662d8a648d7c2b5e6,,,,,,,,,,,,,88,0,,./stim/wavs/puertorican_mismatch_declarative-broad-focus_La-nina-lava-el-plato.wav,,,,,,,,,,,,,,,,,,,,,,420.132,423.711,0,1,3.065,,0,48,48,87,1,0,puertorican,,,,,,,,,,,,,,,,,,,,,,,,,,,,,,,,,,,,,,,,,,,,,,,,,,,,,,,,
,,,,,,,,,6784863a028ac25ee3f395ee,Spanish,13 or older,"no, only English or Spanish",no,2025-07-22_21h09.36.696,empathy_intonation_perc,2024.2.4,Win32,120.1923077,6784863a028ac25ee3f395ee,687ed1b7e638a4cbf2f02089,6880362662d8a648d7c2b5e6,,,,,,,,,,,,,11,1,,./stim/wavs/cuban_match_interrogative-total-yn_Mariano-habla-del-tiempo.wav,,,,,,,,,,,,,,,,,,,,,,423.712,426.999,0,0,2.775,,0,49,49,10,1,1,cuban,,,,,,,,,,,,,,,,,,,,,,,,,,,,,,,,,,,,,,,,,,,,,,,,,,,,,,,,
,,,,,,,,,6784863a028ac25ee3f395ee,Spanish,13 or older,"no, only English or Spanish",no,2025-07-22_21h09.36.696,empathy_intonation_perc,2024.2.4,Win32,120.1923077,6784863a028ac25ee3f395ee,687ed1b7e638a4cbf2f02089,6880362662d8a648d7c2b5e6,,,,,,,,,,,,,68,0,,./stim/wavs/puertorican_match_declarative-broad-focus_Maria-bebe-el-vino.wav,,,,,,,,,,,,,,,,,,,,,,427.001,431.973,1,0,4.462,,0,50,50,67,1,0,puertorican,,,,,,,,,,,,,,,,,,,,,,,,,,,,,,,,,,,,,,,,,,,,,,,,,,,,,,,,
,,,,,,,,,6784863a028ac25ee3f395ee,Spanish,13 or older,"no, only English or Spanish",no,2025-07-22_21h09.36.696,empathy_intonation_perc,2024.2.4,Win32,120.1923077,6784863a028ac25ee3f395ee,687ed1b7e638a4cbf2f02089,6880362662d8a648d7c2b5e6,,,,,,,,,,,,,85,0,,./stim/wavs/puertorican_mismatch_declarative-broad-focus_El-hombre-mira-la-luna.wav,,,,,,,,,,,,,,,,,,,,,,431.973,435.727,1,0,3.246,,0,51,51,84,1,0,puertorican,,,,,,,,,,,,,,,,,,,,,,,,,,,,,,,,,,,,,,,,,,,,,,,,,,,,,,,,
,,,,,,,,,6784863a028ac25ee3f395ee,Spanish,13 or older,"no, only English or Spanish",no,2025-07-22_21h09.36.696,empathy_intonation_perc,2024.2.4,Win32,120.1923077,6784863a028ac25ee3f395ee,687ed1b7e638a4cbf2f02089,6880362662d8a648d7c2b5e6,,,,,,,,,,,,,38,1,,./stim/wavs/mexican_mismatch_interrogative-total-yn_Mi-novio-viene-del-lago.wav,,,,,,,,,,,,,,,,,,,,,,435.727,439.47,0,0,3.232,,0,52,52,37,1,0,mexican,,,,,,,,,,,,,,,,,,,,,,,,,,,,,,,,,,,,,,,,,,,,,,,,,,,,,,,,
,,,,,,,,,6784863a028ac25ee3f395ee,Spanish,13 or older,"no, only English or Spanish",no,2025-07-22_21h09.36.696,empathy_intonation_perc,2024.2.4,Win32,120.1923077,6784863a028ac25ee3f395ee,687ed1b7e638a4cbf2f02089,6880362662d8a648d7c2b5e6,,,,,,,,,,,,,52,0,,./stim/wavs/cuban_match_declarative-broad-focus_Daniel-iba-a-Bolivia.wav,,,,,,,,,,,,,,,,,,,,,,439.471,441.149,0,1,1.167,,0,53,53,51,1,0,cuban,,,,,,,,,,,,,,,,,,,,,,,,,,,,,,,,,,,,,,,,,,,,,,,,,,,,,,,,
,,,,,,,,,6784863a028ac25ee3f395ee,Spanish,13 or older,"no, only English or Spanish",no,2025-07-22_21h09.36.696,empathy_intonation_perc,2024.2.4,Win32,120.1923077,6784863a028ac25ee3f395ee,687ed1b7e638a4cbf2f02089,6880362662d8a648d7c2b5e6,,,,,,,,,,,,,61,0,,./stim/wavs/mexican_match_declarative-broad-focus_Mariano-habla-del-tiempo.wav,,,,,,,,,,,,,,,,,,,,,,441.151,444.509,1,0,2.85,,0,54,54,60,1,0,mexican,,,,,,,,,,,,,,,,,,,,,,,,,,,,,,,,,,,,,,,,,,,,,,,,,,,,,,,,
,,,,,,,,,6784863a028ac25ee3f395ee,Spanish,13 or older,"no, only English or Spanish",no,2025-07-22_21h09.36.696,empathy_intonation_perc,2024.2.4,Win32,120.1923077,6784863a028ac25ee3f395ee,687ed1b7e638a4cbf2f02089,6880362662d8a648d7c2b5e6,,,,,,,,,,,,,54,0,,./stim/wavs/cuban_match_declarative-broad-focus_Maria-bebe-el-vino.wav,,,,,,,,,,,,,,,,,,,,,,444.51,446,0,1,0.982,,0,55,55,53,1,0,cuban,,,,,,,,,,,,,,,,,,,,,,,,,,,,,,,,,,,,,,,,,,,,,,,,,,,,,,,,
,,,,,,,,,6784863a028ac25ee3f395ee,Spanish,13 or older,"no, only English or Spanish",no,2025-07-22_21h09.36.696,empathy_intonation_perc,2024.2.4,Win32,120.1923077,6784863a028ac25ee3f395ee,687ed1b7e638a4cbf2f02089,6880362662d8a648d7c2b5e6,,,,,,,,,,,,,22,1,,./stim/wavs/puertorican_match_interrogative-total-yn_Emilio-ama-la-marcha.wav,,,,,,,,,,,,,,,,,,,,,,446,448.585,0,0,2.072,,0,56,56,21,1,1,puertorican,,,,,,,,,,,,,,,,,,,,,,,,,,,,,,,,,,,,,,,,,,,,,,,,,,,,,,,,
,,,,,,,,,6784863a028ac25ee3f395ee,Spanish,13 or older,"no, only English or Spanish",no,2025-07-22_21h09.36.696,empathy_intonation_perc,2024.2.4,Win32,120.1923077,6784863a028ac25ee3f395ee,687ed1b7e638a4cbf2f02089,6880362662d8a648d7c2b5e6,,,,,,,,,,,,,19,1,,./stim/wavs/puertorican_match_interrogative-total-yn_Ana-lleva-el-abrigo.wav,,,,,,,,,,,,,,,,,,,,,,448.585,452.07,0,0,2.979,,0,57,57,18,1,1,puertorican,,,,,,,,,,,,,,,,,,,,,,,,,,,,,,,,,,,,,,,,,,,,,,,,,,,,,,,,
,,,,,,,,,6784863a028ac25ee3f395ee,Spanish,13 or older,"no, only English or Spanish",no,2025-07-22_21h09.36.696,empathy_intonation_perc,2024.2.4,Win32,120.1923077,6784863a028ac25ee3f395ee,687ed1b7e638a4cbf2f02089,6880362662d8a648d7c2b5e6,,,,,,,,,,,,,75,0,,./stim/wavs/cuban_mismatch_declarative-broad-focus_El-hombre-mira-la-luna.wav,,,,,,,,,,,,,,,,,,,,,,452.071,456.021,0,1,3.437,,0,58,58,74,1,0,cuban,,,,,,,,,,,,,,,,,,,,,,,,,,,,,,,,,,,,,,,,,,,,,,,,,,,,,,,,
,,,,,,,,,6784863a028ac25ee3f395ee,Spanish,13 or older,"no, only English or Spanish",no,2025-07-22_21h09.36.696,empathy_intonation_perc,2024.2.4,Win32,120.1923077,6784863a028ac25ee3f395ee,687ed1b7e638a4cbf2f02089,6880362662d8a648d7c2b5e6,,,,,,,,,,,,,4,1,,./stim/wavs/castilian_match_interrogative-total-yn_Maria-bebe-el-vino.wav,,,,,,,,,,,,,,,,,,,,,,456.021,458.201,0,0,1.674,,0,59,59,3,1,0,castilian,,,,,,,,,,,,,,,,,,,,,,,,,,,,,,,,,,,,,,,,,,,,,,,,,,,,,,,,
,,,,,,,,,6784863a028ac25ee3f395ee,Spanish,13 or older,"no, only English or Spanish",no,2025-07-22_21h09.36.696,empathy_intonation_perc,2024.2.4,Win32,120.1923077,6784863a028ac25ee3f395ee,687ed1b7e638a4cbf2f02089,6880362662d8a648d7c2b5e6,,,,,,,,,,,,,34,1,,./stim/wavs/cuban_mismatch_interrogative-total-yn_Mi-tia-odia-la-lluvia.wav,,,,,,,,,,,,,,,,,,,,,,458.203,462.191,0,0,3.48,,0,60,60,33,1,1,cuban,,,,,,,,,,,,,,,,,,,,,,,,,,,,,,,,,,,,,,,,,,,,,,,,,,,,,,,,
,,,,,,,,,6784863a028ac25ee3f395ee,Spanish,13 or older,"no, only English or Spanish",no,2025-07-22_21h09.36.696,empathy_intonation_perc,2024.2.4,Win32,120.1923077,6784863a028ac25ee3f395ee,687ed1b7e638a4cbf2f02089,6880362662d8a648d7c2b5e6,,,,,,,,,,,,,74,0,,./stim/wavs/cuban_mismatch_declarative-broad-focus_El-bebe-comia-muy-bien.wav,,,,,,,,,,,,,,,,,,,,,,462.192,469.152,0,1,6.448,,0,61,61,73,1,0,cuban,,,,,,,,,,,,,,,,,,,,,,,,,,,,,,,,,,,,,,,,,,,,,,,,,,,,,,,,
,,,,,,,,,6784863a028ac25ee3f395ee,Spanish,13 or older,"no, only English or Spanish",no,2025-07-22_21h09.36.696,empathy_intonation_perc,2024.2.4,Win32,120.1923077,6784863a028ac25ee3f395ee,687ed1b7e638a4cbf2f02089,6880362662d8a648d7c2b5e6,,,,,,,,,,,,,49,0,,./stim/wavs/castilian_match_declarative-broad-focus_Mariano-habla-del-tiempo.wav,,,,,,,,,,,,,,,,,,,,,,469.153,473.247,0,1,3.582,,0,62,62,48,1,0,castilian,,,,,,,,,,,,,,,,,,,,,,,,,,,,,,,,,,,,,,,,,,,,,,,,,,,,,,,,
,,,,,,,,,6784863a028ac25ee3f395ee,Spanish,13 or older,"no, only English or Spanish",no,2025-07-22_21h09.36.696,empathy_intonation_perc,2024.2.4,Win32,120.1923077,6784863a028ac25ee3f395ee,687ed1b7e638a4cbf2f02089,6880362662d8a648d7c2b5e6,,,,,,,,,,,,,59,0,,./stim/wavs/mexican_match_declarative-broad-focus_David-leia-el-libro.wav,,,,,,,,,,,,,,,,,,,,,,473.248,476.442,0,1,2.686,,0,63,63,58,1,0,mexican,,,,,,,,,,,,,,,,,,,,,,,,,,,,,,,,,,,,,,,,,,,,,,,,,,,,,,,,
,,,,,,,,,6784863a028ac25ee3f395ee,Spanish,13 or older,"no, only English or Spanish",no,2025-07-22_21h09.36.696,empathy_intonation_perc,2024.2.4,Win32,120.1923077,6784863a028ac25ee3f395ee,687ed1b7e638a4cbf2f02089,6880362662d8a648d7c2b5e6,,,,,,,,,,,,,37,1,,./stim/wavs/mexican_mismatch_interrogative-total-yn_La-maestra-vive-en-Paris.wav,,,,,,,,,,,,,,,,,,,,,,476.443,478.783,1,1,1.833,,0,64,64,36,1,0,mexican,,,,,,,,,,,,,,,,,,,,,,,,,,,,,,,,,,,,,,,,,,,,,,,,,,,,,,,,
,,,,,,,,,6784863a028ac25ee3f395ee,Spanish,13 or older,"no, only English or Spanish",no,2025-07-22_21h09.36.696,empathy_intonation_perc,2024.2.4,Win32,120.1923077,6784863a028ac25ee3f395ee,687ed1b7e638a4cbf2f02089,6880362662d8a648d7c2b5e6,,,,,,,,,,,,,12,1,,./stim/wavs/cuban_match_interrogative-total-yn_Marta-abre-el-regalo.wav,,,,,,,,,,,,,,,,,,,,,,478.783,481.249,0,0,1.958,,0,65,65,11,1,1,cuban,,,,,,,,,,,,,,,,,,,,,,,,,,,,,,,,,,,,,,,,,,,,,,,,,,,,,,,,
,,,,,,,,,6784863a028ac25ee3f395ee,Spanish,13 or older,"no, only English or Spanish",no,2025-07-22_21h09.36.696,empathy_intonation_perc,2024.2.4,Win32,120.1923077,6784863a028ac25ee3f395ee,687ed1b7e638a4cbf2f02089,6880362662d8a648d7c2b5e6,,,,,,,,,,,,,66,0,,./stim/wavs/puertorican_match_declarative-broad-focus_Emilio-ama-la-marcha.wav,,,,,,,,,,,,,,,,,,,,,,481.25,483.733,0,1,1.973,,0,66,66,65,1,0,puertorican,,,,,,,,,,,,,,,,,,,,,,,,,,,,,,,,,,,,,,,,,,,,,,,,,,,,,,,,
,,,,,,,,,6784863a028ac25ee3f395ee,Spanish,13 or older,"no, only English or Spanish",no,2025-07-22_21h09.36.696,empathy_intonation_perc,2024.2.4,Win32,120.1923077,6784863a028ac25ee3f395ee,687ed1b7e638a4cbf2f02089,6880362662d8a648d7c2b5e6,,,,,,,,,,,,,25,1,,./stim/wavs/castilian_mismatch_interrogative-total-yn_La-maestra-vive-en-Paris.wav,,,,,,,,,,,,,,,,,,,,,,483.733,488.216,1,1,3.975,,0,67,67,24,1,0,castilian,,,,,,,,,,,,,,,,,,,,,,,,,,,,,,,,,,,,,,,,,,,,,,,,,,,,,,,,
,,,,,,,,,6784863a028ac25ee3f395ee,Spanish,13 or older,"no, only English or Spanish",no,2025-07-22_21h09.36.696,empathy_intonation_perc,2024.2.4,Win32,120.1923077,6784863a028ac25ee3f395ee,687ed1b7e638a4cbf2f02089,6880362662d8a648d7c2b5e6,,,,,,,,,,,,,86,0,,./stim/wavs/puertorican_mismatch_declarative-broad-focus_El-nino-oye-el-rio.wav,,,,,,,,,,,,,,,,,,,,,,488.217,491.29,1,0,2.561,,0,68,68,85,1,0,puertorican,,,,,,,,,,,,,,,,,,,,,,,,,,,,,,,,,,,,,,,,,,,,,,,,,,,,,,,,
,,,,,,,,,6784863a028ac25ee3f395ee,Spanish,13 or older,"no, only English or Spanish",no,2025-07-22_21h09.36.696,empathy_intonation_perc,2024.2.4,Win32,120.1923077,6784863a028ac25ee3f395ee,687ed1b7e638a4cbf2f02089,6880362662d8a648d7c2b5e6,,,,,,,,,,,,,45,0,,./stim/wavs/castilian_match_declarative-broad-focus_David-leia-el-libro.wav,,,,,,,,,,,,,,,,,,,,,,491.293,495.269,0,1,3.465,,0,69,69,44,1,0,castilian,,,,,,,,,,,,,,,,,,,,,,,,,,,,,,,,,,,,,,,,,,,,,,,,,,,,,,,,
,,,,,,,,,6784863a028ac25ee3f395ee,Spanish,13 or older,"no, only English or Spanish",no,2025-07-22_21h09.36.696,empathy_intonation_perc,2024.2.4,Win32,120.1923077,6784863a028ac25ee3f395ee,687ed1b7e638a4cbf2f02089,6880362662d8a648d7c2b5e6,,,,,,,,,,,,,33,1,,./stim/wavs/cuban_mismatch_interrogative-total-yn_Mi-novio-viene-del-lago.wav,,,,,,,,,,,,,,,,,,,,,,495.271,498.571,0,0,2.791,,0,70,70,32,1,1,cuban,,,,,,,,,,,,,,,,,,,,,,,,,,,,,,,,,,,,,,,,,,,,,,,,,,,,,,,,
,,,,,,,,,6784863a028ac25ee3f395ee,Spanish,13 or older,"no, only English or Spanish",no,2025-07-22_21h09.36.696,empathy_intonation_perc,2024.2.4,Win32,120.1923077,6784863a028ac25ee3f395ee,687ed1b7e638a4cbf2f02089,6880362662d8a648d7c2b5e6,,,,,,,,,,,,,43,1,,./stim/wavs/puertorican_mismatch_interrogative-total-yn_La-nina-lava-el-plato.wav,,,,,,,,,,,,,,,,,,,,,,498.571,501.252,0,0,2.171,,0,71,71,42,1,1,puertorican,,,,,,,,,,,,,,,,,,,,,,,,,,,,,,,,,,,,,,,,,,,,,,,,,,,,,,,,
,,,,,,,,,6784863a028ac25ee3f395ee,Spanish,13 or older,"no, only English or Spanish",no,2025-07-22_21h09.36.696,empathy_intonation_perc,2024.2.4,Win32,120.1923077,6784863a028ac25ee3f395ee,687ed1b7e638a4cbf2f02089,6880362662d8a648d7c2b5e6,,,,,,,,,,,,,50,0,,./stim/wavs/castilian_match_declarative-broad-focus_Marta-abre-el-regalo.wav,,,,,,,,,,,,,,,,,,,,,,501.253,504.12,0,1,2.358,,0,72,72,49,1,0,castilian,,,,,,,,,,,,,,,,,,,,,,,,,,,,,,,,,,,,,,,,,,,,,,,,,,,,,,,,
,,,,,,,,,6784863a028ac25ee3f395ee,Spanish,13 or older,"no, only English or Spanish",no,2025-07-22_21h09.36.696,empathy_intonation_perc,2024.2.4,Win32,120.1923077,6784863a028ac25ee3f395ee,687ed1b7e638a4cbf2f02089,6880362662d8a648d7c2b5e6,,,,,,,,,,,,,36,1,,./stim/wavs/mexican_mismatch_interrogative-total-yn_El-nino-oye-el-rio.wav,,,,,,,,,,,,,,,,,,,,,,504.121,506.701,1,1,2.072,,0,73,73,35,1,0,mexican,,,,,,,,,,,,,,,,,,,,,,,,,,,,,,,,,,,,,,,,,,,,,,,,,,,,,,,,
,,,,,,,,,6784863a028ac25ee3f395ee,Spanish,13 or older,"no, only English or Spanish",no,2025-07-22_21h09.36.696,empathy_intonation_perc,2024.2.4,Win32,120.1923077,6784863a028ac25ee3f395ee,687ed1b7e638a4cbf2f02089,6880362662d8a648d7c2b5e6,,,,,,,,,,,,,6,1,,./stim/wavs/castilian_match_interrogative-total-yn_Marta-abre-el-regalo.wav,,,,,,,,,,,,,,,,,,,,,,506.701,509.549,1,1,2.338,,0,74,74,5,1,0,castilian,,,,,,,,,,,,,,,,,,,,,,,,,,,,,,,,,,,,,,,,,,,,,,,,,,,,,,,,
,,,,,,,,,6784863a028ac25ee3f395ee,Spanish,13 or older,"no, only English or Spanish",no,2025-07-22_21h09.36.696,empathy_intonation_perc,2024.2.4,Win32,120.1923077,6784863a028ac25ee3f395ee,687ed1b7e638a4cbf2f02089,6880362662d8a648d7c2b5e6,,,,,,,,,,,,,16,1,,./stim/wavs/mexican_match_interrogative-total-yn_Emilio-ama-la-marcha.wav,,,,,,,,,,,,,,,,,,,,,,509.55,514.687,0,0,4.626,,0,75,75,15,1,0,mexican,,,,,,,,,,,,,,,,,,,,,,,,,,,,,,,,,,,,,,,,,,,,,,,,,,,,,,,,
,,,,,,,,,6784863a028ac25ee3f395ee,Spanish,13 or older,"no, only English or Spanish",no,2025-07-22_21h09.36.696,empathy_intonation_perc,2024.2.4,Win32,120.1923077,6784863a028ac25ee3f395ee,687ed1b7e638a4cbf2f02089,6880362662d8a648d7c2b5e6,,,,,,,,,,,,,30,1,,./stim/wavs/cuban_mismatch_interrogative-total-yn_El-hombre-mira-la-luna.wav,,,,,,,,,,,,,,,,,,,,,,514.688,517.485,0,0,2.289,,0,76,76,29,1,1,cuban,,,,,,,,,,,,,,,,,,,,,,,,,,,,,,,,,,,,,,,,,,,,,,,,,,,,,,,,
,,,,,,,,,6784863a028ac25ee3f395ee,Spanish,13 or older,"no, only English or Spanish",no,2025-07-22_21h09.36.696,empathy_intonation_perc,2024.2.4,Win32,120.1923077,6784863a028ac25ee3f395ee,687ed1b7e638a4cbf2f02089,6880362662d8a648d7c2b5e6,,,,,,,,,,,,,28,1,,./stim/wavs/castilian_mismatch_interrogative-total-yn_Mi-novio-viene-del-lago.wav,,,,,,,,,,,,,,,,,,,,,,517.486,519.85,1,1,1.858,,0,77,77,27,1,0,castilian,,,,,,,,,,,,,,,,,,,,,,,,,,,,,,,,,,,,,,,,,,,,,,,,,,,,,,,,
,,,,,,,,,6784863a028ac25ee3f395ee,Spanish,13 or older,"no, only English or Spanish",no,2025-07-22_21h09.36.696,empathy_intonation_perc,2024.2.4,Win32,120.1923077,6784863a028ac25ee3f395ee,687ed1b7e638a4cbf2f02089,6880362662d8a648d7c2b5e6,,,,,,,,,,,,,80,0,,./stim/wavs/mexican_mismatch_declarative-broad-focus_El-hombre-mira-la-luna.wav,,,,,,,,,,,,,,,,,,,,,,519.85,522.249,0,1,1.891,,0,78,78,79,1,0,mexican,,,,,,,,,,,,,,,,,,,,,,,,,,,,,,,,,,,,,,,,,,,,,,,,,,,,,,,,
,,,,,,,,,6784863a028ac25ee3f395ee,Spanish,13 or older,"no, only English or Spanish",no,2025-07-22_21h09.36.696,empathy_intonation_perc,2024.2.4,Win32,120.1923077,6784863a028ac25ee3f395ee,687ed1b7e638a4cbf2f02089,6880362662d8a648d7c2b5e6,,,,,,,,,,,,,21,1,,./stim/wavs/puertorican_match_interrogative-total-yn_David-leia-el-libro.wav,,,,,,,,,,,,,,,,,,,,,,522.25,525.597,1,1,2.836,,0,79,79,20,1,1,puertorican,,,,,,,,,,,,,,,,,,,,,,,,,,,,,,,,,,,,,,,,,,,,,,,,,,,,,,,,
,,,,,,,,,6784863a028ac25ee3f395ee,Spanish,13 or older,"no, only English or Spanish",no,2025-07-22_21h09.36.696,empathy_intonation_perc,2024.2.4,Win32,120.1923077,6784863a028ac25ee3f395ee,687ed1b7e638a4cbf2f02089,6880362662d8a648d7c2b5e6,,,,,,,,,,,,,55,0,,./stim/wavs/cuban_match_declarative-broad-focus_Mariano-habla-del-tiempo.wav,,,,,,,,,,,,,,,,,,,,,,525.598,527.7,0,1,1.595,,0,80,80,54,1,0,cuban,,,,,,,,,,,,,,,,,,,,,,,,,,,,,,,,,,,,,,,,,,,,,,,,,,,,,,,,
,,,,,,,,,6784863a028ac25ee3f395ee,Spanish,13 or older,"no, only English or Spanish",no,2025-07-22_21h09.36.696,empathy_intonation_perc,2024.2.4,Win32,120.1923077,6784863a028ac25ee3f395ee,687ed1b7e638a4cbf2f02089,6880362662d8a648d7c2b5e6,,,,,,,,,,,,,26,1,,./stim/wavs/castilian_mismatch_interrogative-total-yn_La-nina-lava-el-plato.wav,,,,,,,,,,,,,,,,,,,,,,527.701,529.936,1,1,1.728,,0,81,81,25,1,0,castilian,,,,,,,,,,,,,,,,,,,,,,,,,,,,,,,,,,,,,,,,,,,,,,,,,,,,,,,,
,,,,,,,,,6784863a028ac25ee3f395ee,Spanish,13 or older,"no, only English or Spanish",no,2025-07-22_21h09.36.696,empathy_intonation_perc,2024.2.4,Win32,120.1923077,6784863a028ac25ee3f395ee,687ed1b7e638a4cbf2f02089,6880362662d8a648d7c2b5e6,,,,,,,,,,,,,84,0,,./stim/wavs/puertorican_mismatch_declarative-broad-focus_El-bebe-comia-muy-bien.wav,,,,,,,,,,,,,,,,,,,,,,529.938,532.079,0,1,1.632,,0,82,82,83,1,0,puertorican,,,,,,,,,,,,,,,,,,,,,,,,,,,,,,,,,,,,,,,,,,,,,,,,,,,,,,,,
,,,,,,,,,6784863a028ac25ee3f395ee,Spanish,13 or older,"no, only English or Spanish",no,2025-07-22_21h09.36.696,empathy_intonation_perc,2024.2.4,Win32,120.1923077,6784863a028ac25ee3f395ee,687ed1b7e638a4cbf2f02089,6880362662d8a648d7c2b5e6,,,,,,,,,,,,,51,0,,./stim/wavs/cuban_match_declarative-broad-focus_Ana-lleva-el-abrigo.wav,,,,,,,,,,,,,,,,,,,,,,532.08,535.36,0,1,2.77,,0,83,83,50,1,0,cuban,,,,,,,,,,,,,,,,,,,,,,,,,,,,,,,,,,,,,,,,,,,,,,,,,,,,,,,,
,,,,,,,,,6784863a028ac25ee3f395ee,Spanish,13 or older,"no, only English or Spanish",no,2025-07-22_21h09.36.696,empathy_intonation_perc,2024.2.4,Win32,120.1923077,6784863a028ac25ee3f395ee,687ed1b7e638a4cbf2f02089,6880362662d8a648d7c2b5e6,,,,,,,,,,,,,53,0,,./stim/wavs/cuban_match_declarative-broad-focus_Manuela-vende-el-carro.wav,,,,,,,,,,,,,,,,,,,,,,535.361,538.205,0,1,2.335,,0,84,84,52,1,0,cuban,,,,,,,,,,,,,,,,,,,,,,,,,,,,,,,,,,,,,,,,,,,,,,,,,,,,,,,,
,,,,,,,,,6784863a028ac25ee3f395ee,Spanish,13 or older,"no, only English or Spanish",no,2025-07-22_21h09.36.696,empathy_intonation_perc,2024.2.4,Win32,120.1923077,6784863a028ac25ee3f395ee,687ed1b7e638a4cbf2f02089,6880362662d8a648d7c2b5e6,,,,,,,,,,,,,15,1,,./stim/wavs/mexican_match_interrogative-total-yn_David-leia-el-libro.wav,,,,,,,,,,,,,,,,,,,,,,538.207,540.591,1,1,1.877,,0,85,85,14,1,0,mexican,,,,,,,,,,,,,,,,,,,,,,,,,,,,,,,,,,,,,,,,,,,,,,,,,,,,,,,,
,,,,,,,,,6784863a028ac25ee3f395ee,Spanish,13 or older,"no, only English or Spanish",no,2025-07-22_21h09.36.696,empathy_intonation_perc,2024.2.4,Win32,120.1923077,6784863a028ac25ee3f395ee,687ed1b7e638a4cbf2f02089,6880362662d8a648d7c2b5e6,,,,,,,,,,,,,23,1,,./stim/wavs/puertorican_match_interrogative-total-yn_Manuela-vende-el-carro.wav,,,,,,,,,,,,,,,,,,,,,,540.592,546.603,0,0,5.504,,0,86,86,22,1,1,puertorican,,,,,,,,,,,,,,,,,,,,,,,,,,,,,,,,,,,,,,,,,,,,,,,,,,,,,,,,
,,,,,,,,,6784863a028ac25ee3f395ee,Spanish,13 or older,"no, only English or Spanish",no,2025-07-22_21h09.36.696,empathy_intonation_perc,2024.2.4,Win32,120.1923077,6784863a028ac25ee3f395ee,687ed1b7e638a4cbf2f02089,6880362662d8a648d7c2b5e6,,,,,,,,,,,,,73,0,,./stim/wavs/castilian_mismatch_declarative-broad-focus_Mi-tia-odia-la-lluvia.wav,,,,,,,,,,,,,,,,,,,,,,546.604,549.167,0,1,2.056,,0,87,87,72,1,0,castilian,,,,,,,,,,,,,,,,,,,,,,,,,,,,,,,,,,,,,,,,,,,,,,,,,,,,,,,,
,,,,,,,"Great! Now we will move on. The next task consists of about 60 trials, in each of which you will see a string of letters. 
  
  Your task is to decide whether this is a real Spanish word or not.", (press the spacebar to continue),6784863a028ac25ee3f395ee,Spanish,13 or older,"no, only English or Spanish",no,2025-07-22_21h09.36.696,empathy_intonation_perc,2024.2.4,Win32,120.1923077,6784863a028ac25ee3f395ee,687ed1b7e638a4cbf2f02089,6880362662d8a648d7c2b5e6,,,,,,,,,,,,,,,,,,,,,,,,,,,,,,,,,,,,,,,,,,,,,,,,,,,549.177,558.358,0,0,0,0,1,,,,,,,,,,,,,,,,,,,,,,,,,,,,,,,,,,,,,,,,,,,,,,,,,
,,,,,,,"If you think it is an existing Spanish word, you type '1' (for 'REAL'), and if you think it is not an existing Spanish word, you type '0' (for 'FAKE').", (press the spacebar to continue),6784863a028ac25ee3f395ee,Spanish,13 or older,"no, only English or Spanish",no,2025-07-22_21h09.36.696,empathy_intonation_perc,2024.2.4,Win32,120.1923077,6784863a028ac25ee3f395ee,687ed1b7e638a4cbf2f02089,6880362662d8a648d7c2b5e6,,,,,,,,,,,,,,,,,,,,,,,,,,,,,,,,,,,,,,,,,,,,,,,,,,,558.364,565.285,0,1,1,1,1,,,,,,,,,,,,,,,,,,,,,,,,,,,,,,,,,,,,,,,,,,,,,,,,,
,,,,,,,"If you are sure that the word exists, even though you don’t know its exact meaning, you may still respond '1' (REAL). 
  
  But if you are not sure if it is an existing word, you should respond '0' (FAKE).
  
  Let's do a practice round...", (press the spacebar to continue),6784863a028ac25ee3f395ee,Spanish,13 or older,"no, only English or Spanish",no,2025-07-22_21h09.36.696,empathy_intonation_perc,2024.2.4,Win32,120.1923077,6784863a028ac25ee3f395ee,687ed1b7e638a4cbf2f02089,6880362662d8a648d7c2b5e6,,,,,,,,,,,,,,,,,,,,,,,,,,,,,,,,,,,,,,,,,,,,,,,,,,,565.287,575.769,0,2,2,2,1,,,,,,,,,,,,,,,,,,,,,,,,,,,,,,,,,,,,,,,,,,,,,,,,,
,,,,,,,,,6784863a028ac25ee3f395ee,Spanish,13 or older,"no, only English or Spanish",no,2025-07-22_21h09.36.696,empathy_intonation_perc,2024.2.4,Win32,120.1923077,6784863a028ac25ee3f395ee,687ed1b7e638a4cbf2f02089,6880362662d8a648d7c2b5e6,,,,,,,,,,,,,,0,,,,,,,,,,,,,,,,,,,,,,,,,,,,,,,,,,,,,,,,,,,,575.781,585.074,0,1,8.758,,585.074,586.074,0,0,0,0,1,0,depiste,REAL,FAKE,,,,,,,,,,,,,,,,,,,,,,,,,,,,,,,,
,,,,,,,,,6784863a028ac25ee3f395ee,Spanish,13 or older,"no, only English or Spanish",no,2025-07-22_21h09.36.696,empathy_intonation_perc,2024.2.4,Win32,120.1923077,6784863a028ac25ee3f395ee,687ed1b7e638a4cbf2f02089,6880362662d8a648d7c2b5e6,,,,,,,,,,,,,,1,,,,,,,,,,,,,,,,,,,,,,,,,,,,,,,,,,,,,,,,,,,,586.077,587.928,1,1,1.335,,587.928,588.923,0,1,1,1,1,0,sí,REAL,FAKE,,,,,,,,,,,,,,,,,,,,,,,,,,,,,,,,
,,,,,,,,,6784863a028ac25ee3f395ee,Spanish,13 or older,"no, only English or Spanish",no,2025-07-22_21h09.36.696,empathy_intonation_perc,2024.2.4,Win32,120.1923077,6784863a028ac25ee3f395ee,687ed1b7e638a4cbf2f02089,6880362662d8a648d7c2b5e6,,,,,,,,,,,,,,0,,,,,,,,,,,,,,,,,,,,,,,,,,,,,,,,,,,,,,,,,,,,588.926,592.109,0,1,2.665,,592.109,593.104,0,2,2,2,1,0,coné,REAL,FAKE,,,,,,,,,,,,,,,,,,,,,,,,,,,,,,,,
,,,,,,,,,6784863a028ac25ee3f395ee,Spanish,13 or older,"no, only English or Spanish",no,2025-07-22_21h09.36.696,empathy_intonation_perc,2024.2.4,Win32,120.1923077,6784863a028ac25ee3f395ee,687ed1b7e638a4cbf2f02089,6880362662d8a648d7c2b5e6,,,,,,,,,,,,,,0,,,,,,,,,,,,,,,,,,,,,,,,,,,,,,,,,,,,,,,,,,,,593.106,599.043,0,1,5.422,,599.043,600.042,0,3,3,3,1,0,calpar,REAL,FAKE,,,,,,,,,,,,,,,,,,,,,,,,,,,,,,,,
,,,,,,,,,6784863a028ac25ee3f395ee,Spanish,13 or older,"no, only English or Spanish",no,2025-07-22_21h09.36.696,empathy_intonation_perc,2024.2.4,Win32,120.1923077,6784863a028ac25ee3f395ee,687ed1b7e638a4cbf2f02089,6880362662d8a648d7c2b5e6,,,,,,,,,,,,,,0,,,,,,,,,,,,,,,,,,,,,,,,,,,,,,,,,,,,,,,,,,,,600.044,603.159,0,1,2.596,,603.159,604.158,0,4,4,4,1,0,joten,REAL,FAKE,,,,,,,,,,,,,,,,,,,,,,,,,,,,,,,,
,,,,,,,,,6784863a028ac25ee3f395ee,Spanish,13 or older,"no, only English or Spanish",no,2025-07-22_21h09.36.696,empathy_intonation_perc,2024.2.4,Win32,120.1923077,6784863a028ac25ee3f395ee,687ed1b7e638a4cbf2f02089,6880362662d8a648d7c2b5e6,,,,,,,,,,,,,,1,,,,,,,,,,,,,,,,,,,,,,,,,,,,,,,,,,,,,,,,,,,,604.159,607.455,1,1,2.764,,607.456,608.454,0,5,5,5,1,0,sacapuntas,REAL,FAKE,,,,,,,,,,,,,,,,,,,,,,,,,,,,,,,,
,,,,,,,,,6784863a028ac25ee3f395ee,Spanish,13 or older,"no, only English or Spanish",no,2025-07-22_21h09.36.696,empathy_intonation_perc,2024.2.4,Win32,120.1923077,6784863a028ac25ee3f395ee,687ed1b7e638a4cbf2f02089,6880362662d8a648d7c2b5e6,,,,,,,,,,,,,,0,,,,,,,,,,,,,,,,,,,,,,,,,,,,,,,,,,,,,,,,,,,,608.455,610.202,1,0,1.229,,610.204,611.199,0,6,6,6,1,0,priba,REAL,FAKE,,,,,,,,,,,,,,,,,,,,,,,,,,,,,,,,
,,,,,,,,,6784863a028ac25ee3f395ee,Spanish,13 or older,"no, only English or Spanish",no,2025-07-22_21h09.36.696,empathy_intonation_perc,2024.2.4,Win32,120.1923077,6784863a028ac25ee3f395ee,687ed1b7e638a4cbf2f02089,6880362662d8a648d7c2b5e6,,,,,,,,,,,,,,0,,,,,,,,,,,,,,,,,,,,,,,,,,,,,,,,,,,,,,,,,,,,611.201,615.167,0,1,3.449,,615.169,616.169,0,7,7,7,1,0,pelasula,REAL,FAKE,,,,,,,,,,,,,,,,,,,,,,,,,,,,,,,,
,,,,,,,,,6784863a028ac25ee3f395ee,Spanish,13 or older,"no, only English or Spanish",no,2025-07-22_21h09.36.696,empathy_intonation_perc,2024.2.4,Win32,120.1923077,6784863a028ac25ee3f395ee,687ed1b7e638a4cbf2f02089,6880362662d8a648d7c2b5e6,,,,,,,,,,,,,,1,,,,,,,,,,,,,,,,,,,,,,,,,,,,,,,,,,,,,,,,,,,,616.171,617.549,1,1,0.861,,617.549,618.545,0,8,8,8,1,0,bien,REAL,FAKE,,,,,,,,,,,,,,,,,,,,,,,,,,,,,,,,
,,,,,,,,,6784863a028ac25ee3f395ee,Spanish,13 or older,"no, only English or Spanish",no,2025-07-22_21h09.36.696,empathy_intonation_perc,2024.2.4,Win32,120.1923077,6784863a028ac25ee3f395ee,687ed1b7e638a4cbf2f02089,6880362662d8a648d7c2b5e6,,,,,,,,,,,,,,1,,,,,,,,,,,,,,,,,,,,,,,,,,,,,,,,,,,,,,,,,,,,618.546,619.898,1,1,0.829,,619.898,620.894,0,9,9,9,1,0,casa,REAL,FAKE,,,,,,,,,,,,,,,,,,,,,,,,,,,,,,,,
,,,,,,,,,6784863a028ac25ee3f395ee,Spanish,13 or older,"no, only English or Spanish",no,2025-07-22_21h09.36.696,empathy_intonation_perc,2024.2.4,Win32,120.1923077,6784863a028ac25ee3f395ee,687ed1b7e638a4cbf2f02089,6880362662d8a648d7c2b5e6,,,,,,,,,,,,,,0,,,,,,,,,,,,,,,,,,,,,,,,,,,,,,,,,,,,,,,,,,,,620.896,622.495,0,1,1.065,,622.495,623.493,0,10,10,10,1,0,lejo,REAL,FAKE,,,,,,,,,,,,,,,,,,,,,,,,,,,,,,,,
,,,,,,,,,6784863a028ac25ee3f395ee,Spanish,13 or older,"no, only English or Spanish",no,2025-07-22_21h09.36.696,empathy_intonation_perc,2024.2.4,Win32,120.1923077,6784863a028ac25ee3f395ee,687ed1b7e638a4cbf2f02089,6880362662d8a648d7c2b5e6,,,,,,,,,,,,,,0,,,,,,,,,,,,,,,,,,,,,,,,,,,,,,,,,,,,,,,,,,,,623.495,625.351,0,1,1.34,,625.351,626.349,0,11,11,11,1,0,pretantas,REAL,FAKE,,,,,,,,,,,,,,,,,,,,,,,,,,,,,,,,
,,,,,,,,,6784863a028ac25ee3f395ee,Spanish,13 or older,"no, only English or Spanish",no,2025-07-22_21h09.36.696,empathy_intonation_perc,2024.2.4,Win32,120.1923077,6784863a028ac25ee3f395ee,687ed1b7e638a4cbf2f02089,6880362662d8a648d7c2b5e6,,,,,,,,,,,,,,,,,,,,,,,,,,,,,,,,,,,,,,,,,,,,,,,,,,,,,,,,,,,,,,,,,,,,,,,,,,,626.349,627.619,,,,,,,,,,,,,,,,,,,,,,,,,,,,,,
,,,,,,,,,6784863a028ac25ee3f395ee,Spanish,13 or older,"no, only English or Spanish",no,2025-07-22_21h09.36.696,empathy_intonation_perc,2024.2.4,Win32,120.1923077,6784863a028ac25ee3f395ee,687ed1b7e638a4cbf2f02089,6880362662d8a648d7c2b5e6,,,,,,,,,,,,,,1,,,,,,,,,,,,,,,,,,,,,,,,,,,,,,,,,,,,,,,,,,,,,,,,,,,,,,,,,59,besar,,,,,627.633,631.345,0,0,3.183,,0,0,0,58,1,REAL,FAKE,,,,,,,,,,,,,,,,,
,,,,,,,,,6784863a028ac25ee3f395ee,Spanish,13 or older,"no, only English or Spanish",no,2025-07-22_21h09.36.696,empathy_intonation_perc,2024.2.4,Win32,120.1923077,6784863a028ac25ee3f395ee,687ed1b7e638a4cbf2f02089,6880362662d8a648d7c2b5e6,,,,,,,,,,,,,,1,,,,,,,,,,,,,,,,,,,,,,,,,,,,,,,,,,,,,,,,,,,,,,,,,,,,,,,,,24,látigo,,,,,631.346,633.56,0,0,1.696,,0,1,1,23,1,REAL,FAKE,,,,,,,,,,,,,,,,,
,,,,,,,,,6784863a028ac25ee3f395ee,Spanish,13 or older,"no, only English or Spanish",no,2025-07-22_21h09.36.696,empathy_intonation_perc,2024.2.4,Win32,120.1923077,6784863a028ac25ee3f395ee,687ed1b7e638a4cbf2f02089,6880362662d8a648d7c2b5e6,,,,,,,,,,,,,,0,,,,,,,,,,,,,,,,,,,,,,,,,,,,,,,,,,,,,,,,,,,,,,,,,,,,,,,,,35,rompido,,,,,633.56,635.393,0,1,1.3,,0,2,2,34,1,REAL,FAKE,,,,,,,,,,,,,,,,,
,,,,,,,,,6784863a028ac25ee3f395ee,Spanish,13 or older,"no, only English or Spanish",no,2025-07-22_21h09.36.696,empathy_intonation_perc,2024.2.4,Win32,120.1923077,6784863a028ac25ee3f395ee,687ed1b7e638a4cbf2f02089,6880362662d8a648d7c2b5e6,,,,,,,,,,,,,,1,,,,,,,,,,,,,,,,,,,,,,,,,,,,,,,,,,,,,,,,,,,,,,,,,,,,,,,,,38,estornudar,,,,,635.394,637.33,0,0,1.422,,0,3,3,37,1,REAL,FAKE,,,,,,,,,,,,,,,,,
,,,,,,,,,6784863a028ac25ee3f395ee,Spanish,13 or older,"no, only English or Spanish",no,2025-07-22_21h09.36.696,empathy_intonation_perc,2024.2.4,Win32,120.1923077,6784863a028ac25ee3f395ee,687ed1b7e638a4cbf2f02089,6880362662d8a648d7c2b5e6,,,,,,,,,,,,,,1,,,,,,,,,,,,,,,,,,,,,,,,,,,,,,,,,,,,,,,,,,,,,,,,,,,,,,,,,28,merodear,,,,,637.331,639.935,0,0,2.078,,0,4,4,27,1,REAL,FAKE,,,,,,,,,,,,,,,,,
,,,,,,,,,6784863a028ac25ee3f395ee,Spanish,13 or older,"no, only English or Spanish",no,2025-07-22_21h09.36.696,empathy_intonation_perc,2024.2.4,Win32,120.1923077,6784863a028ac25ee3f395ee,687ed1b7e638a4cbf2f02089,6880362662d8a648d7c2b5e6,,,,,,,,,,,,,,0,,,,,,,,,,,,,,,,,,,,,,,,,,,,,,,,,,,,,,,,,,,,,,,,,,,,,,,,,33,pauca,,,,,639.936,642.179,0,1,1.729,,0,5,5,32,1,REAL,FAKE,,,,,,,,,,,,,,,,,
,,,,,,,,,6784863a028ac25ee3f395ee,Spanish,13 or older,"no, only English or Spanish",no,2025-07-22_21h09.36.696,empathy_intonation_perc,2024.2.4,Win32,120.1923077,6784863a028ac25ee3f395ee,687ed1b7e638a4cbf2f02089,6880362662d8a648d7c2b5e6,,,,,,,,,,,,,,1,,,,,,,,,,,,,,,,,,,,,,,,,,,,,,,,,,,,,,,,,,,,,,,,,,,,,,,,,31,pandilla,,,,,642.18,644.749,1,1,2.047,,0,6,6,30,1,REAL,FAKE,,,,,,,,,,,,,,,,,
,,,,,,,,,6784863a028ac25ee3f395ee,Spanish,13 or older,"no, only English or Spanish",no,2025-07-22_21h09.36.696,empathy_intonation_perc,2024.2.4,Win32,120.1923077,6784863a028ac25ee3f395ee,687ed1b7e638a4cbf2f02089,6880362662d8a648d7c2b5e6,,,,,,,,,,,,,,1,,,,,,,,,,,,,,,,,,,,,,,,,,,,,,,,,,,,,,,,,,,,,,,,,,,,,,,,,6,tergiversar,,,,,644.749,647.661,0,0,2.387,,0,7,7,5,1,REAL,FAKE,,,,,,,,,,,,,,,,,
,,,,,,,,,6784863a028ac25ee3f395ee,Spanish,13 or older,"no, only English or Spanish",no,2025-07-22_21h09.36.696,empathy_intonation_perc,2024.2.4,Win32,120.1923077,6784863a028ac25ee3f395ee,687ed1b7e638a4cbf2f02089,6880362662d8a648d7c2b5e6,,,,,,,,,,,,,,0,,,,,,,,,,,,,,,,,,,,,,,,,,,,,,,,,,,,,,,,,,,,,,,,,,,,,,,,,70,temblo,,,,,647.663,649.837,0,1,1.652,,0,8,8,69,1,REAL,FAKE,,,,,,,,,,,,,,,,,
,,,,,,,,,6784863a028ac25ee3f395ee,Spanish,13 or older,"no, only English or Spanish",no,2025-07-22_21h09.36.696,empathy_intonation_perc,2024.2.4,Win32,120.1923077,6784863a028ac25ee3f395ee,687ed1b7e638a4cbf2f02089,6880362662d8a648d7c2b5e6,,,,,,,,,,,,,,0,,,,,,,,,,,,,,,,,,,,,,,,,,,,,,,,,,,,,,,,,,,,,,,,,,,,,,,,,1,terzo,,,,,649.837,653.919,0,1,3.555,,0,9,9,0,1,REAL,FAKE,,,,,,,,,,,,,,,,,
,,,,,,,,,6784863a028ac25ee3f395ee,Spanish,13 or older,"no, only English or Spanish",no,2025-07-22_21h09.36.696,empathy_intonation_perc,2024.2.4,Win32,120.1923077,6784863a028ac25ee3f395ee,687ed1b7e638a4cbf2f02089,6880362662d8a648d7c2b5e6,,,,,,,,,,,,,,0,,,,,,,,,,,,,,,,,,,,,,,,,,,,,,,,,,,,,,,,,,,,,,,,,,,,,,,,,4,batillón,,,,,653.923,655.971,1,0,1.524,,0,10,10,3,1,REAL,FAKE,,,,,,,,,,,,,,,,,
,,,,,,,,,6784863a028ac25ee3f395ee,Spanish,13 or older,"no, only English or Spanish",no,2025-07-22_21h09.36.696,empathy_intonation_perc,2024.2.4,Win32,120.1923077,6784863a028ac25ee3f395ee,687ed1b7e638a4cbf2f02089,6880362662d8a648d7c2b5e6,,,,,,,,,,,,,,1,,,,,,,,,,,,,,,,,,,,,,,,,,,,,,,,,,,,,,,,,,,,,,,,,,,,,,,,,49,ganar,,,,,655.973,657.543,1,1,1.041,,0,11,11,48,1,REAL,FAKE,,,,,,,,,,,,,,,,,
,,,,,,,,,6784863a028ac25ee3f395ee,Spanish,13 or older,"no, only English or Spanish",no,2025-07-22_21h09.36.696,empathy_intonation_perc,2024.2.4,Win32,120.1923077,6784863a028ac25ee3f395ee,687ed1b7e638a4cbf2f02089,6880362662d8a648d7c2b5e6,,,,,,,,,,,,,,1,,,,,,,,,,,,,,,,,,,,,,,,,,,,,,,,,,,,,,,,,,,,,,,,,,,,,,,,,41,rebuscar,,,,,657.545,659.821,1,1,1.748,,0,12,12,40,1,REAL,FAKE,,,,,,,,,,,,,,,,,
,,,,,,,,,6784863a028ac25ee3f395ee,Spanish,13 or older,"no, only English or Spanish",no,2025-07-22_21h09.36.696,empathy_intonation_perc,2024.2.4,Win32,120.1923077,6784863a028ac25ee3f395ee,687ed1b7e638a4cbf2f02089,6880362662d8a648d7c2b5e6,,,,,,,,,,,,,,1,,,,,,,,,,,,,,,,,,,,,,,,,,,,,,,,,,,,,,,,,,,,,,,,,,,,,,,,,48,ladrón,,,,,659.823,661.204,0,0,0.864,,0,13,13,47,1,REAL,FAKE,,,,,,,,,,,,,,,,,
,,,,,,,,,6784863a028ac25ee3f395ee,Spanish,13 or older,"no, only English or Spanish",no,2025-07-22_21h09.36.696,empathy_intonation_perc,2024.2.4,Win32,120.1923077,6784863a028ac25ee3f395ee,687ed1b7e638a4cbf2f02089,6880362662d8a648d7c2b5e6,,,,,,,,,,,,,,0,,,,,,,,,,,,,,,,,,,,,,,,,,,,,,,,,,,,,,,,,,,,,,,,,,,,,,,,,29,decar,,,,,661.206,663.875,0,1,2.147,,0,14,14,28,1,REAL,FAKE,,,,,,,,,,,,,,,,,
,,,,,,,,,6784863a028ac25ee3f395ee,Spanish,13 or older,"no, only English or Spanish",no,2025-07-22_21h09.36.696,empathy_intonation_perc,2024.2.4,Win32,120.1923077,6784863a028ac25ee3f395ee,687ed1b7e638a4cbf2f02089,6880362662d8a648d7c2b5e6,,,,,,,,,,,,,,0,,,,,,,,,,,,,,,,,,,,,,,,,,,,,,,,,,,,,,,,,,,,,,,,,,,,,,,,,92,click the 0 key.,,,,,663.876,665.4,0,1,0.993,,0,15,15,91,1,REAL,FAKE,,,,,,,,,,,,,,,,,
,,,,,,,,,6784863a028ac25ee3f395ee,Spanish,13 or older,"no, only English or Spanish",no,2025-07-22_21h09.36.696,empathy_intonation_perc,2024.2.4,Win32,120.1923077,6784863a028ac25ee3f395ee,687ed1b7e638a4cbf2f02089,6880362662d8a648d7c2b5e6,,,,,,,,,,,,,,1,,,,,,,,,,,,,,,,,,,,,,,,,,,,,,,,,,,,,,,,,,,,,,,,,,,,,,,,,56,musgo,,,,,665.402,669.932,0,0,4.01,,0,16,16,55,1,REAL,FAKE,,,,,,,,,,,,,,,,,
,,,,,,,,,6784863a028ac25ee3f395ee,Spanish,13 or older,"no, only English or Spanish",no,2025-07-22_21h09.36.696,empathy_intonation_perc,2024.2.4,Win32,120.1923077,6784863a028ac25ee3f395ee,687ed1b7e638a4cbf2f02089,6880362662d8a648d7c2b5e6,,,,,,,,,,,,,,1,,,,,,,,,,,,,,,,,,,,,,,,,,,,,,,,,,,,,,,,,,,,,,,,,,,,,,,,,61,seda,,,,,669.933,671.506,0,0,1.055,,0,17,17,60,1,REAL,FAKE,,,,,,,,,,,,,,,,,
,,,,,,,,,6784863a028ac25ee3f395ee,Spanish,13 or older,"no, only English or Spanish",no,2025-07-22_21h09.36.696,empathy_intonation_perc,2024.2.4,Win32,120.1923077,6784863a028ac25ee3f395ee,687ed1b7e638a4cbf2f02089,6880362662d8a648d7c2b5e6,,,,,,,,,,,,,,1,,,,,,,,,,,,,,,,,,,,,,,,,,,,,,,,,,,,,,,,,,,,,,,,,,,,,,,,,75,yacer,,,,,671.508,674.432,1,1,2.406,,0,18,18,74,1,REAL,FAKE,,,,,,,,,,,,,,,,,
,,,,,,,,,6784863a028ac25ee3f395ee,Spanish,13 or older,"no, only English or Spanish",no,2025-07-22_21h09.36.696,empathy_intonation_perc,2024.2.4,Win32,120.1923077,6784863a028ac25ee3f395ee,687ed1b7e638a4cbf2f02089,6880362662d8a648d7c2b5e6,,,,,,,,,,,,,,1,,,,,,,,,,,,,,,,,,,,,,,,,,,,,,,,,,,,,,,,,,,,,,,,,,,,,,,,,85,laúd,,,,,674.434,676.113,0,0,1.157,,0,19,19,84,1,REAL,FAKE,,,,,,,,,,,,,,,,,
,,,,,,,,,6784863a028ac25ee3f395ee,Spanish,13 or older,"no, only English or Spanish",no,2025-07-22_21h09.36.696,empathy_intonation_perc,2024.2.4,Win32,120.1923077,6784863a028ac25ee3f395ee,687ed1b7e638a4cbf2f02089,6880362662d8a648d7c2b5e6,,,,,,,,,,,,,,1,,,,,,,,,,,,,,,,,,,,,,,,,,,,,,,,,,,,,,,,,,,,,,,,,,,,,,,,,40,alfombra,,,,,676.114,677.953,0,0,1.311,,0,20,20,39,1,REAL,FAKE,,,,,,,,,,,,,,,,,
,,,,,,,,,6784863a028ac25ee3f395ee,Spanish,13 or older,"no, only English or Spanish",no,2025-07-22_21h09.36.696,empathy_intonation_perc,2024.2.4,Win32,120.1923077,6784863a028ac25ee3f395ee,687ed1b7e638a4cbf2f02089,6880362662d8a648d7c2b5e6,,,,,,,,,,,,,,0,,,,,,,,,,,,,,,,,,,,,,,,,,,,,,,,,,,,,,,,,,,,,,,,,,,,,,,,,47,cartinar,,,,,677.954,679.495,0,1,1.023,,0,21,21,46,1,REAL,FAKE,,,,,,,,,,,,,,,,,
,,,,,,,,,6784863a028ac25ee3f395ee,Spanish,13 or older,"no, only English or Spanish",no,2025-07-22_21h09.36.696,empathy_intonation_perc,2024.2.4,Win32,120.1923077,6784863a028ac25ee3f395ee,687ed1b7e638a4cbf2f02089,6880362662d8a648d7c2b5e6,,,,,,,,,,,,,,0,,,,,,,,,,,,,,,,,,,,,,,,,,,,,,,,,,,,,,,,,,,,,,,,,,,,,,,,,32,fatacidad,,,,,679.495,681.179,0,1,1.166,,0,22,22,31,1,REAL,FAKE,,,,,,,,,,,,,,,,,
,,,,,,,,,6784863a028ac25ee3f395ee,Spanish,13 or older,"no, only English or Spanish",no,2025-07-22_21h09.36.696,empathy_intonation_perc,2024.2.4,Win32,120.1923077,6784863a028ac25ee3f395ee,687ed1b7e638a4cbf2f02089,6880362662d8a648d7c2b5e6,,,,,,,,,,,,,,1,,,,,,,,,,,,,,,,,,,,,,,,,,,,,,,,,,,,,,,,,,,,,,,,,,,,,,,,,91,click the 1 key.,,,,,681.184,682.763,1,1,1.05,,0,23,23,90,1,REAL,FAKE,,,,,,,,,,,,,,,,,
,,,,,,,,,6784863a028ac25ee3f395ee,Spanish,13 or older,"no, only English or Spanish",no,2025-07-22_21h09.36.696,empathy_intonation_perc,2024.2.4,Win32,120.1923077,6784863a028ac25ee3f395ee,687ed1b7e638a4cbf2f02089,6880362662d8a648d7c2b5e6,,,,,,,,,,,,,,1,,,,,,,,,,,,,,,,,,,,,,,,,,,,,,,,,,,,,,,,,,,,,,,,,,,,,,,,,2,pellizcar,,,,,682.764,685.075,0,0,1.793,,0,24,24,1,1,REAL,FAKE,,,,,,,,,,,,,,,,,
,,,,,,,,,6784863a028ac25ee3f395ee,Spanish,13 or older,"no, only English or Spanish",no,2025-07-22_21h09.36.696,empathy_intonation_perc,2024.2.4,Win32,120.1923077,6784863a028ac25ee3f395ee,687ed1b7e638a4cbf2f02089,6880362662d8a648d7c2b5e6,,,,,,,,,,,,,,0,,,,,,,,,,,,,,,,,,,,,,,,,,,,,,,,,,,,,,,,,,,,,,,,,,,,,,,,,19,brecedad,,,,,685.076,686.629,0,1,1.024,,0,25,25,18,1,REAL,FAKE,,,,,,,,,,,,,,,,,
,,,,,,,,,6784863a028ac25ee3f395ee,Spanish,13 or older,"no, only English or Spanish",no,2025-07-22_21h09.36.696,empathy_intonation_perc,2024.2.4,Win32,120.1923077,6784863a028ac25ee3f395ee,687ed1b7e638a4cbf2f02089,6880362662d8a648d7c2b5e6,,,,,,,,,,,,,,1,,,,,,,,,,,,,,,,,,,,,,,,,,,,,,,,,,,,,,,,,,,,,,,,,,,,,,,,,67,cabello,,,,,686.63,689.14,1,1,1.981,,0,26,26,66,1,REAL,FAKE,,,,,,,,,,,,,,,,,
,,,,,,,,,6784863a028ac25ee3f395ee,Spanish,13 or older,"no, only English or Spanish",no,2025-07-22_21h09.36.696,empathy_intonation_perc,2024.2.4,Win32,120.1923077,6784863a028ac25ee3f395ee,687ed1b7e638a4cbf2f02089,6880362662d8a648d7c2b5e6,,,,,,,,,,,,,,1,,,,,,,,,,,,,,,,,,,,,,,,,,,,,,,,,,,,,,,,,,,,,,,,,,,,,,,,,88,acantilado,,,,,689.142,692.377,0,0,2.702,,0,27,27,87,1,REAL,FAKE,,,,,,,,,,,,,,,,,
,,,,,,,,,6784863a028ac25ee3f395ee,Spanish,13 or older,"no, only English or Spanish",no,2025-07-22_21h09.36.696,empathy_intonation_perc,2024.2.4,Win32,120.1923077,6784863a028ac25ee3f395ee,687ed1b7e638a4cbf2f02089,6880362662d8a648d7c2b5e6,,,,,,,,,,,,,,0,,,,,,,,,,,,,,,,,,,,,,,,,,,,,,,,,,,,,,,,,,,,,,,,,,,,,,,,,82,empirador,,,,,692.378,693.953,0,1,1.053,,0,28,28,81,1,REAL,FAKE,,,,,,,,,,,,,,,,,
,,,,,,,,,6784863a028ac25ee3f395ee,Spanish,13 or older,"no, only English or Spanish",no,2025-07-22_21h09.36.696,empathy_intonation_perc,2024.2.4,Win32,120.1923077,6784863a028ac25ee3f395ee,687ed1b7e638a4cbf2f02089,6880362662d8a648d7c2b5e6,,,,,,,,,,,,,,0,,,,,,,,,,,,,,,,,,,,,,,,,,,,,,,,,,,,,,,,,,,,,,,,,,,,,,,,,16,abracer,,,,,693.954,696.006,1,0,1.529,,0,29,29,15,1,REAL,FAKE,,,,,,,,,,,,,,,,,
,,,,,,,,,6784863a028ac25ee3f395ee,Spanish,13 or older,"no, only English or Spanish",no,2025-07-22_21h09.36.696,empathy_intonation_perc,2024.2.4,Win32,120.1923077,6784863a028ac25ee3f395ee,687ed1b7e638a4cbf2f02089,6880362662d8a648d7c2b5e6,,,,,,,,,,,,,,1,,,,,,,,,,,,,,,,,,,,,,,,,,,,,,,,,,,,,,,,,,,,,,,,,,,,,,,,,3,pulmones,,,,,696.007,697.859,0,0,1.323,,0,30,30,2,1,REAL,FAKE,,,,,,,,,,,,,,,,,
,,,,,,,,,6784863a028ac25ee3f395ee,Spanish,13 or older,"no, only English or Spanish",no,2025-07-22_21h09.36.696,empathy_intonation_perc,2024.2.4,Win32,120.1923077,6784863a028ac25ee3f395ee,687ed1b7e638a4cbf2f02089,6880362662d8a648d7c2b5e6,,,,,,,,,,,,,,0,,,,,,,,,,,,,,,,,,,,,,,,,,,,,,,,,,,,,,,,,,,,,,,,,,,,,,,,,21,capillo,,,,,697.86,699.242,0,1,0.853,,0,31,31,20,1,REAL,FAKE,,,,,,,,,,,,,,,,,
,,,,,,,,,6784863a028ac25ee3f395ee,Spanish,13 or older,"no, only English or Spanish",no,2025-07-22_21h09.36.696,empathy_intonation_perc,2024.2.4,Win32,120.1923077,6784863a028ac25ee3f395ee,687ed1b7e638a4cbf2f02089,6880362662d8a648d7c2b5e6,,,,,,,,,,,,,,1,,,,,,,,,,,,,,,,,,,,,,,,,,,,,,,,,,,,,,,,,,,,,,,,,,,,,,,,,20,ávido,,,,,699.244,702.719,0,0,2.958,,0,32,32,19,1,REAL,FAKE,,,,,,,,,,,,,,,,,
,,,,,,,,,6784863a028ac25ee3f395ee,Spanish,13 or older,"no, only English or Spanish",no,2025-07-22_21h09.36.696,empathy_intonation_perc,2024.2.4,Win32,120.1923077,6784863a028ac25ee3f395ee,687ed1b7e638a4cbf2f02089,6880362662d8a648d7c2b5e6,,,,,,,,,,,,,,0,,,,,,,,,,,,,,,,,,,,,,,,,,,,,,,,,,,,,,,,,,,,,,,,,,,,,,,,,87,grodo,,,,,702.719,704.373,0,1,1.126,,0,33,33,86,1,REAL,FAKE,,,,,,,,,,,,,,,,,
,,,,,,,,,6784863a028ac25ee3f395ee,Spanish,13 or older,"no, only English or Spanish",no,2025-07-22_21h09.36.696,empathy_intonation_perc,2024.2.4,Win32,120.1923077,6784863a028ac25ee3f395ee,687ed1b7e638a4cbf2f02089,6880362662d8a648d7c2b5e6,,,,,,,,,,,,,,1,,,,,,,,,,,,,,,,,,,,,,,,,,,,,,,,,,,,,,,,,,,,,,,,,,,,,,,,,37,granuja,,,,,704.375,706.672,0,0,1.77,,0,34,34,36,1,REAL,FAKE,,,,,,,,,,,,,,,,,
,,,,,,,,,6784863a028ac25ee3f395ee,Spanish,13 or older,"no, only English or Spanish",no,2025-07-22_21h09.36.696,empathy_intonation_perc,2024.2.4,Win32,120.1923077,6784863a028ac25ee3f395ee,687ed1b7e638a4cbf2f02089,6880362662d8a648d7c2b5e6,,,,,,,,,,,,,,1,,,,,,,,,,,,,,,,,,,,,,,,,,,,,,,,,,,,,,,,,,,,,,,,,,,,,,,,,36,loro,,,,,706.672,707.923,0,0,0.731,,0,35,35,35,1,REAL,FAKE,,,,,,,,,,,,,,,,,
,,,,,,,,,6784863a028ac25ee3f395ee,Spanish,13 or older,"no, only English or Spanish",no,2025-07-22_21h09.36.696,empathy_intonation_perc,2024.2.4,Win32,120.1923077,6784863a028ac25ee3f395ee,687ed1b7e638a4cbf2f02089,6880362662d8a648d7c2b5e6,,,,,,,,,,,,,,1,,,,,,,,,,,,,,,,,,,,,,,,,,,,,,,,,,,,,,,,,,,,,,,,,,,,,,,,,78,frondoso,,,,,707.924,709.411,0,0,0.962,,0,36,36,77,1,REAL,FAKE,,,,,,,,,,,,,,,,,
,,,,,,,,,6784863a028ac25ee3f395ee,Spanish,13 or older,"no, only English or Spanish",no,2025-07-22_21h09.36.696,empathy_intonation_perc,2024.2.4,Win32,120.1923077,6784863a028ac25ee3f395ee,687ed1b7e638a4cbf2f02089,6880362662d8a648d7c2b5e6,,,,,,,,,,,,,,0,,,,,,,,,,,,,,,,,,,,,,,,,,,,,,,,,,,,,,,,,,,,,,,,,,,,,,,,,72,pemición,,,,,709.412,711.287,0,1,1.346,,0,37,37,71,1,REAL,FAKE,,,,,,,,,,,,,,,,,
,,,,,,,,,6784863a028ac25ee3f395ee,Spanish,13 or older,"no, only English or Spanish",no,2025-07-22_21h09.36.696,empathy_intonation_perc,2024.2.4,Win32,120.1923077,6784863a028ac25ee3f395ee,687ed1b7e638a4cbf2f02089,6880362662d8a648d7c2b5e6,,,,,,,,,,,,,,1,,,,,,,,,,,,,,,,,,,,,,,,,,,,,,,,,,,,,,,,,,,,,,,,,,,,,,,,,69,engatusar,,,,,711.288,712.594,0,0,0.782,,0,38,38,68,1,REAL,FAKE,,,,,,,,,,,,,,,,,
,,,,,,,,,6784863a028ac25ee3f395ee,Spanish,13 or older,"no, only English or Spanish",no,2025-07-22_21h09.36.696,empathy_intonation_perc,2024.2.4,Win32,120.1923077,6784863a028ac25ee3f395ee,687ed1b7e638a4cbf2f02089,6880362662d8a648d7c2b5e6,,,,,,,,,,,,,,1,,,,,,,,,,,,,,,,,,,,,,,,,,,,,,,,,,,,,,,,,,,,,,,,,,,,,,,,,81,pozo,,,,,712.595,714.105,0,0,0.989,,0,39,39,80,1,REAL,FAKE,,,,,,,,,,,,,,,,,
,,,,,,,,,6784863a028ac25ee3f395ee,Spanish,13 or older,"no, only English or Spanish",no,2025-07-22_21h09.36.696,empathy_intonation_perc,2024.2.4,Win32,120.1923077,6784863a028ac25ee3f395ee,687ed1b7e638a4cbf2f02089,6880362662d8a648d7c2b5e6,,,,,,,,,,,,,,0,,,,,,,,,,,,,,,,,,,,,,,,,,,,,,,,,,,,,,,,,,,,,,,,,,,,,,,,,84,escuto,,,,,714.107,715.631,0,1,1.002,,0,40,40,83,1,REAL,FAKE,,,,,,,,,,,,,,,,,
,,,,,,,,,6784863a028ac25ee3f395ee,Spanish,13 or older,"no, only English or Spanish",no,2025-07-22_21h09.36.696,empathy_intonation_perc,2024.2.4,Win32,120.1923077,6784863a028ac25ee3f395ee,687ed1b7e638a4cbf2f02089,6880362662d8a648d7c2b5e6,,,,,,,,,,,,,,1,,,,,,,,,,,,,,,,,,,,,,,,,,,,,,,,,,,,,,,,,,,,,,,,,,,,,,,,,64,orgulloso,,,,,715.634,716.758,0,0,0.599,,0,41,41,63,1,REAL,FAKE,,,,,,,,,,,,,,,,,
,,,,,,,,,6784863a028ac25ee3f395ee,Spanish,13 or older,"no, only English or Spanish",no,2025-07-22_21h09.36.696,empathy_intonation_perc,2024.2.4,Win32,120.1923077,6784863a028ac25ee3f395ee,687ed1b7e638a4cbf2f02089,6880362662d8a648d7c2b5e6,,,,,,,,,,,,,,0,,,,,,,,,,,,,,,,,,,,,,,,,,,,,,,,,,,,,,,,,,,,,,,,,,,,,,,,,74,cintro,,,,,716.759,718.09,0,1,0.81,,0,42,42,73,1,REAL,FAKE,,,,,,,,,,,,,,,,,
,,,,,,,,,6784863a028ac25ee3f395ee,Spanish,13 or older,"no, only English or Spanish",no,2025-07-22_21h09.36.696,empathy_intonation_perc,2024.2.4,Win32,120.1923077,6784863a028ac25ee3f395ee,687ed1b7e638a4cbf2f02089,6880362662d8a648d7c2b5e6,,,,,,,,,,,,,,1,,,,,,,,,,,,,,,,,,,,,,,,,,,,,,,,,,,,,,,,,,,,,,,,,,,,,,,,,54,fomentar,,,,,718.091,719.947,0,0,1.329,,0,43,43,53,1,REAL,FAKE,,,,,,,,,,,,,,,,,
,,,,,,,,,6784863a028ac25ee3f395ee,Spanish,13 or older,"no, only English or Spanish",no,2025-07-22_21h09.36.696,empathy_intonation_perc,2024.2.4,Win32,120.1923077,6784863a028ac25ee3f395ee,687ed1b7e638a4cbf2f02089,6880362662d8a648d7c2b5e6,,,,,,,,,,,,,,0,,,,,,,,,,,,,,,,,,,,,,,,,,,,,,,,,,,,,,,,,,,,,,,,,,,,,,,,,10,antar,,,,,719.948,722.398,0,1,1.923,,0,44,44,9,1,REAL,FAKE,,,,,,,,,,,,,,,,,
,,,,,,,,,6784863a028ac25ee3f395ee,Spanish,13 or older,"no, only English or Spanish",no,2025-07-22_21h09.36.696,empathy_intonation_perc,2024.2.4,Win32,120.1923077,6784863a028ac25ee3f395ee,687ed1b7e638a4cbf2f02089,6880362662d8a648d7c2b5e6,,,,,,,,,,,,,,1,,,,,,,,,,,,,,,,,,,,,,,,,,,,,,,,,,,,,,,,,,,,,,,,,,,,,,,,,77,tiburón,,,,,722.399,724.435,0,0,1.515,,0,45,45,76,1,REAL,FAKE,,,,,,,,,,,,,,,,,
,,,,,,,,,6784863a028ac25ee3f395ee,Spanish,13 or older,"no, only English or Spanish",no,2025-07-22_21h09.36.696,empathy_intonation_perc,2024.2.4,Win32,120.1923077,6784863a028ac25ee3f395ee,687ed1b7e638a4cbf2f02089,6880362662d8a648d7c2b5e6,,,,,,,,,,,,,,1,,,,,,,,,,,,,,,,,,,,,,,,,,,,,,,,,,,,,,,,,,,,,,,,,,,,,,,,,25,bisagra,,,,,724.436,725.664,0,0,0.706,,0,46,46,24,1,REAL,FAKE,,,,,,,,,,,,,,,,,
,,,,,,,,,6784863a028ac25ee3f395ee,Spanish,13 or older,"no, only English or Spanish",no,2025-07-22_21h09.36.696,empathy_intonation_perc,2024.2.4,Win32,120.1923077,6784863a028ac25ee3f395ee,687ed1b7e638a4cbf2f02089,6880362662d8a648d7c2b5e6,,,,,,,,,,,,,,1,,,,,,,,,,,,,,,,,,,,,,,,,,,,,,,,,,,,,,,,,,,,,,,,,,,,,,,,,89,prisa,,,,,725.665,728.399,0,0,2.212,,0,47,47,88,1,REAL,FAKE,,,,,,,,,,,,,,,,,
,,,,,,,,,6784863a028ac25ee3f395ee,Spanish,13 or older,"no, only English or Spanish",no,2025-07-22_21h09.36.696,empathy_intonation_perc,2024.2.4,Win32,120.1923077,6784863a028ac25ee3f395ee,687ed1b7e638a4cbf2f02089,6880362662d8a648d7c2b5e6,,,,,,,,,,,,,,1,,,,,,,,,,,,,,,,,,,,,,,,,,,,,,,,,,,,,,,,,,,,,,,,,,,,,,,,,68,alegre,,,,,728.4,729.66,0,0,0.73,,0,48,48,67,1,REAL,FAKE,,,,,,,,,,,,,,,,,
,,,,,,,,,6784863a028ac25ee3f395ee,Spanish,13 or older,"no, only English or Spanish",no,2025-07-22_21h09.36.696,empathy_intonation_perc,2024.2.4,Win32,120.1923077,6784863a028ac25ee3f395ee,687ed1b7e638a4cbf2f02089,6880362662d8a648d7c2b5e6,,,,,,,,,,,,,,0,,,,,,,,,,,,,,,,,,,,,,,,,,,,,,,,,,,,,,,,,,,,,,,,,,,,,,,,,23,lampera,,,,,729.66,732.616,1,0,2.438,,0,49,49,22,1,REAL,FAKE,,,,,,,,,,,,,,,,,
,,,,,,,,,6784863a028ac25ee3f395ee,Spanish,13 or older,"no, only English or Spanish",no,2025-07-22_21h09.36.696,empathy_intonation_perc,2024.2.4,Win32,120.1923077,6784863a028ac25ee3f395ee,687ed1b7e638a4cbf2f02089,6880362662d8a648d7c2b5e6,,,,,,,,,,,,,,0,,,,,,,,,,,,,,,,,,,,,,,,,,,,,,,,,,,,,,,,,,,,,,,,,,,,,,,,,27,acutación,,,,,732.617,733.808,0,1,0.672,,0,50,50,26,1,REAL,FAKE,,,,,,,,,,,,,,,,,
,,,,,,,,,6784863a028ac25ee3f395ee,Spanish,13 or older,"no, only English or Spanish",no,2025-07-22_21h09.36.696,empathy_intonation_perc,2024.2.4,Win32,120.1923077,6784863a028ac25ee3f395ee,687ed1b7e638a4cbf2f02089,6880362662d8a648d7c2b5e6,,,,,,,,,,,,,,1,,,,,,,,,,,,,,,,,,,,,,,,,,,,,,,,,,,,,,,,,,,,,,,,,,,,,,,,,45,jilguero,,,,,733.809,735.041,0,0,0.706,,0,51,51,44,1,REAL,FAKE,,,,,,,,,,,,,,,,,
,,,,,,,,,6784863a028ac25ee3f395ee,Spanish,13 or older,"no, only English or Spanish",no,2025-07-22_21h09.36.696,empathy_intonation_perc,2024.2.4,Win32,120.1923077,6784863a028ac25ee3f395ee,687ed1b7e638a4cbf2f02089,6880362662d8a648d7c2b5e6,,,,,,,,,,,,,,1,,,,,,,,,,,,,,,,,,,,,,,,,,,,,,,,,,,,,,,,,,,,,,,,,,,,,,,,,11,cenefa,,,,,735.042,736.483,0,0,0.92,,0,52,52,10,1,REAL,FAKE,,,,,,,,,,,,,,,,,
,,,,,,,,,6784863a028ac25ee3f395ee,Spanish,13 or older,"no, only English or Spanish",no,2025-07-22_21h09.36.696,empathy_intonation_perc,2024.2.4,Win32,120.1923077,6784863a028ac25ee3f395ee,687ed1b7e638a4cbf2f02089,6880362662d8a648d7c2b5e6,,,,,,,,,,,,,,1,,,,,,,,,,,,,,,,,,,,,,,,,,,,,,,,,,,,,,,,,,,,,,,,,,,,,,,,,46,martillo,,,,,736.484,738.92,0,0,1.917,,0,53,53,45,1,REAL,FAKE,,,,,,,,,,,,,,,,,
,,,,,,,,,6784863a028ac25ee3f395ee,Spanish,13 or older,"no, only English or Spanish",no,2025-07-22_21h09.36.696,empathy_intonation_perc,2024.2.4,Win32,120.1923077,6784863a028ac25ee3f395ee,687ed1b7e638a4cbf2f02089,6880362662d8a648d7c2b5e6,,,,,,,,,,,,,,0,,,,,,,,,,,,,,,,,,,,,,,,,,,,,,,,,,,,,,,,,,,,,,,,,,,,,,,,,8,cadeña,,,,,738.921,740.367,0,1,0.924,,0,54,54,7,1,REAL,FAKE,,,,,,,,,,,,,,,,,
,,,,,,,,,6784863a028ac25ee3f395ee,Spanish,13 or older,"no, only English or Spanish",no,2025-07-22_21h09.36.696,empathy_intonation_perc,2024.2.4,Win32,120.1923077,6784863a028ac25ee3f395ee,687ed1b7e638a4cbf2f02089,6880362662d8a648d7c2b5e6,,,,,,,,,,,,,,1,,,,,,,,,,,,,,,,,,,,,,,,,,,,,,,,,,,,,,,,,,,,,,,,,,,,,,,,,90,clavel,,,,,740.368,741.768,0,0,0.877,,0,55,55,89,1,REAL,FAKE,,,,,,,,,,,,,,,,,
,,,,,,,,,6784863a028ac25ee3f395ee,Spanish,13 or older,"no, only English or Spanish",no,2025-07-22_21h09.36.696,empathy_intonation_perc,2024.2.4,Win32,120.1923077,6784863a028ac25ee3f395ee,687ed1b7e638a4cbf2f02089,6880362662d8a648d7c2b5e6,,,,,,,,,,,,,,0,,,,,,,,,,,,,,,,,,,,,,,,,,,,,,,,,,,,,,,,,,,,,,,,,,,,,,,,,66,hacido,,,,,741.77,744.508,0,1,2.215,,0,56,56,65,1,REAL,FAKE,,,,,,,,,,,,,,,,,
,,,,,,,,,6784863a028ac25ee3f395ee,Spanish,13 or older,"no, only English or Spanish",no,2025-07-22_21h09.36.696,empathy_intonation_perc,2024.2.4,Win32,120.1923077,6784863a028ac25ee3f395ee,687ed1b7e638a4cbf2f02089,6880362662d8a648d7c2b5e6,,,,,,,,,,,,,,0,,,,,,,,,,,,,,,,,,,,,,,,,,,,,,,,,,,,,,,,,,,,,,,,,,,,,,,,,17,floroso,,,,,744.513,745.999,0,1,0.954,,0,57,57,16,1,REAL,FAKE,,,,,,,,,,,,,,,,,
,,,,,,,,,6784863a028ac25ee3f395ee,Spanish,13 or older,"no, only English or Spanish",no,2025-07-22_21h09.36.696,empathy_intonation_perc,2024.2.4,Win32,120.1923077,6784863a028ac25ee3f395ee,687ed1b7e638a4cbf2f02089,6880362662d8a648d7c2b5e6,,,,,,,,,,,,,,1,,,,,,,,,,,,,,,,,,,,,,,,,,,,,,,,,,,,,,,,,,,,,,,,,,,,,,,,,51,candado,,,,,746,751.365,0,0,4.843,,0,58,58,50,1,REAL,FAKE,,,,,,,,,,,,,,,,,
,,,,,,,,,6784863a028ac25ee3f395ee,Spanish,13 or older,"no, only English or Spanish",no,2025-07-22_21h09.36.696,empathy_intonation_perc,2024.2.4,Win32,120.1923077,6784863a028ac25ee3f395ee,687ed1b7e638a4cbf2f02089,6880362662d8a648d7c2b5e6,,,,,,,,,,,,,,1,,,,,,,,,,,,,,,,,,,,,,,,,,,,,,,,,,,,,,,,,,,,,,,,,,,,,,,,,52,camisa,,,,,751.367,753.803,1,1,1.907,,0,59,59,51,1,REAL,FAKE,,,,,,,,,,,,,,,,,
,,,,,,,,,6784863a028ac25ee3f395ee,Spanish,13 or older,"no, only English or Spanish",no,2025-07-22_21h09.36.696,empathy_intonation_perc,2024.2.4,Win32,120.1923077,6784863a028ac25ee3f395ee,687ed1b7e638a4cbf2f02089,6880362662d8a648d7c2b5e6,,,,,,,,,,,,,,1,,,,,,,,,,,,,,,,,,,,,,,,,,,,,,,,,,,,,,,,,,,,,,,,,,,,,,,,,71,polvoriento,,,,,753.805,756.308,0,0,1.984,,0,60,60,70,1,REAL,FAKE,,,,,,,,,,,,,,,,,
,,,,,,,,,6784863a028ac25ee3f395ee,Spanish,13 or older,"no, only English or Spanish",no,2025-07-22_21h09.36.696,empathy_intonation_perc,2024.2.4,Win32,120.1923077,6784863a028ac25ee3f395ee,687ed1b7e638a4cbf2f02089,6880362662d8a648d7c2b5e6,,,,,,,,,,,,,,1,,,,,,,,,,,,,,,,,,,,,,,,,,,,,,,,,,,,,,,,,,,,,,,,,,,,,,,,,86,barato,,,,,756.309,757.846,0,0,1.015,,0,61,61,85,1,REAL,FAKE,,,,,,,,,,,,,,,,,
,,,,,,,,,6784863a028ac25ee3f395ee,Spanish,13 or older,"no, only English or Spanish",no,2025-07-22_21h09.36.696,empathy_intonation_perc,2024.2.4,Win32,120.1923077,6784863a028ac25ee3f395ee,687ed1b7e638a4cbf2f02089,6880362662d8a648d7c2b5e6,,,,,,,,,,,,,,1,,,,,,,,,,,,,,,,,,,,,,,,,,,,,,,,,,,,,,,,,,,,,,,,,,,,,,,,,60,matar,,,,,757.848,759.572,0,0,1.197,,0,62,62,59,1,REAL,FAKE,,,,,,,,,,,,,,,,,
,,,,,,,,,6784863a028ac25ee3f395ee,Spanish,13 or older,"no, only English or Spanish",no,2025-07-22_21h09.36.696,empathy_intonation_perc,2024.2.4,Win32,120.1923077,6784863a028ac25ee3f395ee,687ed1b7e638a4cbf2f02089,6880362662d8a648d7c2b5e6,,,,,,,,,,,,,,1,,,,,,,,,,,,,,,,,,,,,,,,,,,,,,,,,,,,,,,,,,,,,,,,,,,,,,,,,26,secuestro,,,,,759.573,761.38,1,1,1.288,,0,63,63,25,1,REAL,FAKE,,,,,,,,,,,,,,,,,
,,,,,,,,,6784863a028ac25ee3f395ee,Spanish,13 or older,"no, only English or Spanish",no,2025-07-22_21h09.36.696,empathy_intonation_perc,2024.2.4,Win32,120.1923077,6784863a028ac25ee3f395ee,687ed1b7e638a4cbf2f02089,6880362662d8a648d7c2b5e6,,,,,,,,,,,,,,1,,,,,,,,,,,,,,,,,,,,,,,,,,,,,,,,,,,,,,,,,,,,,,,,,,,,,,,,,22,lacayo,,,,,761.381,762.867,0,0,0.968,,0,64,64,21,1,REAL,FAKE,,,,,,,,,,,,,,,,,
,,,,,,,,,6784863a028ac25ee3f395ee,Spanish,13 or older,"no, only English or Spanish",no,2025-07-22_21h09.36.696,empathy_intonation_perc,2024.2.4,Win32,120.1923077,6784863a028ac25ee3f395ee,687ed1b7e638a4cbf2f02089,6880362662d8a648d7c2b5e6,,,,,,,,,,,,,,1,,,,,,,,,,,,,,,,,,,,,,,,,,,,,,,,,,,,,,,,,,,,,,,,,,,,,,,,,73,hervidor,,,,,762.868,764.232,0,0,0.836,,0,65,65,72,1,REAL,FAKE,,,,,,,,,,,,,,,,,
,,,,,,,,,6784863a028ac25ee3f395ee,Spanish,13 or older,"no, only English or Spanish",no,2025-07-22_21h09.36.696,empathy_intonation_perc,2024.2.4,Win32,120.1923077,6784863a028ac25ee3f395ee,687ed1b7e638a4cbf2f02089,6880362662d8a648d7c2b5e6,,,,,,,,,,,,,,1,,,,,,,,,,,,,,,,,,,,,,,,,,,,,,,,,,,,,,,,,,,,,,,,,,,,,,,,,57,tacaño,,,,,764.233,765.9,0,0,1.136,,0,66,66,56,1,REAL,FAKE,,,,,,,,,,,,,,,,,
,,,,,,,,,6784863a028ac25ee3f395ee,Spanish,13 or older,"no, only English or Spanish",no,2025-07-22_21h09.36.696,empathy_intonation_perc,2024.2.4,Win32,120.1923077,6784863a028ac25ee3f395ee,687ed1b7e638a4cbf2f02089,6880362662d8a648d7c2b5e6,,,,,,,,,,,,,,1,,,,,,,,,,,,,,,,,,,,,,,,,,,,,,,,,,,,,,,,,,,,,,,,,,,,,,,,,14,yunque,,,,,765.902,767.219,0,0,0.793,,0,67,67,13,1,REAL,FAKE,,,,,,,,,,,,,,,,,
,,,,,,,,,6784863a028ac25ee3f395ee,Spanish,13 or older,"no, only English or Spanish",no,2025-07-22_21h09.36.696,empathy_intonation_perc,2024.2.4,Win32,120.1923077,6784863a028ac25ee3f395ee,687ed1b7e638a4cbf2f02089,6880362662d8a648d7c2b5e6,,,,,,,,,,,,,,1,,,,,,,,,,,,,,,,,,,,,,,,,,,,,,,,,,,,,,,,,,,,,,,,,,,,,,,,,62,flaco,,,,,767.219,768.628,0,0,0.879,,0,68,68,61,1,REAL,FAKE,,,,,,,,,,,,,,,,,
,,,,,,,,,6784863a028ac25ee3f395ee,Spanish,13 or older,"no, only English or Spanish",no,2025-07-22_21h09.36.696,empathy_intonation_perc,2024.2.4,Win32,120.1923077,6784863a028ac25ee3f395ee,687ed1b7e638a4cbf2f02089,6880362662d8a648d7c2b5e6,,,,,,,,,,,,,,1,,,,,,,,,,,,,,,,,,,,,,,,,,,,,,,,,,,,,,,,,,,,,,,,,,,,,,,,,44,cuchara,,,,,768.629,770.711,0,0,1.562,,0,69,69,43,1,REAL,FAKE,,,,,,,,,,,,,,,,,
,,,,,,,,,6784863a028ac25ee3f395ee,Spanish,13 or older,"no, only English or Spanish",no,2025-07-22_21h09.36.696,empathy_intonation_perc,2024.2.4,Win32,120.1923077,6784863a028ac25ee3f395ee,687ed1b7e638a4cbf2f02089,6880362662d8a648d7c2b5e6,,,,,,,,,,,,,,1,,,,,,,,,,,,,,,,,,,,,,,,,,,,,,,,,,,,,,,,,,,,,,,,,,,,,,,,,34,aviso,,,,,770.712,771.977,0,0,0.743,,0,70,70,33,1,REAL,FAKE,,,,,,,,,,,,,,,,,
,,,,,,,,,6784863a028ac25ee3f395ee,Spanish,13 or older,"no, only English or Spanish",no,2025-07-22_21h09.36.696,empathy_intonation_perc,2024.2.4,Win32,120.1923077,6784863a028ac25ee3f395ee,687ed1b7e638a4cbf2f02089,6880362662d8a648d7c2b5e6,,,,,,,,,,,,,,0,,,,,,,,,,,,,,,,,,,,,,,,,,,,,,,,,,,,,,,,,,,,,,,,,,,,,,,,,18,arsa,,,,,771.978,773.253,0,1,0.759,,0,71,71,17,1,REAL,FAKE,,,,,,,,,,,,,,,,,
,,,,,,,,,6784863a028ac25ee3f395ee,Spanish,13 or older,"no, only English or Spanish",no,2025-07-22_21h09.36.696,empathy_intonation_perc,2024.2.4,Win32,120.1923077,6784863a028ac25ee3f395ee,687ed1b7e638a4cbf2f02089,6880362662d8a648d7c2b5e6,,,,,,,,,,,,,,1,,,,,,,,,,,,,,,,,,,,,,,,,,,,,,,,,,,,,,,,,,,,,,,,,,,,,,,,,80,hormiga,,,,,773.254,774.373,0,0,0.602,,0,72,72,79,1,REAL,FAKE,,,,,,,,,,,,,,,,,
,,,,,,,,,6784863a028ac25ee3f395ee,Spanish,13 or older,"no, only English or Spanish",no,2025-07-22_21h09.36.696,empathy_intonation_perc,2024.2.4,Win32,120.1923077,6784863a028ac25ee3f395ee,687ed1b7e638a4cbf2f02089,6880362662d8a648d7c2b5e6,,,,,,,,,,,,,,1,,,,,,,,,,,,,,,,,,,,,,,,,,,,,,,,,,,,,,,,,,,,,,,,,,,,,,,,,15,regar,,,,,774.374,775.82,0,0,0.927,,0,73,73,14,1,REAL,FAKE,,,,,,,,,,,,,,,,,
,,,,,,,,,6784863a028ac25ee3f395ee,Spanish,13 or older,"no, only English or Spanish",no,2025-07-22_21h09.36.696,empathy_intonation_perc,2024.2.4,Win32,120.1923077,6784863a028ac25ee3f395ee,687ed1b7e638a4cbf2f02089,6880362662d8a648d7c2b5e6,,,,,,,,,,,,,,0,,,,,,,,,,,,,,,,,,,,,,,,,,,,,,,,,,,,,,,,,,,,,,,,,,,,,,,,,79,tropaje,,,,,775.821,777.259,0,1,0.914,,0,74,74,78,1,REAL,FAKE,,,,,,,,,,,,,,,,,
,,,,,,,,,6784863a028ac25ee3f395ee,Spanish,13 or older,"no, only English or Spanish",no,2025-07-22_21h09.36.696,empathy_intonation_perc,2024.2.4,Win32,120.1923077,6784863a028ac25ee3f395ee,687ed1b7e638a4cbf2f02089,6880362662d8a648d7c2b5e6,,,,,,,,,,,,,,0,,,,,,,,,,,,,,,,,,,,,,,,,,,,,,,,,,,,,,,,,,,,,,,,,,,,,,,,,42,cadallo,,,,,777.26,779.424,0,1,1.642,,0,75,75,41,1,REAL,FAKE,,,,,,,,,,,,,,,,,
,,,,,,,,,6784863a028ac25ee3f395ee,Spanish,13 or older,"no, only English or Spanish",no,2025-07-22_21h09.36.696,empathy_intonation_perc,2024.2.4,Win32,120.1923077,6784863a028ac25ee3f395ee,687ed1b7e638a4cbf2f02089,6880362662d8a648d7c2b5e6,,,,,,,,,,,,,,0,,,,,,,,,,,,,,,,,,,,,,,,,,,,,,,,,,,,,,,,,,,,,,,,,,,,,,,,,63,esposante,,,,,779.427,781.023,0,1,1.073,,0,76,76,62,1,REAL,FAKE,,,,,,,,,,,,,,,,,
,,,,,,,,,6784863a028ac25ee3f395ee,Spanish,13 or older,"no, only English or Spanish",no,2025-07-22_21h09.36.696,empathy_intonation_perc,2024.2.4,Win32,120.1923077,6784863a028ac25ee3f395ee,687ed1b7e638a4cbf2f02089,6880362662d8a648d7c2b5e6,,,,,,,,,,,,,,1,,,,,,,,,,,,,,,,,,,,,,,,,,,,,,,,,,,,,,,,,,,,,,,,,,,,,,,,,55,nevar,,,,,781.025,782.321,0,0,0.765,,0,77,77,54,1,REAL,FAKE,,,,,,,,,,,,,,,,,
,,,,,,,,,6784863a028ac25ee3f395ee,Spanish,13 or older,"no, only English or Spanish",no,2025-07-22_21h09.36.696,empathy_intonation_perc,2024.2.4,Win32,120.1923077,6784863a028ac25ee3f395ee,687ed1b7e638a4cbf2f02089,6880362662d8a648d7c2b5e6,,,,,,,,,,,,,,1,,,,,,,,,,,,,,,,,,,,,,,,,,,,,,,,,,,,,,,,,,,,,,,,,,,,,,,,,65,bizcocho,,,,,782.323,783.536,0,0,0.686,,0,78,78,64,1,REAL,FAKE,,,,,,,,,,,,,,,,,
,,,,,,,,,6784863a028ac25ee3f395ee,Spanish,13 or older,"no, only English or Spanish",no,2025-07-22_21h09.36.696,empathy_intonation_perc,2024.2.4,Win32,120.1923077,6784863a028ac25ee3f395ee,687ed1b7e638a4cbf2f02089,6880362662d8a648d7c2b5e6,,,,,,,,,,,,,,1,,,,,,,,,,,,,,,,,,,,,,,,,,,,,,,,,,,,,,,,,,,,,,,,,,,,,,,,,9,hacha,,,,,783.538,786.287,1,1,2.227,,0,79,79,8,1,REAL,FAKE,,,,,,,,,,,,,,,,,
,,,,,,,,,6784863a028ac25ee3f395ee,Spanish,13 or older,"no, only English or Spanish",no,2025-07-22_21h09.36.696,empathy_intonation_perc,2024.2.4,Win32,120.1923077,6784863a028ac25ee3f395ee,687ed1b7e638a4cbf2f02089,6880362662d8a648d7c2b5e6,,,,,,,,,,,,,,1,,,,,,,,,,,,,,,,,,,,,,,,,,,,,,,,,,,,,,,,,,,,,,,,,,,,,,,,,39,torpe,,,,,786.288,787.556,0,0,0.756,,0,80,80,38,1,REAL,FAKE,,,,,,,,,,,,,,,,,
,,,,,,,,,6784863a028ac25ee3f395ee,Spanish,13 or older,"no, only English or Spanish",no,2025-07-22_21h09.36.696,empathy_intonation_perc,2024.2.4,Win32,120.1923077,6784863a028ac25ee3f395ee,687ed1b7e638a4cbf2f02089,6880362662d8a648d7c2b5e6,,,,,,,,,,,,,,0,,,,,,,,,,,,,,,,,,,,,,,,,,,,,,,,,,,,,,,,,,,,,,,,,,,,,,,,,58,plaudir,,,,,787.557,788.594,0,1,0.518,,0,81,81,57,1,REAL,FAKE,,,,,,,,,,,,,,,,,
,,,,,,,,,6784863a028ac25ee3f395ee,Spanish,13 or older,"no, only English or Spanish",no,2025-07-22_21h09.36.696,empathy_intonation_perc,2024.2.4,Win32,120.1923077,6784863a028ac25ee3f395ee,687ed1b7e638a4cbf2f02089,6880362662d8a648d7c2b5e6,,,,,,,,,,,,,,1,,,,,,,,,,,,,,,,,,,,,,,,,,,,,,,,,,,,,,,,,,,,,,,,,,,,,,,,,7,pésimo,,,,,788.595,789.518,0,0,0.4,,0,82,82,6,1,REAL,FAKE,,,,,,,,,,,,,,,,,
,,,,,,,,,6784863a028ac25ee3f395ee,Spanish,13 or older,"no, only English or Spanish",no,2025-07-22_21h09.36.696,empathy_intonation_perc,2024.2.4,Win32,120.1923077,6784863a028ac25ee3f395ee,687ed1b7e638a4cbf2f02089,6880362662d8a648d7c2b5e6,,,,,,,,,,,,,,1,,,,,,,,,,,,,,,,,,,,,,,,,,,,,,,,,,,,,,,,,,,,,,,,,,,,,,,,,5,zapato,,,,,789.52,791.263,1,1,1.234,,0,83,83,4,1,REAL,FAKE,,,,,,,,,,,,,,,,,
,,,,,,,,,6784863a028ac25ee3f395ee,Spanish,13 or older,"no, only English or Spanish",no,2025-07-22_21h09.36.696,empathy_intonation_perc,2024.2.4,Win32,120.1923077,6784863a028ac25ee3f395ee,687ed1b7e638a4cbf2f02089,6880362662d8a648d7c2b5e6,,,,,,,,,,,,,,0,,,,,,,,,,,,,,,,,,,,,,,,,,,,,,,,,,,,,,,,,,,,,,,,,,,,,,,,,30,alardio,,,,,791.264,793.986,0,1,2.192,,0,84,84,29,1,REAL,FAKE,,,,,,,,,,,,,,,,,
,,,,,,,,,6784863a028ac25ee3f395ee,Spanish,13 or older,"no, only English or Spanish",no,2025-07-22_21h09.36.696,empathy_intonation_perc,2024.2.4,Win32,120.1923077,6784863a028ac25ee3f395ee,687ed1b7e638a4cbf2f02089,6880362662d8a648d7c2b5e6,,,,,,,,,,,,,,0,,,,,,,,,,,,,,,,,,,,,,,,,,,,,,,,,,,,,,,,,,,,,,,,,,,,,,,,,53,vegada,,,,,793.988,795.209,0,1,0.692,,0,85,85,52,1,REAL,FAKE,,,,,,,,,,,,,,,,,
,,,,,,,,,6784863a028ac25ee3f395ee,Spanish,13 or older,"no, only English or Spanish",no,2025-07-22_21h09.36.696,empathy_intonation_perc,2024.2.4,Win32,120.1923077,6784863a028ac25ee3f395ee,687ed1b7e638a4cbf2f02089,6880362662d8a648d7c2b5e6,,,,,,,,,,,,,,0,,,,,,,,,,,,,,,,,,,,,,,,,,,,,,,,,,,,,,,,,,,,,,,,,,,,,,,,,50,flamida,,,,,795.209,796.436,0,1,0.708,,0,86,86,49,1,REAL,FAKE,,,,,,,,,,,,,,,,,
,,,,,,,,,6784863a028ac25ee3f395ee,Spanish,13 or older,"no, only English or Spanish",no,2025-07-22_21h09.36.696,empathy_intonation_perc,2024.2.4,Win32,120.1923077,6784863a028ac25ee3f395ee,687ed1b7e638a4cbf2f02089,6880362662d8a648d7c2b5e6,,,,,,,,,,,,,,1,,,,,,,,,,,,,,,,,,,,,,,,,,,,,,,,,,,,,,,,,,,,,,,,,,,,,,,,,13,helar,,,,,796.437,797.499,0,0,0.538,,0,87,87,12,1,REAL,FAKE,,,,,,,,,,,,,,,,,
,,,,,,,,,6784863a028ac25ee3f395ee,Spanish,13 or older,"no, only English or Spanish",no,2025-07-22_21h09.36.696,empathy_intonation_perc,2024.2.4,Win32,120.1923077,6784863a028ac25ee3f395ee,687ed1b7e638a4cbf2f02089,6880362662d8a648d7c2b5e6,,,,,,,,,,,,,,1,,,,,,,,,,,,,,,,,,,,,,,,,,,,,,,,,,,,,,,,,,,,,,,,,,,,,,,,,76,atar,,,,,797.5,798.601,0,0,0.582,,0,88,88,75,1,REAL,FAKE,,,,,,,,,,,,,,,,,
,,,,,,,,,6784863a028ac25ee3f395ee,Spanish,13 or older,"no, only English or Spanish",no,2025-07-22_21h09.36.696,empathy_intonation_perc,2024.2.4,Win32,120.1923077,6784863a028ac25ee3f395ee,687ed1b7e638a4cbf2f02089,6880362662d8a648d7c2b5e6,,,,,,,,,,,,,,1,,,,,,,,,,,,,,,,,,,,,,,,,,,,,,,,,,,,,,,,,,,,,,,,,,,,,,,,,12,asesinato,,,,,798.602,799.683,0,0,0.558,,0,89,89,11,1,REAL,FAKE,,,,,,,,,,,,,,,,,
,,,,,,,,,6784863a028ac25ee3f395ee,Spanish,13 or older,"no, only English or Spanish",no,2025-07-22_21h09.36.696,empathy_intonation_perc,2024.2.4,Win32,120.1923077,6784863a028ac25ee3f395ee,687ed1b7e638a4cbf2f02089,6880362662d8a648d7c2b5e6,,,,,,,,,,,,,,1,,,,,,,,,,,,,,,,,,,,,,,,,,,,,,,,,,,,,,,,,,,,,,,,,,,,,,,,,83,guante,,,,,799.684,800.83,0,0,0.631,,0,90,90,82,1,REAL,FAKE,,,,,,,,,,,,,,,,,
,,,,,,,,,6784863a028ac25ee3f395ee,Spanish,13 or older,"no, only English or Spanish",no,2025-07-22_21h09.36.696,empathy_intonation_perc,2024.2.4,Win32,120.1923077,6784863a028ac25ee3f395ee,687ed1b7e638a4cbf2f02089,6880362662d8a648d7c2b5e6,,,,,,,,,,,,,,1,,,,,,,,,,,,,,,,,,,,,,,,,,,,,,,,,,,,,,,,,,,,,,,,,,,,,,,,,43,canela,,,,,800.83,803.491,1,1,2.142,,0,91,91,42,1,REAL,FAKE,,,,,,,,,,,,,,,,,
,,,,,,,,,6784863a028ac25ee3f395ee,Spanish,13 or older,"no, only English or Spanish",no,2025-07-22_21h09.36.696,empathy_intonation_perc,2024.2.4,Win32,120.1923077,6784863a028ac25ee3f395ee,687ed1b7e638a4cbf2f02089,6880362662d8a648d7c2b5e6,,,,,,,,,,,,,,,,,,,,,,,,,,,,,,,,,,,,,,,,,,,,,,,,,,,,,,,,,,,,,,,,,,,,,,,,,,,,,,,,,,,,,,,,,,803.491,813.672,,,,,,,,,,,,,,,
,,,,,,,,,6784863a028ac25ee3f395ee,Spanish,13 or older,"no, only English or Spanish",no,2025-07-22_21h09.36.696,empathy_intonation_perc,2024.2.4,Win32,120.1923077,6784863a028ac25ee3f395ee,687ed1b7e638a4cbf2f02089,6880362662d8a648d7c2b5e6,,,,,,,,,,,,,1,,,,,,,,,,,,,,,,,,,,,,,,,,,,,,,,,,,,,,,,,,,,,,,,,,,,,,,,,,,,,,,,,,,,,,,,,,,,,,,813.686,820.485,slightly disagree,0,0,0,0,1,I can easily tell if someone else wants to enter a conversation.,1,0,1,0,,
,,,,,,,,,6784863a028ac25ee3f395ee,Spanish,13 or older,"no, only English or Spanish",no,2025-07-22_21h09.36.696,empathy_intonation_perc,2024.2.4,Win32,120.1923077,6784863a028ac25ee3f395ee,687ed1b7e638a4cbf2f02089,6880362662d8a648d7c2b5e6,,,,,,,,,,,,,2,,,,,,,,,,,,,,,,,,,,,,,,,,,,,,,,,,,,,,,,,,,,,,,,,,,,,,,,,,,,,,,,,,,,,,,,,,,,,,,820.486,823.104,strongly agree,0,1,1,1,1,I prefer animals to humans.,0,1,0,0,,
,,,,,,,,,6784863a028ac25ee3f395ee,Spanish,13 or older,"no, only English or Spanish",no,2025-07-22_21h09.36.696,empathy_intonation_perc,2024.2.4,Win32,120.1923077,6784863a028ac25ee3f395ee,687ed1b7e638a4cbf2f02089,6880362662d8a648d7c2b5e6,,,,,,,,,,,,,3,,,,,,,,,,,,,,,,,,,,,,,,,,,,,,,,,,,,,,,,,,,,,,,,,,,,,,,,,,,,,,,,,,,,,,,,,,,,,,,823.105,826.067,slightly agree,0,2,2,2,1,I try to keep up with the current trends and fashions.,0,1,0,0,,
,,,,,,,,,6784863a028ac25ee3f395ee,Spanish,13 or older,"no, only English or Spanish",no,2025-07-22_21h09.36.696,empathy_intonation_perc,2024.2.4,Win32,120.1923077,6784863a028ac25ee3f395ee,687ed1b7e638a4cbf2f02089,6880362662d8a648d7c2b5e6,,,,,,,,,,,,,4,,,,,,,,,,,,,,,,,,,,,,,,,,,,,,,,,,,,,,,,,,,,,,,,,,,,,,,,,,,,,,,,,,,,,,,,,,,,,,,826.068,835.217,slightly agree,0,3,3,3,1,"I find it difficult to explain to others things that I understand easily,   when they don't understand it first time.",1,0,0,1,,
,,,,,,,,,6784863a028ac25ee3f395ee,Spanish,13 or older,"no, only English or Spanish",no,2025-07-22_21h09.36.696,empathy_intonation_perc,2024.2.4,Win32,120.1923077,6784863a028ac25ee3f395ee,687ed1b7e638a4cbf2f02089,6880362662d8a648d7c2b5e6,,,,,,,,,,,,,5,,,,,,,,,,,,,,,,,,,,,,,,,,,,,,,,,,,,,,,,,,,,,,,,,,,,,,,,,,,,,,,,,,,,,,,,,,,,,,,835.217,837.729,slightly disagree,0,4,4,4,1,I dream most nights.,0,1,0,0,,
,,,,,,,,,6784863a028ac25ee3f395ee,Spanish,13 or older,"no, only English or Spanish",no,2025-07-22_21h09.36.696,empathy_intonation_perc,2024.2.4,Win32,120.1923077,6784863a028ac25ee3f395ee,687ed1b7e638a4cbf2f02089,6880362662d8a648d7c2b5e6,,,,,,,,,,,,,6,,,,,,,,,,,,,,,,,,,,,,,,,,,,,,,,,,,,,,,,,,,,,,,,,,,,,,,,,,,,,,,,,,,,,,,,,,,,,,,837.73,840.872,strongly agree,0,5,5,5,1,I really enjoy caring for other people.,1,0,1,0,,
,,,,,,,,,6784863a028ac25ee3f395ee,Spanish,13 or older,"no, only English or Spanish",no,2025-07-22_21h09.36.696,empathy_intonation_perc,2024.2.4,Win32,120.1923077,6784863a028ac25ee3f395ee,687ed1b7e638a4cbf2f02089,6880362662d8a648d7c2b5e6,,,,,,,,,,,,,7,,,,,,,,,,,,,,,,,,,,,,,,,,,,,,,,,,,,,,,,,,,,,,,,,,,,,,,,,,,,,,,,,,,,,,,,,,,,,,,840.873,845.116,strongly disagree,0,6,6,6,1,I try to solve my own problems rather than discussing them with others.,0,1,0,0,,
,,,,,,,,,6784863a028ac25ee3f395ee,Spanish,13 or older,"no, only English or Spanish",no,2025-07-22_21h09.36.696,empathy_intonation_perc,2024.2.4,Win32,120.1923077,6784863a028ac25ee3f395ee,687ed1b7e638a4cbf2f02089,6880362662d8a648d7c2b5e6,,,,,,,,,,,,,8,,,,,,,,,,,,,,,,,,,,,,,,,,,,,,,,,,,,,,,,,,,,,,,,,,,,,,,,,,,,,,,,,,,,,,,,,,,,,,,845.118,849.14,strongly agree,0,7,7,7,1,I find it hard to know what to do in a social situation.,1,0,0,1,,
,,,,,,,,,6784863a028ac25ee3f395ee,Spanish,13 or older,"no, only English or Spanish",no,2025-07-22_21h09.36.696,empathy_intonation_perc,2024.2.4,Win32,120.1923077,6784863a028ac25ee3f395ee,687ed1b7e638a4cbf2f02089,6880362662d8a648d7c2b5e6,,,,,,,,,,,,,9,,,,,,,,,,,,,,,,,,,,,,,,,,,,,,,,,,,,,,,,,,,,,,,,,,,,,,,,,,,,,,,,,,,,,,,,,,,,,,,849.141,853.261,strongly disagree,0,8,8,8,1,I am at my best first thing in the morning.,0,1,0,0,,
,,,,,,,,,6784863a028ac25ee3f395ee,Spanish,13 or older,"no, only English or Spanish",no,2025-07-22_21h09.36.696,empathy_intonation_perc,2024.2.4,Win32,120.1923077,6784863a028ac25ee3f395ee,687ed1b7e638a4cbf2f02089,6880362662d8a648d7c2b5e6,,,,,,,,,,,,,10,,,,,,,,,,,,,,,,,,,,,,,,,,,,,,,,,,,,,,,,,,,,,,,,,,,,,,,,,,,,,,,,,,,,,,,,,,,,,,,853.262,859.553,slightly agree,0,9,9,9,1,People often tell me that I went too far in driving my point home in a discussion.,1,0,0,1,,
,,,,,,,,,6784863a028ac25ee3f395ee,Spanish,13 or older,"no, only English or Spanish",no,2025-07-22_21h09.36.696,empathy_intonation_perc,2024.2.4,Win32,120.1923077,6784863a028ac25ee3f395ee,687ed1b7e638a4cbf2f02089,6880362662d8a648d7c2b5e6,,,,,,,,,,,,,11,,,,,,,,,,,,,,,,,,,,,,,,,,,,,,,,,,,,,,,,,,,,,,,,,,,,,,,,,,,,,,,,,,,,,,,,,,,,,,,859.554,864.719,strongly disagree,0,10,10,10,1,It doesn't bother me too much if I am late meeting a friend.,1,0,0,1,,
