instructions_exposure.started,instructions_exposure.stopped,instructions_exposure_loop.thisRepN,instructions_exposure_loop.thisTrialN,instructions_exposure_loop.thisN,instructions_exposure_loop.thisIndex,instructions_exposure_loop.ran,instructions_text,continue_text,participant_id,"What variety of Spanish are you most familiar with? (e.g., Peruvian, Spanish, Mexican)",At what age did you begin learning Spanish?,Are you proficient in any languages other than English/Spanish?,"Are you familiar with Caribbean (e.g., Caribbean, Puerto Rican) or Galician Spanish?",date,expName,psychopyVersion,OS,frameRate,id,study_id,session,trial_exposure.started,trial_exposure.stopped,key_resp_exposure.keys,key_resp_exposure.corr,key_resp_exposure.rt,key_resp_exposure.duration,key_resp.keys,exposure_loop.thisRepN,exposure_loop.thisTrialN,exposure_loop.thisN,exposure_loop.thisIndex,exposure_loop.ran,item_num,correct_response,question,path,duration,instructions_2afc.started,instructions_2afc.stopped,instructions_2afc_loop.thisRepN,instructions_2afc_loop.thisTrialN,instructions_2afc_loop.thisN,instructions_2afc_loop.thisIndex,instructions_2afc_loop.ran,practice_2afc.started,practice_2afc.stopped,key_resp_2afc_practice.keys,key_resp_2afc_practice.corr,key_resp_2afc_practice.rt,key_resp_2afc_practice.duration,trials_2afc_practice_loop.thisRepN,trials_2afc_practice_loop.thisTrialN,trials_2afc_practice_loop.thisN,trials_2afc_practice_loop.thisIndex,trials_2afc_practice_loop.ran,check_2afc.started,check_2afc.stopped,trial_2afc.started,trial_2afc.stopped,key_resp_2afc_trial.keys,key_resp_2afc_trial.corr,key_resp_2afc_trial.rt,key_resp_2afc_trial.duration,trials_2afc_loop.thisRepN,trials_2afc_loop.thisTrialN,trials_2afc_loop.thisN,trials_2afc_loop.thisIndex,trials_2afc_loop.ran,target,variety,instructions_lextale.started,instructions_lextale.stopped,instructions_lextale_loop.thisRepN,instructions_lextale_loop.thisTrialN,instructions_lextale_loop.thisN,instructions_lextale_loop.thisIndex,instructions_lextale_loop.ran,practice_lextale.started,practice_lextale.stopped,key_resp_lextale_practice.keys,key_resp_lextale_practice.corr,key_resp_lextale_practice.rt,key_resp_lextale_practice.duration,practice_feedback_lextale.started,practice_feedback_lextale.stopped,trials_lextale_practice_loop.thisRepN,trials_lextale_practice_loop.thisTrialN,trials_lextale_practice_loop.thisN,trials_lextale_practice_loop.thisIndex,trials_lextale_practice_loop.ran,stim,word,prac_button_real,prac_button_false,check_lextale.started,check_lextale.stopped,trial_lextale.started,trial_lextale.stopped,key_resp_lextale_trial.keys,key_resp_lextale_trial.corr,key_resp_lextale_trial.rt,key_resp_lextale_trial.duration,trials_lextale_loop.thisRepN,trials_lextale_loop.thisTrialN,trials_lextale_loop.thisN,trials_lextale_loop.thisIndex,trials_lextale_loop.ran,button_real,button_false,instructions_eq.started,instructions_eq.stopped,trial_eq.started,trial_eq.stopped,slider_eq_trial.response,trials_eq_loop.thisRepN,trials_eq_loop.thisTrialN,trials_eq_loop.thisN,trials_eq_loop.thisIndex,trials_eq_loop.ran,item,is_test_item,is_distractor,is_agree_score,is_disagree_score,end_exp.started,end_exp.stopped
0.0378,43.0313,0,0,0,0,1,"In the following task, you are going to hear a series of conversations.", (press the space bar to continue),67acfcf471895bd3ece873e5,Maxican ,13 or older,"no, only English or Spanish",no,2025-07-23_07h11.58.546,empathy_intonation_perc,2024.2.4,Win32,59.88023952,67acfcf471895bd3ece873e5,687ed1b7e638a4cbf2f02089,6880c24414f146a5fb241246,,,,,,,,,,,,,,,,,,,,,,,,,,,,,,,,,,,,,,,,,,,,,,,,,,,,,,,,,,,,,,,,,,,,,,,,,,,,,,,,,,,,,,,,,,,,,,,,,,,,,,,,,,
43.0323,1027.3636,0,1,1,1,1,It is okay if you don't not 100% understand them!, (press the space bar to continue),67acfcf471895bd3ece873e5,Maxican ,13 or older,"no, only English or Spanish",no,2025-07-23_07h11.58.546,empathy_intonation_perc,2024.2.4,Win32,59.88023952,67acfcf471895bd3ece873e5,687ed1b7e638a4cbf2f02089,6880c24414f146a5fb241246,,,,,,,,,,,,,,,,,,,,,,,,,,,,,,,,,,,,,,,,,,,,,,,,,,,,,,,,,,,,,,,,,,,,,,,,,,,,,,,,,,,,,,,,,,,,,,,,,,,,,,,,,,
1027.3674,1030.1794,0,2,2,2,1,"After, you will read a sentence about the conversation and decide if it's true or false.", (press the space bar to continue),67acfcf471895bd3ece873e5,Maxican ,13 or older,"no, only English or Spanish",no,2025-07-23_07h11.58.546,empathy_intonation_perc,2024.2.4,Win32,59.88023952,67acfcf471895bd3ece873e5,687ed1b7e638a4cbf2f02089,6880c24414f146a5fb241246,,,,,,,,,,,,,,,,,,,,,,,,,,,,,,,,,,,,,,,,,,,,,,,,,,,,,,,,,,,,,,,,,,,,,,,,,,,,,,,,,,,,,,,,,,,,,,,,,,,,,,,,,,
1030.1817,1033.6194,0,3,3,3,1,"If it's true, press '1' (True) and if it's false press '0' (False).", (press the space bar to continue),67acfcf471895bd3ece873e5,Maxican ,13 or older,"no, only English or Spanish",no,2025-07-23_07h11.58.546,empathy_intonation_perc,2024.2.4,Win32,59.88023952,67acfcf471895bd3ece873e5,687ed1b7e638a4cbf2f02089,6880c24414f146a5fb241246,,,,,,,,,,,,,,,,,,,,,,,,,,,,,,,,,,,,,,,,,,,,,,,,,,,,,,,,,,,,,,,,,,,,,,,,,,,,,,,,,,,,,,,,,,,,,,,,,,,,,,,,,,
,,,,,,,,,67acfcf471895bd3ece873e5,Maxican ,13 or older,"no, only English or Spanish",no,2025-07-23_07h11.58.546,empathy_intonation_perc,2024.2.4,Win32,59.88023952,67acfcf471895bd3ece873e5,687ed1b7e638a4cbf2f02089,6880c24414f146a5fb241246,1033.6502,1100.0205,0,0,6.324,,,0,0,0,1,1,2,1,The mom asked the daughter if she already went to the supermarket.,./stim/exposure_wavs/dr_stimuli_convo.wav,60,,,,,,,,,,,,,,,,,,,,,,,,,,,,,,,,,,,,,,,,,,,,,,,,,,,,,,,,,,,,,,,,,,,,,,,,,,,,,,,,,,,,,,,,,
,,,,,,,,,67acfcf471895bd3ece873e5,Maxican ,13 or older,"no, only English or Spanish",no,2025-07-23_07h11.58.546,empathy_intonation_perc,2024.2.4,Win32,59.88023952,67acfcf471895bd3ece873e5,687ed1b7e638a4cbf2f02089,6880c24414f146a5fb241246,1100.0235,1149.0356,1,1,1.9813,,,0,1,1,0,1,1,1,The son asked the mom if Aunt Marina is okay.,./stim/exposure_wavs/ga_stimuli_convo.wav,47,,,,,,,,,,,,,,,,,,,,,,,,,,,,,,,,,,,,,,,,,,,,,,,,,,,,,,,,,,,,,,,,,,,,,,,,,,,,,,,,,,,,,,,,,
,,,,,,,,,67acfcf471895bd3ece873e5,Maxican ,13 or older,"no, only English or Spanish",no,2025-07-23_07h11.58.546,empathy_intonation_perc,2024.2.4,Win32,59.88023952,67acfcf471895bd3ece873e5,687ed1b7e638a4cbf2f02089,6880c24414f146a5fb241246,1149.0384,1190.0848,1,0,5.0198,,,0,2,2,2,1,3,0,The mom already has rice.,./stim/exposure_wavs/pr_stimuli_convo.wav,36,,,,,,,,,,,,,,,,,,,,,,,,,,,,,,,,,,,,,,,,,,,,,,,,,,,,,,,,,,,,,,,,,,,,,,,,,,,,,,,,,,,,,,,,,
,,,,,,,"In the following task you are going to hear a series of utterances. 

  You will decide if the utterances sound like questions or not using your keyboard.", (press the spacebar to continue),67acfcf471895bd3ece873e5,Maxican ,13 or older,"no, only English or Spanish",no,2025-07-23_07h11.58.546,empathy_intonation_perc,2024.2.4,Win32,59.88023952,67acfcf471895bd3ece873e5,687ed1b7e638a4cbf2f02089,6880c24414f146a5fb241246,,,,,,,,,,,,,,,,,,1190.094,1200.4228,0,0,0,0,1,,,,,,,,,,,,,,,,,,,,,,,,,,,,,,,,,,,,,,,,,,,,,,,,,,,,,,,,,,,,,,,,,,,,,,,,,,,,,,,,,,
,,,,,,,"If you believe the utterance is a question, type '1' (for 'yes') and if you do not 
  believe it is a question type '0' (for 'no').

  Let's practice a bit...", (press the spacebar to continue),67acfcf471895bd3ece873e5,Maxican ,13 or older,"no, only English or Spanish",no,2025-07-23_07h11.58.546,empathy_intonation_perc,2024.2.4,Win32,59.88023952,67acfcf471895bd3ece873e5,687ed1b7e638a4cbf2f02089,6880c24414f146a5fb241246,,,,,,,,,,,,,,,,,,1200.4263,1202.8608,0,1,1,1,1,,,,,,,,,,,,,,,,,,,,,,,,,,,,,,,,,,,,,,,,,,,,,,,,,,,,,,,,,,,,,,,,,,,,,,,,,,,,,,,,,,
,,,,,,,,,67acfcf471895bd3ece873e5,Maxican ,13 or older,"no, only English or Spanish",no,2025-07-23_07h11.58.546,empathy_intonation_perc,2024.2.4,Win32,59.88023952,67acfcf471895bd3ece873e5,687ed1b7e638a4cbf2f02089,6880c24414f146a5fb241246,,,,,,,,,,,,,,0,,./stim/wavs/cuban_statement_filler_Cocinabas-por-la-noche.wav,,,,,,,,,1202.8735,1208.0048,0,1,4.6172,,0,0,0,4,1,,,,,,,,,,,,,,,,,,,,,,,,,,,,,,,,,,,,,,,,,,,,,,,,,,,,,,,,,,,,,,,,,,,,,,,
,,,,,,,,,67acfcf471895bd3ece873e5,Maxican ,13 or older,"no, only English or Spanish",no,2025-07-23_07h11.58.546,empathy_intonation_perc,2024.2.4,Win32,59.88023952,67acfcf471895bd3ece873e5,687ed1b7e638a4cbf2f02089,6880c24414f146a5fb241246,,,,,,,,,,,,,,1,,./stim/wavs/castilian_question_filler_Mi-esposo-conoce-al-chico.wav,,,,,,,,,1208.0065,1211.8134,1,1,3.2821,,0,1,1,0,1,,,,,,,,,,,,,,,,,,,,,,,,,,,,,,,,,,,,,,,,,,,,,,,,,,,,,,,,,,,,,,,,,,,,,,,
,,,,,,,,,67acfcf471895bd3ece873e5,Maxican ,13 or older,"no, only English or Spanish",no,2025-07-23_07h11.58.546,empathy_intonation_perc,2024.2.4,Win32,59.88023952,67acfcf471895bd3ece873e5,687ed1b7e638a4cbf2f02089,6880c24414f146a5fb241246,,,,,,,,,,,,,,0,,./stim/wavs/puertorican_statement_filler_La-nina-pinta-con-su-amiga.wav,,,,,,,,,1211.8142,1214.4841,1,0,2.1382,,0,2,2,7,1,,,,,,,,,,,,,,,,,,,,,,,,,,,,,,,,,,,,,,,,,,,,,,,,,,,,,,,,,,,,,,,,,,,,,,,
,,,,,,,,,67acfcf471895bd3ece873e5,Maxican ,13 or older,"no, only English or Spanish",no,2025-07-23_07h11.58.546,empathy_intonation_perc,2024.2.4,Win32,59.88023952,67acfcf471895bd3ece873e5,687ed1b7e638a4cbf2f02089,6880c24414f146a5fb241246,,,,,,,,,,,,,,1,,./stim/wavs/chilean_question_filler_Mi-padre-cantaba-bien.wav,,,,,,,,,1214.4853,1218.1915,1,1,3.1964,,0,3,3,2,1,,,,,,,,,,,,,,,,,,,,,,,,,,,,,,,,,,,,,,,,,,,,,,,,,,,,,,,,,,,,,,,,,,,,,,,
,,,,,,,,,67acfcf471895bd3ece873e5,Maxican ,13 or older,"no, only English or Spanish",no,2025-07-23_07h11.58.546,empathy_intonation_perc,2024.2.4,Win32,59.88023952,67acfcf471895bd3ece873e5,687ed1b7e638a4cbf2f02089,6880c24414f146a5fb241246,,,,,,,,,,,,,,1,,./stim/wavs/argentine_question_filler_Mi-vecino-habla-mucho.wav,,,,,,,,,1218.1927,1220.3125,1,1,1.61,,0,4,4,1,1,,,,,,,,,,,,,,,,,,,,,,,,,,,,,,,,,,,,,,,,,,,,,,,,,,,,,,,,,,,,,,,,,,,,,,,
,,,,,,,,,67acfcf471895bd3ece873e5,Maxican ,13 or older,"no, only English or Spanish",no,2025-07-23_07h11.58.546,empathy_intonation_perc,2024.2.4,Win32,59.88023952,67acfcf471895bd3ece873e5,687ed1b7e638a4cbf2f02089,6880c24414f146a5fb241246,,,,,,,,,,,,,,0,,./stim/wavs/andalusian_statement_filler_Alberto-nunca-se-afeita.wav,,,,,,,,,1220.314,1222.7674,0,1,1.9209,,0,5,5,5,1,,,,,,,,,,,,,,,,,,,,,,,,,,,,,,,,,,,,,,,,,,,,,,,,,,,,,,,,,,,,,,,,,,,,,,,
,,,,,,,,,67acfcf471895bd3ece873e5,Maxican ,13 or older,"no, only English or Spanish",no,2025-07-23_07h11.58.546,empathy_intonation_perc,2024.2.4,Win32,59.88023952,67acfcf471895bd3ece873e5,687ed1b7e638a4cbf2f02089,6880c24414f146a5fb241246,,,,,,,,,,,,,,1,,./stim/wavs/mexican_question_filler_Felipe-no-tiene-contrasena.wav,,,,,,,,,1222.7686,1225.1736,1,1,1.895,,0,6,6,3,1,,,,,,,,,,,,,,,,,,,,,,,,,,,,,,,,,,,,,,,,,,,,,,,,,,,,,,,,,,,,,,,,,,,,,,,
,,,,,,,,,67acfcf471895bd3ece873e5,Maxican ,13 or older,"no, only English or Spanish",no,2025-07-23_07h11.58.546,empathy_intonation_perc,2024.2.4,Win32,59.88023952,67acfcf471895bd3ece873e5,687ed1b7e638a4cbf2f02089,6880c24414f146a5fb241246,,,,,,,,,,,,,,0,,./stim/wavs/peruvian_statement_filler_El-nino-habla-con-su-madre.wav,,,,,,,,,1225.1744,1228.0781,0,1,2.3716,,0,7,7,6,1,,,,,,,,,,,,,,,,,,,,,,,,,,,,,,,,,,,,,,,,,,,,,,,,,,,,,,,,,,,,,,,,,,,,,,,
,,,,,,,,,67acfcf471895bd3ece873e5,Maxican ,13 or older,"no, only English or Spanish",no,2025-07-23_07h11.58.546,empathy_intonation_perc,2024.2.4,Win32,59.88023952,67acfcf471895bd3ece873e5,687ed1b7e638a4cbf2f02089,6880c24414f146a5fb241246,,,,,,,,,,,,,,,,,,,,,,,,,,,,,,,,,,,,1228.079,1229.515,,,,,,,,,,,,,,,,,,,,,,,,,,,,,,,,,,,,,,,,,,,,,,,,,,,,,,,,,,,,,,,,,,,,,
,,,,,,,,,67acfcf471895bd3ece873e5,Maxican ,13 or older,"no, only English or Spanish",no,2025-07-23_07h11.58.546,empathy_intonation_perc,2024.2.4,Win32,59.88023952,67acfcf471895bd3ece873e5,687ed1b7e638a4cbf2f02089,6880c24414f146a5fb241246,,,,,,,,,,,,,1,1,,./stim/wavs/castilian_match_interrogative-total-yn_David-leia-el-libro.wav,,,,,,,,,,,,,,,,,,,,,,1229.5333,1232.3038,1,1,2.2386,,0,0,0,0,1,0,castilian,,,,,,,,,,,,,,,,,,,,,,,,,,,,,,,,,,,,,,,,,,,,,,,,,,,,,,,,
,,,,,,,,,67acfcf471895bd3ece873e5,Maxican ,13 or older,"no, only English or Spanish",no,2025-07-23_07h11.58.546,empathy_intonation_perc,2024.2.4,Win32,59.88023952,67acfcf471895bd3ece873e5,687ed1b7e638a4cbf2f02089,6880c24414f146a5fb241246,,,,,,,,,,,,,19,1,,./stim/wavs/puertorican_match_interrogative-total-yn_Ana-lleva-el-abrigo.wav,,,,,,,,,,,,,,,,,,,,,,1232.3052,1235.6268,0,0,2.7888,,0,1,1,18,1,1,puertorican,,,,,,,,,,,,,,,,,,,,,,,,,,,,,,,,,,,,,,,,,,,,,,,,,,,,,,,,
,,,,,,,,,67acfcf471895bd3ece873e5,Maxican ,13 or older,"no, only English or Spanish",no,2025-07-23_07h11.58.546,empathy_intonation_perc,2024.2.4,Win32,59.88023952,67acfcf471895bd3ece873e5,687ed1b7e638a4cbf2f02089,6880c24414f146a5fb241246,,,,,,,,,,,,,49,0,,./stim/wavs/castilian_match_declarative-broad-focus_Mariano-habla-del-tiempo.wav,,,,,,,,,,,,,,,,,,,,,,1235.628,1238.6161,0,1,2.4634,,0,2,2,48,1,0,castilian,,,,,,,,,,,,,,,,,,,,,,,,,,,,,,,,,,,,,,,,,,,,,,,,,,,,,,,,
,,,,,,,,,67acfcf471895bd3ece873e5,Maxican ,13 or older,"no, only English or Spanish",no,2025-07-23_07h11.58.546,empathy_intonation_perc,2024.2.4,Win32,59.88023952,67acfcf471895bd3ece873e5,687ed1b7e638a4cbf2f02089,6880c24414f146a5fb241246,,,,,,,,,,,,,78,0,,./stim/wavs/cuban_mismatch_declarative-broad-focus_Mi-tia-odia-la-lluvia.wav,,,,,,,,,,,,,,,,,,,,,,1238.6174,1241.4553,0,1,2.3064,,0,3,3,77,1,0,cuban,,,,,,,,,,,,,,,,,,,,,,,,,,,,,,,,,,,,,,,,,,,,,,,,,,,,,,,,
,,,,,,,,,67acfcf471895bd3ece873e5,Maxican ,13 or older,"no, only English or Spanish",no,2025-07-23_07h11.58.546,empathy_intonation_perc,2024.2.4,Win32,59.88023952,67acfcf471895bd3ece873e5,687ed1b7e638a4cbf2f02089,6880c24414f146a5fb241246,,,,,,,,,,,,,42,1,,./stim/wavs/puertorican_mismatch_interrogative-total-yn_La-maestra-vive-en-Paris.wav,,,,,,,,,,,,,,,,,,,,,,1241.4569,1244.5281,0,0,2.5401,,0,4,4,41,1,1,puertorican,,,,,,,,,,,,,,,,,,,,,,,,,,,,,,,,,,,,,,,,,,,,,,,,,,,,,,,,
,,,,,,,,,67acfcf471895bd3ece873e5,Maxican ,13 or older,"no, only English or Spanish",no,2025-07-23_07h11.58.546,empathy_intonation_perc,2024.2.4,Win32,59.88023952,67acfcf471895bd3ece873e5,687ed1b7e638a4cbf2f02089,6880c24414f146a5fb241246,,,,,,,,,,,,,8,1,,./stim/wavs/cuban_match_interrogative-total-yn_Daniel-iba-a-Bolivia.wav,,,,,,,,,,,,,,,,,,,,,,1244.5292,1246.933,1,1,1.8699,,0,5,5,7,1,1,cuban,,,,,,,,,,,,,,,,,,,,,,,,,,,,,,,,,,,,,,,,,,,,,,,,,,,,,,,,
,,,,,,,,,67acfcf471895bd3ece873e5,Maxican ,13 or older,"no, only English or Spanish",no,2025-07-23_07h11.58.546,empathy_intonation_perc,2024.2.4,Win32,59.88023952,67acfcf471895bd3ece873e5,687ed1b7e638a4cbf2f02089,6880c24414f146a5fb241246,,,,,,,,,,,,,80,0,,./stim/wavs/mexican_mismatch_declarative-broad-focus_El-hombre-mira-la-luna.wav,,,,,,,,,,,,,,,,,,,,,,1246.9341,1250.4234,1,0,2.9627,,0,6,6,79,1,0,mexican,,,,,,,,,,,,,,,,,,,,,,,,,,,,,,,,,,,,,,,,,,,,,,,,,,,,,,,,
,,,,,,,,,67acfcf471895bd3ece873e5,Maxican ,13 or older,"no, only English or Spanish",no,2025-07-23_07h11.58.546,empathy_intonation_perc,2024.2.4,Win32,59.88023952,67acfcf471895bd3ece873e5,687ed1b7e638a4cbf2f02089,6880c24414f146a5fb241246,,,,,,,,,,,,,69,0,,./stim/wavs/castilian_mismatch_declarative-broad-focus_El-nino-oye-el-rio.wav,,,,,,,,,,,,,,,,,,,,,,1250.4244,1252.8281,1,0,1.8713,,0,7,7,68,1,0,castilian,,,,,,,,,,,,,,,,,,,,,,,,,,,,,,,,,,,,,,,,,,,,,,,,,,,,,,,,
,,,,,,,,,67acfcf471895bd3ece873e5,Maxican ,13 or older,"no, only English or Spanish",no,2025-07-23_07h11.58.546,empathy_intonation_perc,2024.2.4,Win32,59.88023952,67acfcf471895bd3ece873e5,687ed1b7e638a4cbf2f02089,6880c24414f146a5fb241246,,,,,,,,,,,,,38,1,,./stim/wavs/mexican_mismatch_interrogative-total-yn_Mi-novio-viene-del-lago.wav,,,,,,,,,,,,,,,,,,,,,,1252.8292,1255.0173,1,1,1.6724,,0,8,8,37,1,0,mexican,,,,,,,,,,,,,,,,,,,,,,,,,,,,,,,,,,,,,,,,,,,,,,,,,,,,,,,,
,,,,,,,,,67acfcf471895bd3ece873e5,Maxican ,13 or older,"no, only English or Spanish",no,2025-07-23_07h11.58.546,empathy_intonation_perc,2024.2.4,Win32,59.88023952,67acfcf471895bd3ece873e5,687ed1b7e638a4cbf2f02089,6880c24414f146a5fb241246,,,,,,,,,,,,,24,1,,./stim/wavs/puertorican_match_interrogative-total-yn_Maria-bebe-el-vino.wav,,,,,,,,,,,,,,,,,,,,,,1255.0185,1298.7379,0,0,43.189,,0,9,9,23,1,1,puertorican,,,,,,,,,,,,,,,,,,,,,,,,,,,,,,,,,,,,,,,,,,,,,,,,,,,,,,,,
,,,,,,,,,67acfcf471895bd3ece873e5,Maxican ,13 or older,"no, only English or Spanish",no,2025-07-23_07h11.58.546,empathy_intonation_perc,2024.2.4,Win32,59.88023952,67acfcf471895bd3ece873e5,687ed1b7e638a4cbf2f02089,6880c24414f146a5fb241246,,,,,,,,,,,,,15,1,,./stim/wavs/mexican_match_interrogative-total-yn_David-leia-el-libro.wav,,,,,,,,,,,,,,,,,,,,,,1298.739,1301.6604,1,1,2.3885,,0,10,10,14,1,0,mexican,,,,,,,,,,,,,,,,,,,,,,,,,,,,,,,,,,,,,,,,,,,,,,,,,,,,,,,,
,,,,,,,,,67acfcf471895bd3ece873e5,Maxican ,13 or older,"no, only English or Spanish",no,2025-07-23_07h11.58.546,empathy_intonation_perc,2024.2.4,Win32,59.88023952,67acfcf471895bd3ece873e5,687ed1b7e638a4cbf2f02089,6880c24414f146a5fb241246,,,,,,,,,,,,,21,1,,./stim/wavs/puertorican_match_interrogative-total-yn_David-leia-el-libro.wav,,,,,,,,,,,,,,,,,,,,,,1301.6615,1304.2832,0,0,2.0953,,0,11,11,20,1,1,puertorican,,,,,,,,,,,,,,,,,,,,,,,,,,,,,,,,,,,,,,,,,,,,,,,,,,,,,,,,
,,,,,,,,,67acfcf471895bd3ece873e5,Maxican ,13 or older,"no, only English or Spanish",no,2025-07-23_07h11.58.546,empathy_intonation_perc,2024.2.4,Win32,59.88023952,67acfcf471895bd3ece873e5,687ed1b7e638a4cbf2f02089,6880c24414f146a5fb241246,,,,,,,,,,,,,51,0,,./stim/wavs/cuban_match_declarative-broad-focus_Ana-lleva-el-abrigo.wav,,,,,,,,,,,,,,,,,,,,,,1304.284,1307.7559,0,1,2.9412,,0,12,12,50,1,0,cuban,,,,,,,,,,,,,,,,,,,,,,,,,,,,,,,,,,,,,,,,,,,,,,,,,,,,,,,,
,,,,,,,,,67acfcf471895bd3ece873e5,Maxican ,13 or older,"no, only English or Spanish",no,2025-07-23_07h11.58.546,empathy_intonation_perc,2024.2.4,Win32,59.88023952,67acfcf471895bd3ece873e5,687ed1b7e638a4cbf2f02089,6880c24414f146a5fb241246,,,,,,,,,,,,,4,1,,./stim/wavs/castilian_match_interrogative-total-yn_Maria-bebe-el-vino.wav,,,,,,,,,,,,,,,,,,,,,,1307.7569,1309.9606,1,1,1.6892,,0,13,13,3,1,0,castilian,,,,,,,,,,,,,,,,,,,,,,,,,,,,,,,,,,,,,,,,,,,,,,,,,,,,,,,,
,,,,,,,,,67acfcf471895bd3ece873e5,Maxican ,13 or older,"no, only English or Spanish",no,2025-07-23_07h11.58.546,empathy_intonation_perc,2024.2.4,Win32,59.88023952,67acfcf471895bd3ece873e5,687ed1b7e638a4cbf2f02089,6880c24414f146a5fb241246,,,,,,,,,,,,,84,0,,./stim/wavs/puertorican_mismatch_declarative-broad-focus_El-bebe-comia-muy-bien.wav,,,,,,,,,,,,,,,,,,,,,,1309.9619,1312.3987,0,1,1.9221,,0,14,14,83,1,0,puertorican,,,,,,,,,,,,,,,,,,,,,,,,,,,,,,,,,,,,,,,,,,,,,,,,,,,,,,,,
,,,,,,,,,67acfcf471895bd3ece873e5,Maxican ,13 or older,"no, only English or Spanish",no,2025-07-23_07h11.58.546,empathy_intonation_perc,2024.2.4,Win32,59.88023952,67acfcf471895bd3ece873e5,687ed1b7e638a4cbf2f02089,6880c24414f146a5fb241246,,,,,,,,,,,,,62,0,,./stim/wavs/mexican_match_declarative-broad-focus_Marta-abre-el-regalo.wav,,,,,,,,,,,,,,,,,,,,,,1312.3999,1315.2044,0,1,2.2722,,0,15,15,61,1,0,mexican,,,,,,,,,,,,,,,,,,,,,,,,,,,,,,,,,,,,,,,,,,,,,,,,,,,,,,,,
,,,,,,,,,67acfcf471895bd3ece873e5,Maxican ,13 or older,"no, only English or Spanish",no,2025-07-23_07h11.58.546,empathy_intonation_perc,2024.2.4,Win32,59.88023952,67acfcf471895bd3ece873e5,687ed1b7e638a4cbf2f02089,6880c24414f146a5fb241246,,,,,,,,,,,,,59,0,,./stim/wavs/mexican_match_declarative-broad-focus_David-leia-el-libro.wav,,,,,,,,,,,,,,,,,,,,,,1315.2053,1318.227,0,1,2.5055,,0,16,16,58,1,0,mexican,,,,,,,,,,,,,,,,,,,,,,,,,,,,,,,,,,,,,,,,,,,,,,,,,,,,,,,,
,,,,,,,,,67acfcf471895bd3ece873e5,Maxican ,13 or older,"no, only English or Spanish",no,2025-07-23_07h11.58.546,empathy_intonation_perc,2024.2.4,Win32,59.88023952,67acfcf471895bd3ece873e5,687ed1b7e638a4cbf2f02089,6880c24414f146a5fb241246,,,,,,,,,,,,,30,1,,./stim/wavs/cuban_mismatch_interrogative-total-yn_El-hombre-mira-la-luna.wav,,,,,,,,,,,,,,,,,,,,,,1318.228,1320.6487,1,1,1.9089,,0,17,17,29,1,1,cuban,,,,,,,,,,,,,,,,,,,,,,,,,,,,,,,,,,,,,,,,,,,,,,,,,,,,,,,,
,,,,,,,,,67acfcf471895bd3ece873e5,Maxican ,13 or older,"no, only English or Spanish",no,2025-07-23_07h11.58.546,empathy_intonation_perc,2024.2.4,Win32,59.88023952,67acfcf471895bd3ece873e5,687ed1b7e638a4cbf2f02089,6880c24414f146a5fb241246,,,,,,,,,,,,,87,0,,./stim/wavs/puertorican_mismatch_declarative-broad-focus_La-maestra-vive-en-Paris.wav,,,,,,,,,,,,,,,,,,,,,,1320.6497,1344.5136,1,0,23.3472,,0,18,18,86,1,0,puertorican,,,,,,,,,,,,,,,,,,,,,,,,,,,,,,,,,,,,,,,,,,,,,,,,,,,,,,,,
,,,,,,,,,67acfcf471895bd3ece873e5,Maxican ,13 or older,"no, only English or Spanish",no,2025-07-23_07h11.58.546,empathy_intonation_perc,2024.2.4,Win32,59.88023952,67acfcf471895bd3ece873e5,687ed1b7e638a4cbf2f02089,6880c24414f146a5fb241246,,,,,,,,,,,,,18,1,,./stim/wavs/mexican_match_interrogative-total-yn_Marta-abre-el-regalo.wav,,,,,,,,,,,,,,,,,,,,,,1344.5146,1347.2859,1,1,2.2379,,0,19,19,17,1,0,mexican,,,,,,,,,,,,,,,,,,,,,,,,,,,,,,,,,,,,,,,,,,,,,,,,,,,,,,,,
,,,,,,,,,67acfcf471895bd3ece873e5,Maxican ,13 or older,"no, only English or Spanish",no,2025-07-23_07h11.58.546,empathy_intonation_perc,2024.2.4,Win32,59.88023952,67acfcf471895bd3ece873e5,687ed1b7e638a4cbf2f02089,6880c24414f146a5fb241246,,,,,,,,,,,,,74,0,,./stim/wavs/cuban_mismatch_declarative-broad-focus_El-bebe-comia-muy-bien.wav,,,,,,,,,,,,,,,,,,,,,,1347.2868,1349.6073,0,1,1.8051,,0,20,20,73,1,0,cuban,,,,,,,,,,,,,,,,,,,,,,,,,,,,,,,,,,,,,,,,,,,,,,,,,,,,,,,,
,,,,,,,,,67acfcf471895bd3ece873e5,Maxican ,13 or older,"no, only English or Spanish",no,2025-07-23_07h11.58.546,empathy_intonation_perc,2024.2.4,Win32,59.88023952,67acfcf471895bd3ece873e5,687ed1b7e638a4cbf2f02089,6880c24414f146a5fb241246,,,,,,,,,,,,,83,0,,./stim/wavs/mexican_mismatch_declarative-broad-focus_Mi-tia-odia-la-lluvia.wav,,,,,,,,,,,,,,,,,,,,,,1349.6082,1351.9285,0,1,1.7876,,0,21,21,82,1,0,mexican,,,,,,,,,,,,,,,,,,,,,,,,,,,,,,,,,,,,,,,,,,,,,,,,,,,,,,,,
,,,,,,,,,67acfcf471895bd3ece873e5,Maxican ,13 or older,"no, only English or Spanish",no,2025-07-23_07h11.58.546,empathy_intonation_perc,2024.2.4,Win32,59.88023952,67acfcf471895bd3ece873e5,687ed1b7e638a4cbf2f02089,6880c24414f146a5fb241246,,,,,,,,,,,,,54,0,,./stim/wavs/cuban_match_declarative-broad-focus_Maria-bebe-el-vino.wav,,,,,,,,,,,,,,,,,,,,,,1351.9295,1354.2498,0,1,1.7875,,0,22,22,53,1,0,cuban,,,,,,,,,,,,,,,,,,,,,,,,,,,,,,,,,,,,,,,,,,,,,,,,,,,,,,,,
,,,,,,,,,67acfcf471895bd3ece873e5,Maxican ,13 or older,"no, only English or Spanish",no,2025-07-23_07h11.58.546,empathy_intonation_perc,2024.2.4,Win32,59.88023952,67acfcf471895bd3ece873e5,687ed1b7e638a4cbf2f02089,6880c24414f146a5fb241246,,,,,,,,,,,,,58,0,,./stim/wavs/mexican_match_declarative-broad-focus_Daniel-iba-a-Bolivia.wav,,,,,,,,,,,,,,,,,,,,,,1354.2509,1356.1382,0,1,1.3609,,0,23,23,57,1,0,mexican,,,,,,,,,,,,,,,,,,,,,,,,,,,,,,,,,,,,,,,,,,,,,,,,,,,,,,,,
,,,,,,,,,67acfcf471895bd3ece873e5,Maxican ,13 or older,"no, only English or Spanish",no,2025-07-23_07h11.58.546,empathy_intonation_perc,2024.2.4,Win32,59.88023952,67acfcf471895bd3ece873e5,687ed1b7e638a4cbf2f02089,6880c24414f146a5fb241246,,,,,,,,,,,,,13,1,,./stim/wavs/mexican_match_interrogative-total-yn_Ana-lleva-el-abrigo.wav,,,,,,,,,,,,,,,,,,,,,,1356.139,1358.3248,1,1,1.6525,,0,24,24,12,1,0,mexican,,,,,,,,,,,,,,,,,,,,,,,,,,,,,,,,,,,,,,,,,,,,,,,,,,,,,,,,
,,,,,,,,,67acfcf471895bd3ece873e5,Maxican ,13 or older,"no, only English or Spanish",no,2025-07-23_07h11.58.546,empathy_intonation_perc,2024.2.4,Win32,59.88023952,67acfcf471895bd3ece873e5,687ed1b7e638a4cbf2f02089,6880c24414f146a5fb241246,,,,,,,,,,,,,86,0,,./stim/wavs/puertorican_mismatch_declarative-broad-focus_El-nino-oye-el-rio.wav,,,,,,,,,,,,,,,,,,,,,,1358.3259,1360.5126,0,1,1.6758,,0,25,25,85,1,0,puertorican,,,,,,,,,,,,,,,,,,,,,,,,,,,,,,,,,,,,,,,,,,,,,,,,,,,,,,,,
,,,,,,,,,67acfcf471895bd3ece873e5,Maxican ,13 or older,"no, only English or Spanish",no,2025-07-23_07h11.58.546,empathy_intonation_perc,2024.2.4,Win32,59.88023952,67acfcf471895bd3ece873e5,687ed1b7e638a4cbf2f02089,6880c24414f146a5fb241246,,,,,,,,,,,,,22,1,,./stim/wavs/puertorican_match_interrogative-total-yn_Emilio-ama-la-marcha.wav,,,,,,,,,,,,,,,,,,,,,,1360.5135,1362.5333,1,1,1.5066,,0,26,26,21,1,1,puertorican,,,,,,,,,,,,,,,,,,,,,,,,,,,,,,,,,,,,,,,,,,,,,,,,,,,,,,,,
,,,,,,,,,67acfcf471895bd3ece873e5,Maxican ,13 or older,"no, only English or Spanish",no,2025-07-23_07h11.58.546,empathy_intonation_perc,2024.2.4,Win32,59.88023952,67acfcf471895bd3ece873e5,687ed1b7e638a4cbf2f02089,6880c24414f146a5fb241246,,,,,,,,,,,,,27,1,,./stim/wavs/castilian_mismatch_interrogative-total-yn_Mi-madre-come-la-fruta.wav,,,,,,,,,,,,,,,,,,,,,,1362.5343,1365.0048,1,1,1.9536,,0,27,27,26,1,0,castilian,,,,,,,,,,,,,,,,,,,,,,,,,,,,,,,,,,,,,,,,,,,,,,,,,,,,,,,,
,,,,,,,,,67acfcf471895bd3ece873e5,Maxican ,13 or older,"no, only English or Spanish",no,2025-07-23_07h11.58.546,empathy_intonation_perc,2024.2.4,Win32,59.88023952,67acfcf471895bd3ece873e5,687ed1b7e638a4cbf2f02089,6880c24414f146a5fb241246,,,,,,,,,,,,,23,1,,./stim/wavs/puertorican_match_interrogative-total-yn_Manuela-vende-el-carro.wav,,,,,,,,,,,,,,,,,,,,,,1365.0058,1367.1091,0,0,1.5879,,0,28,28,22,1,1,puertorican,,,,,,,,,,,,,,,,,,,,,,,,,,,,,,,,,,,,,,,,,,,,,,,,,,,,,,,,
,,,,,,,,,67acfcf471895bd3ece873e5,Maxican ,13 or older,"no, only English or Spanish",no,2025-07-23_07h11.58.546,empathy_intonation_perc,2024.2.4,Win32,59.88023952,67acfcf471895bd3ece873e5,687ed1b7e638a4cbf2f02089,6880c24414f146a5fb241246,,,,,,,,,,,,,47,0,,./stim/wavs/castilian_match_declarative-broad-focus_Manuela-vende-el-carro.wav,,,,,,,,,,,,,,,,,,,,,,1367.1101,1369.5475,0,1,1.9212,,0,29,29,46,1,0,castilian,,,,,,,,,,,,,,,,,,,,,,,,,,,,,,,,,,,,,,,,,,,,,,,,,,,,,,,,
,,,,,,,,,67acfcf471895bd3ece873e5,Maxican ,13 or older,"no, only English or Spanish",no,2025-07-23_07h11.58.546,empathy_intonation_perc,2024.2.4,Win32,59.88023952,67acfcf471895bd3ece873e5,687ed1b7e638a4cbf2f02089,6880c24414f146a5fb241246,,,,,,,,,,,,,17,1,,./stim/wavs/mexican_match_interrogative-total-yn_Mariano-habla-del-tiempo.wav,,,,,,,,,,,,,,,,,,,,,,1369.5484,1371.6685,1,1,1.6036,,0,30,30,16,1,0,mexican,,,,,,,,,,,,,,,,,,,,,,,,,,,,,,,,,,,,,,,,,,,,,,,,,,,,,,,,
,,,,,,,,,67acfcf471895bd3ece873e5,Maxican ,13 or older,"no, only English or Spanish",no,2025-07-23_07h11.58.546,empathy_intonation_perc,2024.2.4,Win32,59.88023952,67acfcf471895bd3ece873e5,687ed1b7e638a4cbf2f02089,6880c24414f146a5fb241246,,,,,,,,,,,,,6,1,,./stim/wavs/castilian_match_interrogative-total-yn_Marta-abre-el-regalo.wav,,,,,,,,,,,,,,,,,,,,,,1371.6694,1374.4579,1,1,2.272,,0,31,31,5,1,0,castilian,,,,,,,,,,,,,,,,,,,,,,,,,,,,,,,,,,,,,,,,,,,,,,,,,,,,,,,,
,,,,,,,,,67acfcf471895bd3ece873e5,Maxican ,13 or older,"no, only English or Spanish",no,2025-07-23_07h11.58.546,empathy_intonation_perc,2024.2.4,Win32,59.88023952,67acfcf471895bd3ece873e5,687ed1b7e638a4cbf2f02089,6880c24414f146a5fb241246,,,,,,,,,,,,,3,1,,./stim/wavs/castilian_match_interrogative-total-yn_Manuela-vende-el-carro.wav,,,,,,,,,,,,,,,,,,,,,,1374.459,1376.7619,1,1,1.7751,,0,32,32,2,1,0,castilian,,,,,,,,,,,,,,,,,,,,,,,,,,,,,,,,,,,,,,,,,,,,,,,,,,,,,,,,
,,,,,,,,,67acfcf471895bd3ece873e5,Maxican ,13 or older,"no, only English or Spanish",no,2025-07-23_07h11.58.546,empathy_intonation_perc,2024.2.4,Win32,59.88023952,67acfcf471895bd3ece873e5,687ed1b7e638a4cbf2f02089,6880c24414f146a5fb241246,,,,,,,,,,,,,66,0,,./stim/wavs/puertorican_match_declarative-broad-focus_Emilio-ama-la-marcha.wav,,,,,,,,,,,,,,,,,,,,,,1376.763,1378.933,0,1,1.6578,,0,33,33,65,1,0,puertorican,,,,,,,,,,,,,,,,,,,,,,,,,,,,,,,,,,,,,,,,,,,,,,,,,,,,,,,,
,,,,,,,,,67acfcf471895bd3ece873e5,Maxican ,13 or older,"no, only English or Spanish",no,2025-07-23_07h11.58.546,empathy_intonation_perc,2024.2.4,Win32,59.88023952,67acfcf471895bd3ece873e5,687ed1b7e638a4cbf2f02089,6880c24414f146a5fb241246,,,,,,,,,,,,,56,0,,./stim/wavs/cuban_match_declarative-broad-focus_Marta-abre-el-regalo.wav,,,,,,,,,,,,,,,,,,,,,,1378.9345,1381.1541,1,0,1.6923,,0,34,34,55,1,0,cuban,,,,,,,,,,,,,,,,,,,,,,,,,,,,,,,,,,,,,,,,,,,,,,,,,,,,,,,,
,,,,,,,,,67acfcf471895bd3ece873e5,Maxican ,13 or older,"no, only English or Spanish",no,2025-07-23_07h11.58.546,empathy_intonation_perc,2024.2.4,Win32,59.88023952,67acfcf471895bd3ece873e5,687ed1b7e638a4cbf2f02089,6880c24414f146a5fb241246,,,,,,,,,,,,,16,1,,./stim/wavs/mexican_match_interrogative-total-yn_Emilio-ama-la-marcha.wav,,,,,,,,,,,,,,,,,,,,,,1381.1551,1383.1081,1,1,1.4365,,0,35,35,15,1,0,mexican,,,,,,,,,,,,,,,,,,,,,,,,,,,,,,,,,,,,,,,,,,,,,,,,,,,,,,,,
,,,,,,,,,67acfcf471895bd3ece873e5,Maxican ,13 or older,"no, only English or Spanish",no,2025-07-23_07h11.58.546,empathy_intonation_perc,2024.2.4,Win32,59.88023952,67acfcf471895bd3ece873e5,687ed1b7e638a4cbf2f02089,6880c24414f146a5fb241246,,,,,,,,,,,,,52,0,,./stim/wavs/cuban_match_declarative-broad-focus_Daniel-iba-a-Bolivia.wav,,,,,,,,,,,,,,,,,,,,,,1383.109,1385.3293,0,1,1.7041,,0,36,36,51,1,0,cuban,,,,,,,,,,,,,,,,,,,,,,,,,,,,,,,,,,,,,,,,,,,,,,,,,,,,,,,,
,,,,,,,,,67acfcf471895bd3ece873e5,Maxican ,13 or older,"no, only English or Spanish",no,2025-07-23_07h11.58.546,empathy_intonation_perc,2024.2.4,Win32,59.88023952,67acfcf471895bd3ece873e5,687ed1b7e638a4cbf2f02089,6880c24414f146a5fb241246,,,,,,,,,,,,,88,0,,./stim/wavs/puertorican_mismatch_declarative-broad-focus_La-nina-lava-el-plato.wav,,,,,,,,,,,,,,,,,,,,,,1385.3304,1387.3834,1,0,1.5355,,0,37,37,87,1,0,puertorican,,,,,,,,,,,,,,,,,,,,,,,,,,,,,,,,,,,,,,,,,,,,,,,,,,,,,,,,
,,,,,,,,,67acfcf471895bd3ece873e5,Maxican ,13 or older,"no, only English or Spanish",no,2025-07-23_07h11.58.546,empathy_intonation_perc,2024.2.4,Win32,59.88023952,67acfcf471895bd3ece873e5,687ed1b7e638a4cbf2f02089,6880c24414f146a5fb241246,,,,,,,,,,,,,50,0,,./stim/wavs/castilian_match_declarative-broad-focus_Marta-abre-el-regalo.wav,,,,,,,,,,,,,,,,,,,,,,1387.3845,1389.4876,0,1,1.569,,0,38,38,49,1,0,castilian,,,,,,,,,,,,,,,,,,,,,,,,,,,,,,,,,,,,,,,,,,,,,,,,,,,,,,,,
,,,,,,,,,67acfcf471895bd3ece873e5,Maxican ,13 or older,"no, only English or Spanish",no,2025-07-23_07h11.58.546,empathy_intonation_perc,2024.2.4,Win32,59.88023952,67acfcf471895bd3ece873e5,687ed1b7e638a4cbf2f02089,6880c24414f146a5fb241246,,,,,,,,,,,,,28,1,,./stim/wavs/castilian_mismatch_interrogative-total-yn_Mi-novio-viene-del-lago.wav,,,,,,,,,,,,,,,,,,,,,,1389.4886,1391.6588,0,0,1.6532,,0,39,39,27,1,0,castilian,,,,,,,,,,,,,,,,,,,,,,,,,,,,,,,,,,,,,,,,,,,,,,,,,,,,,,,,
,,,,,,,,,67acfcf471895bd3ece873e5,Maxican ,13 or older,"no, only English or Spanish",no,2025-07-23_07h11.58.546,empathy_intonation_perc,2024.2.4,Win32,59.88023952,67acfcf471895bd3ece873e5,687ed1b7e638a4cbf2f02089,6880c24414f146a5fb241246,,,,,,,,,,,,,14,1,,./stim/wavs/mexican_match_interrogative-total-yn_Daniel-iba-a-Bolivia.wav,,,,,,,,,,,,,,,,,,,,,,1391.6599,1393.8299,0,0,1.6382,,0,40,40,13,1,0,mexican,,,,,,,,,,,,,,,,,,,,,,,,,,,,,,,,,,,,,,,,,,,,,,,,,,,,,,,,
,,,,,,,,,67acfcf471895bd3ece873e5,Maxican ,13 or older,"no, only English or Spanish",no,2025-07-23_07h11.58.546,empathy_intonation_perc,2024.2.4,Win32,59.88023952,67acfcf471895bd3ece873e5,687ed1b7e638a4cbf2f02089,6880c24414f146a5fb241246,,,,,,,,,,,,,73,0,,./stim/wavs/castilian_mismatch_declarative-broad-focus_Mi-tia-odia-la-lluvia.wav,,,,,,,,,,,,,,,,,,,,,,1393.8309,1395.9674,1,0,1.6196,,0,41,41,72,1,0,castilian,,,,,,,,,,,,,,,,,,,,,,,,,,,,,,,,,,,,,,,,,,,,,,,,,,,,,,,,
,,,,,,,,,67acfcf471895bd3ece873e5,Maxican ,13 or older,"no, only English or Spanish",no,2025-07-23_07h11.58.546,empathy_intonation_perc,2024.2.4,Win32,59.88023952,67acfcf471895bd3ece873e5,687ed1b7e638a4cbf2f02089,6880c24414f146a5fb241246,,,,,,,,,,,,,11,1,,./stim/wavs/cuban_match_interrogative-total-yn_Mariano-habla-del-tiempo.wav,,,,,,,,,,,,,,,,,,,,,,1395.9683,1398.4565,1,1,1.9705,,0,42,42,10,1,1,cuban,,,,,,,,,,,,,,,,,,,,,,,,,,,,,,,,,,,,,,,,,,,,,,,,,,,,,,,,
,,,,,,,,,67acfcf471895bd3ece873e5,Maxican ,13 or older,"no, only English or Spanish",no,2025-07-23_07h11.58.546,empathy_intonation_perc,2024.2.4,Win32,59.88023952,67acfcf471895bd3ece873e5,687ed1b7e638a4cbf2f02089,6880c24414f146a5fb241246,,,,,,,,,,,,,44,1,,./stim/wavs/puertorican_mismatch_interrogative-total-yn_Mi-madre-come-la-fruta.wav,,,,,,,,,,,,,,,,,,,,,,1398.4574,1400.5266,0,0,1.536,,0,43,43,43,1,1,puertorican,,,,,,,,,,,,,,,,,,,,,,,,,,,,,,,,,,,,,,,,,,,,,,,,,,,,,,,,
,,,,,,,,,67acfcf471895bd3ece873e5,Maxican ,13 or older,"no, only English or Spanish",no,2025-07-23_07h11.58.546,empathy_intonation_perc,2024.2.4,Win32,59.88023952,67acfcf471895bd3ece873e5,687ed1b7e638a4cbf2f02089,6880c24414f146a5fb241246,,,,,,,,,,,,,26,1,,./stim/wavs/castilian_mismatch_interrogative-total-yn_La-nina-lava-el-plato.wav,,,,,,,,,,,,,,,,,,,,,,1400.5275,1402.7814,0,0,1.7377,,0,44,44,25,1,0,castilian,,,,,,,,,,,,,,,,,,,,,,,,,,,,,,,,,,,,,,,,,,,,,,,,,,,,,,,,
,,,,,,,,,67acfcf471895bd3ece873e5,Maxican ,13 or older,"no, only English or Spanish",no,2025-07-23_07h11.58.546,empathy_intonation_perc,2024.2.4,Win32,59.88023952,67acfcf471895bd3ece873e5,687ed1b7e638a4cbf2f02089,6880c24414f146a5fb241246,,,,,,,,,,,,,43,1,,./stim/wavs/puertorican_mismatch_interrogative-total-yn_La-nina-lava-el-plato.wav,,,,,,,,,,,,,,,,,,,,,,1402.7823,1405.0691,0,0,1.7534,,0,45,45,42,1,1,puertorican,,,,,,,,,,,,,,,,,,,,,,,,,,,,,,,,,,,,,,,,,,,,,,,,,,,,,,,,
,,,,,,,,,67acfcf471895bd3ece873e5,Maxican ,13 or older,"no, only English or Spanish",no,2025-07-23_07h11.58.546,empathy_intonation_perc,2024.2.4,Win32,59.88023952,67acfcf471895bd3ece873e5,687ed1b7e638a4cbf2f02089,6880c24414f146a5fb241246,,,,,,,,,,,,,33,1,,./stim/wavs/cuban_mismatch_interrogative-total-yn_Mi-novio-viene-del-lago.wav,,,,,,,,,,,,,,,,,,,,,,1405.07,1407.2402,0,0,1.6538,,0,46,46,32,1,1,cuban,,,,,,,,,,,,,,,,,,,,,,,,,,,,,,,,,,,,,,,,,,,,,,,,,,,,,,,,
,,,,,,,,,67acfcf471895bd3ece873e5,Maxican ,13 or older,"no, only English or Spanish",no,2025-07-23_07h11.58.546,empathy_intonation_perc,2024.2.4,Win32,59.88023952,67acfcf471895bd3ece873e5,687ed1b7e638a4cbf2f02089,6880c24414f146a5fb241246,,,,,,,,,,,,,61,0,,./stim/wavs/mexican_match_declarative-broad-focus_Mariano-habla-del-tiempo.wav,,,,,,,,,,,,,,,,,,,,,,1407.2413,1409.1614,1,0,1.4092,,0,47,47,60,1,0,mexican,,,,,,,,,,,,,,,,,,,,,,,,,,,,,,,,,,,,,,,,,,,,,,,,,,,,,,,,
,,,,,,,,,67acfcf471895bd3ece873e5,Maxican ,13 or older,"no, only English or Spanish",no,2025-07-23_07h11.58.546,empathy_intonation_perc,2024.2.4,Win32,59.88023952,67acfcf471895bd3ece873e5,687ed1b7e638a4cbf2f02089,6880c24414f146a5fb241246,,,,,,,,,,,,,39,1,,./stim/wavs/mexican_mismatch_interrogative-total-yn_Mi-tia-odia-la-lluvia.wav,,,,,,,,,,,,,,,,,,,,,,1409.1623,1411.1323,1,1,1.4438,,0,48,48,38,1,0,mexican,,,,,,,,,,,,,,,,,,,,,,,,,,,,,,,,,,,,,,,,,,,,,,,,,,,,,,,,
,,,,,,,,,67acfcf471895bd3ece873e5,Maxican ,13 or older,"no, only English or Spanish",no,2025-07-23_07h11.58.546,empathy_intonation_perc,2024.2.4,Win32,59.88023952,67acfcf471895bd3ece873e5,687ed1b7e638a4cbf2f02089,6880c24414f146a5fb241246,,,,,,,,,,,,,48,0,,./stim/wavs/castilian_match_declarative-broad-focus_Maria-bebe-el-vino.wav,,,,,,,,,,,,,,,,,,,,,,1411.1331,1413.486,0,1,1.8246,,0,49,49,47,1,0,castilian,,,,,,,,,,,,,,,,,,,,,,,,,,,,,,,,,,,,,,,,,,,,,,,,,,,,,,,,
,,,,,,,,,67acfcf471895bd3ece873e5,Maxican ,13 or older,"no, only English or Spanish",no,2025-07-23_07h11.58.546,empathy_intonation_perc,2024.2.4,Win32,59.88023952,67acfcf471895bd3ece873e5,687ed1b7e638a4cbf2f02089,6880c24414f146a5fb241246,,,,,,,,,,,,,40,1,,./stim/wavs/puertorican_mismatch_interrogative-total-yn_El-hombre-mira-la-luna.wav,,,,,,,,,,,,,,,,,,,,,,1413.487,1416.2751,1,1,2.2714,,0,50,50,39,1,1,puertorican,,,,,,,,,,,,,,,,,,,,,,,,,,,,,,,,,,,,,,,,,,,,,,,,,,,,,,,,
,,,,,,,,,67acfcf471895bd3ece873e5,Maxican ,13 or older,"no, only English or Spanish",no,2025-07-23_07h11.58.546,empathy_intonation_perc,2024.2.4,Win32,59.88023952,67acfcf471895bd3ece873e5,687ed1b7e638a4cbf2f02089,6880c24414f146a5fb241246,,,,,,,,,,,,,31,1,,./stim/wavs/cuban_mismatch_interrogative-total-yn_El-nino-oye-el-rio.wav,,,,,,,,,,,,,,,,,,,,,,1416.276,1418.3627,0,0,1.5702,,0,51,51,30,1,1,cuban,,,,,,,,,,,,,,,,,,,,,,,,,,,,,,,,,,,,,,,,,,,,,,,,,,,,,,,,
,,,,,,,,,67acfcf471895bd3ece873e5,Maxican ,13 or older,"no, only English or Spanish",no,2025-07-23_07h11.58.546,empathy_intonation_perc,2024.2.4,Win32,59.88023952,67acfcf471895bd3ece873e5,687ed1b7e638a4cbf2f02089,6880c24414f146a5fb241246,,,,,,,,,,,,,67,0,,./stim/wavs/puertorican_match_declarative-broad-focus_Manuela-vende-el-carro.wav,,,,,,,,,,,,,,,,,,,,,,1418.3637,1420.133,1,0,1.2527,,0,52,52,66,1,0,puertorican,,,,,,,,,,,,,,,,,,,,,,,,,,,,,,,,,,,,,,,,,,,,,,,,,,,,,,,,
,,,,,,,,,67acfcf471895bd3ece873e5,Maxican ,13 or older,"no, only English or Spanish",no,2025-07-23_07h11.58.546,empathy_intonation_perc,2024.2.4,Win32,59.88023952,67acfcf471895bd3ece873e5,687ed1b7e638a4cbf2f02089,6880c24414f146a5fb241246,,,,,,,,,,,,,75,0,,./stim/wavs/cuban_mismatch_declarative-broad-focus_El-hombre-mira-la-luna.wav,,,,,,,,,,,,,,,,,,,,,,1420.1339,1422.1036,1,0,1.436,,0,53,53,74,1,0,cuban,,,,,,,,,,,,,,,,,,,,,,,,,,,,,,,,,,,,,,,,,,,,,,,,,,,,,,,,
,,,,,,,,,67acfcf471895bd3ece873e5,Maxican ,13 or older,"no, only English or Spanish",no,2025-07-23_07h11.58.546,empathy_intonation_perc,2024.2.4,Win32,59.88023952,67acfcf471895bd3ece873e5,687ed1b7e638a4cbf2f02089,6880c24414f146a5fb241246,,,,,,,,,,,,,81,0,,./stim/wavs/mexican_mismatch_declarative-broad-focus_La-maestra-vive-en-Paris.wav,,,,,,,,,,,,,,,,,,,,,,1422.1045,1424.0741,0,1,1.4534,,0,54,54,80,1,0,mexican,,,,,,,,,,,,,,,,,,,,,,,,,,,,,,,,,,,,,,,,,,,,,,,,,,,,,,,,
,,,,,,,,,67acfcf471895bd3ece873e5,Maxican ,13 or older,"no, only English or Spanish",no,2025-07-23_07h11.58.546,empathy_intonation_perc,2024.2.4,Win32,59.88023952,67acfcf471895bd3ece873e5,687ed1b7e638a4cbf2f02089,6880c24414f146a5fb241246,,,,,,,,,,,,,41,1,,./stim/wavs/puertorican_mismatch_interrogative-total-yn_El-nino-oye-el-rio.wav,,,,,,,,,,,,,,,,,,,,,,1424.075,1425.8943,1,1,1.308,,0,55,55,40,1,1,puertorican,,,,,,,,,,,,,,,,,,,,,,,,,,,,,,,,,,,,,,,,,,,,,,,,,,,,,,,,
,,,,,,,,,67acfcf471895bd3ece873e5,Maxican ,13 or older,"no, only English or Spanish",no,2025-07-23_07h11.58.546,empathy_intonation_perc,2024.2.4,Win32,59.88023952,67acfcf471895bd3ece873e5,687ed1b7e638a4cbf2f02089,6880c24414f146a5fb241246,,,,,,,,,,,,,46,0,,./stim/wavs/castilian_match_declarative-broad-focus_Emilio-ama-la-marcha.wav,,,,,,,,,,,,,,,,,,,,,,1425.8953,1428.049,1,0,1.6363,,0,56,56,45,1,0,castilian,,,,,,,,,,,,,,,,,,,,,,,,,,,,,,,,,,,,,,,,,,,,,,,,,,,,,,,,
,,,,,,,,,67acfcf471895bd3ece873e5,Maxican ,13 or older,"no, only English or Spanish",no,2025-07-23_07h11.58.546,empathy_intonation_perc,2024.2.4,Win32,59.88023952,67acfcf471895bd3ece873e5,687ed1b7e638a4cbf2f02089,6880c24414f146a5fb241246,,,,,,,,,,,,,9,1,,./stim/wavs/cuban_match_interrogative-total-yn_Manuela-vende-el-carro.wav,,,,,,,,,,,,,,,,,,,,,,1428.0499,1430.1197,1,1,1.5366,,0,57,57,8,1,1,cuban,,,,,,,,,,,,,,,,,,,,,,,,,,,,,,,,,,,,,,,,,,,,,,,,,,,,,,,,
,,,,,,,,,67acfcf471895bd3ece873e5,Maxican ,13 or older,"no, only English or Spanish",no,2025-07-23_07h11.58.546,empathy_intonation_perc,2024.2.4,Win32,59.88023952,67acfcf471895bd3ece873e5,687ed1b7e638a4cbf2f02089,6880c24414f146a5fb241246,,,,,,,,,,,,,7,1,,./stim/wavs/cuban_match_interrogative-total-yn_Ana-lleva-el-abrigo.wav,,,,,,,,,,,,,,,,,,,,,,1430.1207,1432.5748,0,0,1.9374,,0,58,58,6,1,1,cuban,,,,,,,,,,,,,,,,,,,,,,,,,,,,,,,,,,,,,,,,,,,,,,,,,,,,,,,,
,,,,,,,,,67acfcf471895bd3ece873e5,Maxican ,13 or older,"no, only English or Spanish",no,2025-07-23_07h11.58.546,empathy_intonation_perc,2024.2.4,Win32,59.88023952,67acfcf471895bd3ece873e5,687ed1b7e638a4cbf2f02089,6880c24414f146a5fb241246,,,,,,,,,,,,,57,0,,./stim/wavs/mexican_match_declarative-broad-focus_Ana-lleva-el-abrigo.wav,,,,,,,,,,,,,,,,,,,,,,1432.5758,1434.4116,0,1,1.303,,0,59,59,56,1,0,mexican,,,,,,,,,,,,,,,,,,,,,,,,,,,,,,,,,,,,,,,,,,,,,,,,,,,,,,,,
,,,,,,,,,67acfcf471895bd3ece873e5,Maxican ,13 or older,"no, only English or Spanish",no,2025-07-23_07h11.58.546,empathy_intonation_perc,2024.2.4,Win32,59.88023952,67acfcf471895bd3ece873e5,687ed1b7e638a4cbf2f02089,6880c24414f146a5fb241246,,,,,,,,,,,,,60,0,,./stim/wavs/mexican_match_declarative-broad-focus_Emilio-ama-la-marcha.wav,,,,,,,,,,,,,,,,,,,,,,1434.4125,1436.4841,0,1,1.5608,,0,60,60,59,1,0,mexican,,,,,,,,,,,,,,,,,,,,,,,,,,,,,,,,,,,,,,,,,,,,,,,,,,,,,,,,
,,,,,,,,,67acfcf471895bd3ece873e5,Maxican ,13 or older,"no, only English or Spanish",no,2025-07-23_07h11.58.546,empathy_intonation_perc,2024.2.4,Win32,59.88023952,67acfcf471895bd3ece873e5,687ed1b7e638a4cbf2f02089,6880c24414f146a5fb241246,,,,,,,,,,,,,10,1,,./stim/wavs/cuban_match_interrogative-total-yn_Maria-bebe-el-vino.wav,,,,,,,,,,,,,,,,,,,,,,1436.4849,1438.6536,1,1,1.6371,,0,61,61,9,1,1,cuban,,,,,,,,,,,,,,,,,,,,,,,,,,,,,,,,,,,,,,,,,,,,,,,,,,,,,,,,
,,,,,,,,,67acfcf471895bd3ece873e5,Maxican ,13 or older,"no, only English or Spanish",no,2025-07-23_07h11.58.546,empathy_intonation_perc,2024.2.4,Win32,59.88023952,67acfcf471895bd3ece873e5,687ed1b7e638a4cbf2f02089,6880c24414f146a5fb241246,,,,,,,,,,,,,20,1,,./stim/wavs/puertorican_match_interrogative-total-yn_Daniel-iba-a-Bolivia.wav,,,,,,,,,,,,,,,,,,,,,,1438.6545,1440.9416,1,1,1.7739,,0,62,62,19,1,1,puertorican,,,,,,,,,,,,,,,,,,,,,,,,,,,,,,,,,,,,,,,,,,,,,,,,,,,,,,,,
,,,,,,,,,67acfcf471895bd3ece873e5,Maxican ,13 or older,"no, only English or Spanish",no,2025-07-23_07h11.58.546,empathy_intonation_perc,2024.2.4,Win32,59.88023952,67acfcf471895bd3ece873e5,687ed1b7e638a4cbf2f02089,6880c24414f146a5fb241246,,,,,,,,,,,,,64,0,,./stim/wavs/puertorican_match_declarative-broad-focus_Daniel-iba-a-Bolivia.wav,,,,,,,,,,,,,,,,,,,,,,1440.9424,1443.1794,1,0,1.7206,,0,63,63,63,1,0,puertorican,,,,,,,,,,,,,,,,,,,,,,,,,,,,,,,,,,,,,,,,,,,,,,,,,,,,,,,,
,,,,,,,,,67acfcf471895bd3ece873e5,Maxican ,13 or older,"no, only English or Spanish",no,2025-07-23_07h11.58.546,empathy_intonation_perc,2024.2.4,Win32,59.88023952,67acfcf471895bd3ece873e5,687ed1b7e638a4cbf2f02089,6880c24414f146a5fb241246,,,,,,,,,,,,,2,1,,./stim/wavs/castilian_match_interrogative-total-yn_Emilio-ama-la-marcha.wav,,,,,,,,,,,,,,,,,,,,,,1443.1805,1445.2505,1,1,1.5538,,0,64,64,1,1,0,castilian,,,,,,,,,,,,,,,,,,,,,,,,,,,,,,,,,,,,,,,,,,,,,,,,,,,,,,,,
,,,,,,,,,67acfcf471895bd3ece873e5,Maxican ,13 or older,"no, only English or Spanish",no,2025-07-23_07h11.58.546,empathy_intonation_perc,2024.2.4,Win32,59.88023952,67acfcf471895bd3ece873e5,687ed1b7e638a4cbf2f02089,6880c24414f146a5fb241246,,,,,,,,,,,,,63,0,,./stim/wavs/puertorican_match_declarative-broad-focus_Ana-lleva-el-abrigo.wav,,,,,,,,,,,,,,,,,,,,,,1445.2513,1447.5382,1,0,1.7746,,0,65,65,62,1,0,puertorican,,,,,,,,,,,,,,,,,,,,,,,,,,,,,,,,,,,,,,,,,,,,,,,,,,,,,,,,
,,,,,,,,,67acfcf471895bd3ece873e5,Maxican ,13 or older,"no, only English or Spanish",no,2025-07-23_07h11.58.546,empathy_intonation_perc,2024.2.4,Win32,59.88023952,67acfcf471895bd3ece873e5,687ed1b7e638a4cbf2f02089,6880c24414f146a5fb241246,,,,,,,,,,,,,72,0,,./stim/wavs/castilian_mismatch_declarative-broad-focus_Mi-novio-viene-del-lago.wav,,,,,,,,,,,,,,,,,,,,,,1447.5391,1450.227,1,0,2.1761,,0,66,66,71,1,0,castilian,,,,,,,,,,,,,,,,,,,,,,,,,,,,,,,,,,,,,,,,,,,,,,,,,,,,,,,,
,,,,,,,,,67acfcf471895bd3ece873e5,Maxican ,13 or older,"no, only English or Spanish",no,2025-07-23_07h11.58.546,empathy_intonation_perc,2024.2.4,Win32,59.88023952,67acfcf471895bd3ece873e5,687ed1b7e638a4cbf2f02089,6880c24414f146a5fb241246,,,,,,,,,,,,,68,0,,./stim/wavs/puertorican_match_declarative-broad-focus_Maria-bebe-el-vino.wav,,,,,,,,,,,,,,,,,,,,,,1450.2279,1452.1976,1,0,1.4537,,0,67,67,67,1,0,puertorican,,,,,,,,,,,,,,,,,,,,,,,,,,,,,,,,,,,,,,,,,,,,,,,,,,,,,,,,
,,,,,,,,,67acfcf471895bd3ece873e5,Maxican ,13 or older,"no, only English or Spanish",no,2025-07-23_07h11.58.546,empathy_intonation_perc,2024.2.4,Win32,59.88023952,67acfcf471895bd3ece873e5,687ed1b7e638a4cbf2f02089,6880c24414f146a5fb241246,,,,,,,,,,,,,65,0,,./stim/wavs/puertorican_match_declarative-broad-focus_David-leia-el-libro.wav,,,,,,,,,,,,,,,,,,,,,,1452.1985,1454.0679,1,0,1.3554,,0,68,68,64,1,0,puertorican,,,,,,,,,,,,,,,,,,,,,,,,,,,,,,,,,,,,,,,,,,,,,,,,,,,,,,,,
,,,,,,,,,67acfcf471895bd3ece873e5,Maxican ,13 or older,"no, only English or Spanish",no,2025-07-23_07h11.58.546,empathy_intonation_perc,2024.2.4,Win32,59.88023952,67acfcf471895bd3ece873e5,687ed1b7e638a4cbf2f02089,6880c24414f146a5fb241246,,,,,,,,,,,,,36,1,,./stim/wavs/mexican_mismatch_interrogative-total-yn_El-nino-oye-el-rio.wav,,,,,,,,,,,,,,,,,,,,,,1454.0688,1455.9552,0,0,1.3701,,0,69,69,35,1,0,mexican,,,,,,,,,,,,,,,,,,,,,,,,,,,,,,,,,,,,,,,,,,,,,,,,,,,,,,,,
,,,,,,,,,67acfcf471895bd3ece873e5,Maxican ,13 or older,"no, only English or Spanish",no,2025-07-23_07h11.58.546,empathy_intonation_perc,2024.2.4,Win32,59.88023952,67acfcf471895bd3ece873e5,687ed1b7e638a4cbf2f02089,6880c24414f146a5fb241246,,,,,,,,,,,,,82,0,,./stim/wavs/mexican_mismatch_declarative-broad-focus_Mi-novio-viene-del-lago.wav,,,,,,,,,,,,,,,,,,,,,,1455.9562,1457.8591,1,0,1.3877,,0,70,70,81,1,0,mexican,,,,,,,,,,,,,,,,,,,,,,,,,,,,,,,,,,,,,,,,,,,,,,,,,,,,,,,,
,,,,,,,,,67acfcf471895bd3ece873e5,Maxican ,13 or older,"no, only English or Spanish",no,2025-07-23_07h11.58.546,empathy_intonation_perc,2024.2.4,Win32,59.88023952,67acfcf471895bd3ece873e5,687ed1b7e638a4cbf2f02089,6880c24414f146a5fb241246,,,,,,,,,,,,,32,1,,./stim/wavs/cuban_mismatch_interrogative-total-yn_Mi-madre-come-la-fruta.wav,,,,,,,,,,,,,,,,,,,,,,1457.8601,1459.9967,1,1,1.6206,,0,71,71,31,1,1,cuban,,,,,,,,,,,,,,,,,,,,,,,,,,,,,,,,,,,,,,,,,,,,,,,,,,,,,,,,
,,,,,,,,,67acfcf471895bd3ece873e5,Maxican ,13 or older,"no, only English or Spanish",no,2025-07-23_07h11.58.546,empathy_intonation_perc,2024.2.4,Win32,59.88023952,67acfcf471895bd3ece873e5,687ed1b7e638a4cbf2f02089,6880c24414f146a5fb241246,,,,,,,,,,,,,34,1,,./stim/wavs/cuban_mismatch_interrogative-total-yn_Mi-tia-odia-la-lluvia.wav,,,,,,,,,,,,,,,,,,,,,,1459.9977,1462.1024,1,1,1.5942,,0,72,72,33,1,1,cuban,,,,,,,,,,,,,,,,,,,,,,,,,,,,,,,,,,,,,,,,,,,,,,,,,,,,,,,,
,,,,,,,,,67acfcf471895bd3ece873e5,Maxican ,13 or older,"no, only English or Spanish",no,2025-07-23_07h11.58.546,empathy_intonation_perc,2024.2.4,Win32,59.88023952,67acfcf471895bd3ece873e5,687ed1b7e638a4cbf2f02089,6880c24414f146a5fb241246,,,,,,,,,,,,,85,0,,./stim/wavs/puertorican_mismatch_declarative-broad-focus_El-hombre-mira-la-luna.wav,,,,,,,,,,,,,,,,,,,,,,1462.1035,1464.1218,1,0,1.4919,,0,73,73,84,1,0,puertorican,,,,,,,,,,,,,,,,,,,,,,,,,,,,,,,,,,,,,,,,,,,,,,,,,,,,,,,,
,,,,,,,,,67acfcf471895bd3ece873e5,Maxican ,13 or older,"no, only English or Spanish",no,2025-07-23_07h11.58.546,empathy_intonation_perc,2024.2.4,Win32,59.88023952,67acfcf471895bd3ece873e5,687ed1b7e638a4cbf2f02089,6880c24414f146a5fb241246,,,,,,,,,,,,,29,1,,./stim/wavs/castilian_mismatch_interrogative-total-yn_Mi-tia-odia-la-lluvia.wav,,,,,,,,,,,,,,,,,,,,,,1464.1226,1467.5118,1,1,2.8741,,0,74,74,28,1,0,castilian,,,,,,,,,,,,,,,,,,,,,,,,,,,,,,,,,,,,,,,,,,,,,,,,,,,,,,,,
,,,,,,,,,67acfcf471895bd3ece873e5,Maxican ,13 or older,"no, only English or Spanish",no,2025-07-23_07h11.58.546,empathy_intonation_perc,2024.2.4,Win32,59.88023952,67acfcf471895bd3ece873e5,687ed1b7e638a4cbf2f02089,6880c24414f146a5fb241246,,,,,,,,,,,,,25,1,,./stim/wavs/castilian_mismatch_interrogative-total-yn_La-maestra-vive-en-Paris.wav,,,,,,,,,,,,,,,,,,,,,,1467.5128,1469.7665,1,1,1.7375,,0,75,75,24,1,0,castilian,,,,,,,,,,,,,,,,,,,,,,,,,,,,,,,,,,,,,,,,,,,,,,,,,,,,,,,,
,,,,,,,,,67acfcf471895bd3ece873e5,Maxican ,13 or older,"no, only English or Spanish",no,2025-07-23_07h11.58.546,empathy_intonation_perc,2024.2.4,Win32,59.88023952,67acfcf471895bd3ece873e5,687ed1b7e638a4cbf2f02089,6880c24414f146a5fb241246,,,,,,,,,,,,,45,0,,./stim/wavs/castilian_match_declarative-broad-focus_David-leia-el-libro.wav,,,,,,,,,,,,,,,,,,,,,,1469.7674,1472.0375,0,1,1.757,,0,76,76,44,1,0,castilian,,,,,,,,,,,,,,,,,,,,,,,,,,,,,,,,,,,,,,,,,,,,,,,,,,,,,,,,
,,,,,,,,,67acfcf471895bd3ece873e5,Maxican ,13 or older,"no, only English or Spanish",no,2025-07-23_07h11.58.546,empathy_intonation_perc,2024.2.4,Win32,59.88023952,67acfcf471895bd3ece873e5,687ed1b7e638a4cbf2f02089,6880c24414f146a5fb241246,,,,,,,,,,,,,77,0,,./stim/wavs/cuban_mismatch_declarative-broad-focus_Mi-novio-viene-del-lago.wav,,,,,,,,,,,,,,,,,,,,,,1472.0385,1474.7097,0,1,2.1552,,0,77,77,76,1,0,cuban,,,,,,,,,,,,,,,,,,,,,,,,,,,,,,,,,,,,,,,,,,,,,,,,,,,,,,,,
,,,,,,,,,67acfcf471895bd3ece873e5,Maxican ,13 or older,"no, only English or Spanish",no,2025-07-23_07h11.58.546,empathy_intonation_perc,2024.2.4,Win32,59.88023952,67acfcf471895bd3ece873e5,687ed1b7e638a4cbf2f02089,6880c24414f146a5fb241246,,,,,,,,,,,,,55,0,,./stim/wavs/cuban_match_declarative-broad-focus_Mariano-habla-del-tiempo.wav,,,,,,,,,,,,,,,,,,,,,,1474.7109,1477.1311,1,0,1.9035,,0,78,78,54,1,0,cuban,,,,,,,,,,,,,,,,,,,,,,,,,,,,,,,,,,,,,,,,,,,,,,,,,,,,,,,,
,,,,,,,,,67acfcf471895bd3ece873e5,Maxican ,13 or older,"no, only English or Spanish",no,2025-07-23_07h11.58.546,empathy_intonation_perc,2024.2.4,Win32,59.88023952,67acfcf471895bd3ece873e5,687ed1b7e638a4cbf2f02089,6880c24414f146a5fb241246,,,,,,,,,,,,,12,1,,./stim/wavs/cuban_match_interrogative-total-yn_Marta-abre-el-regalo.wav,,,,,,,,,,,,,,,,,,,,,,1477.1322,1479.9201,1,1,2.2752,,0,79,79,11,1,1,cuban,,,,,,,,,,,,,,,,,,,,,,,,,,,,,,,,,,,,,,,,,,,,,,,,,,,,,,,,
,,,,,,,,,67acfcf471895bd3ece873e5,Maxican ,13 or older,"no, only English or Spanish",no,2025-07-23_07h11.58.546,empathy_intonation_perc,2024.2.4,Win32,59.88023952,67acfcf471895bd3ece873e5,687ed1b7e638a4cbf2f02089,6880c24414f146a5fb241246,,,,,,,,,,,,,79,0,,./stim/wavs/mexican_mismatch_declarative-broad-focus_El-bebe-comia-muy-bien.wav,,,,,,,,,,,,,,,,,,,,,,1479.9212,1481.8908,1,0,1.4524,,0,80,80,78,1,0,mexican,,,,,,,,,,,,,,,,,,,,,,,,,,,,,,,,,,,,,,,,,,,,,,,,,,,,,,,,
,,,,,,,,,67acfcf471895bd3ece873e5,Maxican ,13 or older,"no, only English or Spanish",no,2025-07-23_07h11.58.546,empathy_intonation_perc,2024.2.4,Win32,59.88023952,67acfcf471895bd3ece873e5,687ed1b7e638a4cbf2f02089,6880c24414f146a5fb241246,,,,,,,,,,,,,70,0,,./stim/wavs/castilian_mismatch_declarative-broad-focus_La-maestra-vive-en-Paris.wav,,,,,,,,,,,,,,,,,,,,,,1481.8917,1484.6466,1,0,2.2378,,0,81,81,69,1,0,castilian,,,,,,,,,,,,,,,,,,,,,,,,,,,,,,,,,,,,,,,,,,,,,,,,,,,,,,,,
,,,,,,,,,67acfcf471895bd3ece873e5,Maxican ,13 or older,"no, only English or Spanish",no,2025-07-23_07h11.58.546,empathy_intonation_perc,2024.2.4,Win32,59.88023952,67acfcf471895bd3ece873e5,687ed1b7e638a4cbf2f02089,6880c24414f146a5fb241246,,,,,,,,,,,,,76,0,,./stim/wavs/cuban_mismatch_declarative-broad-focus_La-nina-lava-el-plato.wav,,,,,,,,,,,,,,,,,,,,,,1484.6474,1486.9679,1,0,1.8047,,0,82,82,75,1,0,cuban,,,,,,,,,,,,,,,,,,,,,,,,,,,,,,,,,,,,,,,,,,,,,,,,,,,,,,,,
,,,,,,,,,67acfcf471895bd3ece873e5,Maxican ,13 or older,"no, only English or Spanish",no,2025-07-23_07h11.58.546,empathy_intonation_perc,2024.2.4,Win32,59.88023952,67acfcf471895bd3ece873e5,687ed1b7e638a4cbf2f02089,6880c24414f146a5fb241246,,,,,,,,,,,,,71,0,,./stim/wavs/castilian_mismatch_declarative-broad-focus_La-nina-lava-el-plato.wav,,,,,,,,,,,,,,,,,,,,,,1486.9687,1489.2557,0,1,1.7703,,0,83,83,70,1,0,castilian,,,,,,,,,,,,,,,,,,,,,,,,,,,,,,,,,,,,,,,,,,,,,,,,,,,,,,,,
,,,,,,,,,67acfcf471895bd3ece873e5,Maxican ,13 or older,"no, only English or Spanish",no,2025-07-23_07h11.58.546,empathy_intonation_perc,2024.2.4,Win32,59.88023952,67acfcf471895bd3ece873e5,687ed1b7e638a4cbf2f02089,6880c24414f146a5fb241246,,,,,,,,,,,,,53,0,,./stim/wavs/cuban_match_declarative-broad-focus_Manuela-vende-el-carro.wav,,,,,,,,,,,,,,,,,,,,,,1489.2567,1491.3112,1,0,1.5445,,0,84,84,52,1,0,cuban,,,,,,,,,,,,,,,,,,,,,,,,,,,,,,,,,,,,,,,,,,,,,,,,,,,,,,,,
,,,,,,,,,67acfcf471895bd3ece873e5,Maxican ,13 or older,"no, only English or Spanish",no,2025-07-23_07h11.58.546,empathy_intonation_perc,2024.2.4,Win32,59.88023952,67acfcf471895bd3ece873e5,687ed1b7e638a4cbf2f02089,6880c24414f146a5fb241246,,,,,,,,,,,,,35,1,,./stim/wavs/mexican_mismatch_interrogative-total-yn_El-hombre-mira-la-luna.wav,,,,,,,,,,,,,,,,,,,,,,1491.3119,1493.4309,1,1,1.5863,,0,85,85,34,1,0,mexican,,,,,,,,,,,,,,,,,,,,,,,,,,,,,,,,,,,,,,,,,,,,,,,,,,,,,,,,
,,,,,,,,,67acfcf471895bd3ece873e5,Maxican ,13 or older,"no, only English or Spanish",no,2025-07-23_07h11.58.546,empathy_intonation_perc,2024.2.4,Win32,59.88023952,67acfcf471895bd3ece873e5,687ed1b7e638a4cbf2f02089,6880c24414f146a5fb241246,,,,,,,,,,,,,5,1,,./stim/wavs/castilian_match_interrogative-total-yn_Mariano-habla-del-tiempo.wav,,,,,,,,,,,,,,,,,,,,,,1493.4318,1495.6521,0,0,1.7035,,0,86,86,4,1,0,castilian,,,,,,,,,,,,,,,,,,,,,,,,,,,,,,,,,,,,,,,,,,,,,,,,,,,,,,,,
,,,,,,,,,67acfcf471895bd3ece873e5,Maxican ,13 or older,"no, only English or Spanish",no,2025-07-23_07h11.58.546,empathy_intonation_perc,2024.2.4,Win32,59.88023952,67acfcf471895bd3ece873e5,687ed1b7e638a4cbf2f02089,6880c24414f146a5fb241246,,,,,,,,,,,,,37,1,,./stim/wavs/mexican_mismatch_interrogative-total-yn_La-maestra-vive-en-Paris.wav,,,,,,,,,,,,,,,,,,,,,,1495.653,1497.5725,1,1,1.4032,,0,87,87,36,1,0,mexican,,,,,,,,,,,,,,,,,,,,,,,,,,,,,,,,,,,,,,,,,,,,,,,,,,,,,,,,
,,,,,,,"Great! Now we will move on. The next task consists of about 60 trials, in each of which you will see a string of letters. 
  
  Your task is to decide whether this is a real Spanish word or not.", (press the spacebar to continue),67acfcf471895bd3ece873e5,Maxican ,13 or older,"no, only English or Spanish",no,2025-07-23_07h11.58.546,empathy_intonation_perc,2024.2.4,Win32,59.88023952,67acfcf471895bd3ece873e5,687ed1b7e638a4cbf2f02089,6880c24414f146a5fb241246,,,,,,,,,,,,,,,,,,,,,,,,,,,,,,,,,,,,,,,,,,,,,,,,,,,1497.5833,1514.2564,0,0,0,0,1,,,,,,,,,,,,,,,,,,,,,,,,,,,,,,,,,,,,,,,,,,,,,,,,,
,,,,,,,"If you think it is an existing Spanish word, you type '1' (for 'REAL'), and if you think it is not an existing Spanish word, you type '0' (for 'FAKE').", (press the spacebar to continue),67acfcf471895bd3ece873e5,Maxican ,13 or older,"no, only English or Spanish",no,2025-07-23_07h11.58.546,empathy_intonation_perc,2024.2.4,Win32,59.88023952,67acfcf471895bd3ece873e5,687ed1b7e638a4cbf2f02089,6880c24414f146a5fb241246,,,,,,,,,,,,,,,,,,,,,,,,,,,,,,,,,,,,,,,,,,,,,,,,,,,1514.2601,1516.5108,0,1,1,1,1,,,,,,,,,,,,,,,,,,,,,,,,,,,,,,,,,,,,,,,,,,,,,,,,,
,,,,,,,"If you are sure that the word exists, even though you don’t know its exact meaning, you may still respond '1' (REAL). 
  
  But if you are not sure if it is an existing word, you should respond '0' (FAKE).
  
  Let's do a practice round...", (press the spacebar to continue),67acfcf471895bd3ece873e5,Maxican ,13 or older,"no, only English or Spanish",no,2025-07-23_07h11.58.546,empathy_intonation_perc,2024.2.4,Win32,59.88023952,67acfcf471895bd3ece873e5,687ed1b7e638a4cbf2f02089,6880c24414f146a5fb241246,,,,,,,,,,,,,,,,,,,,,,,,,,,,,,,,,,,,,,,,,,,,,,,,,,,1516.5148,1517.915,0,2,2,2,1,,,,,,,,,,,,,,,,,,,,,,,,,,,,,,,,,,,,,,,,,,,,,,,,,
,,,,,,,,,67acfcf471895bd3ece873e5,Maxican ,13 or older,"no, only English or Spanish",no,2025-07-23_07h11.58.546,empathy_intonation_perc,2024.2.4,Win32,59.88023952,67acfcf471895bd3ece873e5,687ed1b7e638a4cbf2f02089,6880c24414f146a5fb241246,,,,,,,,,,,,,,0,,,,,,,,,,,,,,,,,,,,,,,,,,,,,,,,,,,,,,,,,,,,1517.9226,1520.3353,1,0,1.8835,,1520.3358,1521.3371,0,0,0,0,1,0,depiste,REAL,FAKE,,,,,,,,,,,,,,,,,,,,,,,,,,,,,,,,
,,,,,,,,,67acfcf471895bd3ece873e5,Maxican ,13 or older,"no, only English or Spanish",no,2025-07-23_07h11.58.546,empathy_intonation_perc,2024.2.4,Win32,59.88023952,67acfcf471895bd3ece873e5,687ed1b7e638a4cbf2f02089,6880c24414f146a5fb241246,,,,,,,,,,,,,,1,,,,,,,,,,,,,,,,,,,,,,,,,,,,,,,,,,,,,,,,,,,,1521.3558,1522.7733,1,1,0.8988,,1522.7745,1523.7751,0,1,1,1,1,0,sí,REAL,FAKE,,,,,,,,,,,,,,,,,,,,,,,,,,,,,,,,
,,,,,,,,,67acfcf471895bd3ece873e5,Maxican ,13 or older,"no, only English or Spanish",no,2025-07-23_07h11.58.546,empathy_intonation_perc,2024.2.4,Win32,59.88023952,67acfcf471895bd3ece873e5,687ed1b7e638a4cbf2f02089,6880c24414f146a5fb241246,,,,,,,,,,,,,,0,,,,,,,,,,,,,,,,,,,,,,,,,,,,,,,,,,,,,,,,,,,,1523.7775,1524.9777,1,0,0.6801,,1524.9791,1525.9798,0,2,2,2,1,0,coné,REAL,FAKE,,,,,,,,,,,,,,,,,,,,,,,,,,,,,,,,
,,,,,,,,,67acfcf471895bd3ece873e5,Maxican ,13 or older,"no, only English or Spanish",no,2025-07-23_07h11.58.546,empathy_intonation_perc,2024.2.4,Win32,59.88023952,67acfcf471895bd3ece873e5,687ed1b7e638a4cbf2f02089,6880c24414f146a5fb241246,,,,,,,,,,,,,,0,,,,,,,,,,,,,,,,,,,,,,,,,,,,,,,,,,,,,,,,,,,,1525.9814,1527.4996,1,0,1.0023,,1527.4997,1528.5014,0,3,3,3,1,0,calpar,REAL,FAKE,,,,,,,,,,,,,,,,,,,,,,,,,,,,,,,,
,,,,,,,,,67acfcf471895bd3ece873e5,Maxican ,13 or older,"no, only English or Spanish",no,2025-07-23_07h11.58.546,empathy_intonation_perc,2024.2.4,Win32,59.88023952,67acfcf471895bd3ece873e5,687ed1b7e638a4cbf2f02089,6880c24414f146a5fb241246,,,,,,,,,,,,,,0,,,,,,,,,,,,,,,,,,,,,,,,,,,,,,,,,,,,,,,,,,,,1528.5037,1529.6203,0,1,0.5797,,1529.6215,1530.6227,0,4,4,4,1,0,joten,REAL,FAKE,,,,,,,,,,,,,,,,,,,,,,,,,,,,,,,,
,,,,,,,,,67acfcf471895bd3ece873e5,Maxican ,13 or older,"no, only English or Spanish",no,2025-07-23_07h11.58.546,empathy_intonation_perc,2024.2.4,Win32,59.88023952,67acfcf471895bd3ece873e5,687ed1b7e638a4cbf2f02089,6880c24414f146a5fb241246,,,,,,,,,,,,,,1,,,,,,,,,,,,,,,,,,,,,,,,,,,,,,,,,,,,,,,,,,,,1530.6246,1531.9416,1,1,0.7808,,1531.9418,1532.9437,0,5,5,5,1,0,sacapuntas,REAL,FAKE,,,,,,,,,,,,,,,,,,,,,,,,,,,,,,,,
,,,,,,,,,67acfcf471895bd3ece873e5,Maxican ,13 or older,"no, only English or Spanish",no,2025-07-23_07h11.58.546,empathy_intonation_perc,2024.2.4,Win32,59.88023952,67acfcf471895bd3ece873e5,687ed1b7e638a4cbf2f02089,6880c24414f146a5fb241246,,,,,,,,,,,,,,0,,,,,,,,,,,,,,,,,,,,,,,,,,,,,,,,,,,,,,,,,,,,1532.9456,1534.1962,0,1,0.7377,,1534.1963,1535.1982,0,6,6,6,1,0,priba,REAL,FAKE,,,,,,,,,,,,,,,,,,,,,,,,,,,,,,,,
,,,,,,,,,67acfcf471895bd3ece873e5,Maxican ,13 or older,"no, only English or Spanish",no,2025-07-23_07h11.58.546,empathy_intonation_perc,2024.2.4,Win32,59.88023952,67acfcf471895bd3ece873e5,687ed1b7e638a4cbf2f02089,6880c24414f146a5fb241246,,,,,,,,,,,,,,0,,,,,,,,,,,,,,,,,,,,,,,,,,,,,,,,,,,,,,,,,,,,1535.2,1536.4843,1,0,0.7634,,1536.4859,1537.4862,0,7,7,7,1,0,pelasula,REAL,FAKE,,,,,,,,,,,,,,,,,,,,,,,,,,,,,,,,
,,,,,,,,,67acfcf471895bd3ece873e5,Maxican ,13 or older,"no, only English or Spanish",no,2025-07-23_07h11.58.546,empathy_intonation_perc,2024.2.4,Win32,59.88023952,67acfcf471895bd3ece873e5,687ed1b7e638a4cbf2f02089,6880c24414f146a5fb241246,,,,,,,,,,,,,,1,,,,,,,,,,,,,,,,,,,,,,,,,,,,,,,,,,,,,,,,,,,,1537.4879,1538.9391,1,1,0.9368,,1538.9404,1539.9411,0,8,8,8,1,0,bien,REAL,FAKE,,,,,,,,,,,,,,,,,,,,,,,,,,,,,,,,
,,,,,,,,,67acfcf471895bd3ece873e5,Maxican ,13 or older,"no, only English or Spanish",no,2025-07-23_07h11.58.546,empathy_intonation_perc,2024.2.4,Win32,59.88023952,67acfcf471895bd3ece873e5,687ed1b7e638a4cbf2f02089,6880c24414f146a5fb241246,,,,,,,,,,,,,,1,,,,,,,,,,,,,,,,,,,,,,,,,,,,,,,,,,,,,,,,,,,,1539.943,1541.3106,1,1,0.8472,,1541.3107,1542.3127,0,9,9,9,1,0,casa,REAL,FAKE,,,,,,,,,,,,,,,,,,,,,,,,,,,,,,,,
,,,,,,,,,67acfcf471895bd3ece873e5,Maxican ,13 or older,"no, only English or Spanish",no,2025-07-23_07h11.58.546,empathy_intonation_perc,2024.2.4,Win32,59.88023952,67acfcf471895bd3ece873e5,687ed1b7e638a4cbf2f02089,6880c24414f146a5fb241246,,,,,,,,,,,,,,0,,,,,,,,,,,,,,,,,,,,,,,,,,,,,,,,,,,,,,,,,,,,1542.3147,1543.6988,0,1,0.8468,,1543.6989,1544.7007,0,10,10,10,1,0,lejo,REAL,FAKE,,,,,,,,,,,,,,,,,,,,,,,,,,,,,,,,
,,,,,,,,,67acfcf471895bd3ece873e5,Maxican ,13 or older,"no, only English or Spanish",no,2025-07-23_07h11.58.546,empathy_intonation_perc,2024.2.4,Win32,59.88023952,67acfcf471895bd3ece873e5,687ed1b7e638a4cbf2f02089,6880c24414f146a5fb241246,,,,,,,,,,,,,,0,,,,,,,,,,,,,,,,,,,,,,,,,,,,,,,,,,,,,,,,,,,,1544.7024,1545.9031,1,0,0.6856,,1545.9048,1546.9051,0,11,11,11,1,0,pretantas,REAL,FAKE,,,,,,,,,,,,,,,,,,,,,,,,,,,,,,,,
,,,,,,,,,67acfcf471895bd3ece873e5,Maxican ,13 or older,"no, only English or Spanish",no,2025-07-23_07h11.58.546,empathy_intonation_perc,2024.2.4,Win32,59.88023952,67acfcf471895bd3ece873e5,687ed1b7e638a4cbf2f02089,6880c24414f146a5fb241246,,,,,,,,,,,,,,,,,,,,,,,,,,,,,,,,,,,,,,,,,,,,,,,,,,,,,,,,,,,,,,,,,,,,,,,,,,,1546.9057,1548.0748,,,,,,,,,,,,,,,,,,,,,,,,,,,,,,
,,,,,,,,,67acfcf471895bd3ece873e5,Maxican ,13 or older,"no, only English or Spanish",no,2025-07-23_07h11.58.546,empathy_intonation_perc,2024.2.4,Win32,59.88023952,67acfcf471895bd3ece873e5,687ed1b7e638a4cbf2f02089,6880c24414f146a5fb241246,,,,,,,,,,,,,,0,,,,,,,,,,,,,,,,,,,,,,,,,,,,,,,,,,,,,,,,,,,,,,,,,,,,,,,,,17,floroso,,,,,1548.0898,1549.4441,1,0,0.8345,,0,0,0,16,1,REAL,FAKE,,,,,,,,,,,,,,,,,
,,,,,,,,,67acfcf471895bd3ece873e5,Maxican ,13 or older,"no, only English or Spanish",no,2025-07-23_07h11.58.546,empathy_intonation_perc,2024.2.4,Win32,59.88023952,67acfcf471895bd3ece873e5,687ed1b7e638a4cbf2f02089,6880c24414f146a5fb241246,,,,,,,,,,,,,,1,,,,,,,,,,,,,,,,,,,,,,,,,,,,,,,,,,,,,,,,,,,,,,,,,,,,,,,,,5,zapato,,,,,1549.4465,1550.9467,1,1,0.9655,,0,1,1,4,1,REAL,FAKE,,,,,,,,,,,,,,,,,
,,,,,,,,,67acfcf471895bd3ece873e5,Maxican ,13 or older,"no, only English or Spanish",no,2025-07-23_07h11.58.546,empathy_intonation_perc,2024.2.4,Win32,59.88023952,67acfcf471895bd3ece873e5,687ed1b7e638a4cbf2f02089,6880c24414f146a5fb241246,,,,,,,,,,,,,,1,,,,,,,,,,,,,,,,,,,,,,,,,,,,,,,,,,,,,,,,,,,,,,,,,,,,,,,,,15,regar,,,,,1550.9487,1552.2828,1,1,0.8142,,0,2,2,14,1,REAL,FAKE,,,,,,,,,,,,,,,,,
,,,,,,,,,67acfcf471895bd3ece873e5,Maxican ,13 or older,"no, only English or Spanish",no,2025-07-23_07h11.58.546,empathy_intonation_perc,2024.2.4,Win32,59.88023952,67acfcf471895bd3ece873e5,687ed1b7e638a4cbf2f02089,6880c24414f146a5fb241246,,,,,,,,,,,,,,0,,,,,,,,,,,,,,,,,,,,,,,,,,,,,,,,,,,,,,,,,,,,,,,,,,,,,,,,,32,fatacidad,,,,,1552.2847,1553.502,1,0,0.6982,,0,3,3,31,1,REAL,FAKE,,,,,,,,,,,,,,,,,
,,,,,,,,,67acfcf471895bd3ece873e5,Maxican ,13 or older,"no, only English or Spanish",no,2025-07-23_07h11.58.546,empathy_intonation_perc,2024.2.4,Win32,59.88023952,67acfcf471895bd3ece873e5,687ed1b7e638a4cbf2f02089,6880c24414f146a5fb241246,,,,,,,,,,,,,,0,,,,,,,,,,,,,,,,,,,,,,,,,,,,,,,,,,,,,,,,,,,,,,,,,,,,,,,,,23,lampera,,,,,1553.5037,1554.8212,1,0,0.8009,,0,4,4,22,1,REAL,FAKE,,,,,,,,,,,,,,,,,
,,,,,,,,,67acfcf471895bd3ece873e5,Maxican ,13 or older,"no, only English or Spanish",no,2025-07-23_07h11.58.546,empathy_intonation_perc,2024.2.4,Win32,59.88023952,67acfcf471895bd3ece873e5,687ed1b7e638a4cbf2f02089,6880c24414f146a5fb241246,,,,,,,,,,,,,,1,,,,,,,,,,,,,,,,,,,,,,,,,,,,,,,,,,,,,,,,,,,,,,,,,,,,,,,,,54,fomentar,,,,,1554.8231,1555.9568,0,0,0.6152,,0,5,5,53,1,REAL,FAKE,,,,,,,,,,,,,,,,,
,,,,,,,,,67acfcf471895bd3ece873e5,Maxican ,13 or older,"no, only English or Spanish",no,2025-07-23_07h11.58.546,empathy_intonation_perc,2024.2.4,Win32,59.88023952,67acfcf471895bd3ece873e5,687ed1b7e638a4cbf2f02089,6880c24414f146a5fb241246,,,,,,,,,,,,,,1,,,,,,,,,,,,,,,,,,,,,,,,,,,,,,,,,,,,,,,,,,,,,,,,,,,,,,,,,69,engatusar,,,,,1555.9589,1556.9756,1,1,0.4957,,0,6,6,68,1,REAL,FAKE,,,,,,,,,,,,,,,,,
,,,,,,,,,67acfcf471895bd3ece873e5,Maxican ,13 or older,"no, only English or Spanish",no,2025-07-23_07h11.58.546,empathy_intonation_perc,2024.2.4,Win32,59.88023952,67acfcf471895bd3ece873e5,687ed1b7e638a4cbf2f02089,6880c24414f146a5fb241246,,,,,,,,,,,,,,1,,,,,,,,,,,,,,,,,,,,,,,,,,,,,,,,,,,,,,,,,,,,,,,,,,,,,,,,,26,secuestro,,,,,1556.9776,1558.2781,1,1,0.7641,,0,7,7,25,1,REAL,FAKE,,,,,,,,,,,,,,,,,
,,,,,,,,,67acfcf471895bd3ece873e5,Maxican ,13 or older,"no, only English or Spanish",no,2025-07-23_07h11.58.546,empathy_intonation_perc,2024.2.4,Win32,59.88023952,67acfcf471895bd3ece873e5,687ed1b7e638a4cbf2f02089,6880c24414f146a5fb241246,,,,,,,,,,,,,,0,,,,,,,,,,,,,,,,,,,,,,,,,,,,,,,,,,,,,,,,,,,,,,,,,,,,,,,,,66,hacido,,,,,1558.2799,1559.3971,0,1,0.6025,,0,8,8,65,1,REAL,FAKE,,,,,,,,,,,,,,,,,
,,,,,,,,,67acfcf471895bd3ece873e5,Maxican ,13 or older,"no, only English or Spanish",no,2025-07-23_07h11.58.546,empathy_intonation_perc,2024.2.4,Win32,59.88023952,67acfcf471895bd3ece873e5,687ed1b7e638a4cbf2f02089,6880c24414f146a5fb241246,,,,,,,,,,,,,,1,,,,,,,,,,,,,,,,,,,,,,,,,,,,,,,,,,,,,,,,,,,,,,,,,,,,,,,,,14,yunque,,,,,1559.399,1560.3489,1,1,0.4346,,0,9,9,13,1,REAL,FAKE,,,,,,,,,,,,,,,,,
,,,,,,,,,67acfcf471895bd3ece873e5,Maxican ,13 or older,"no, only English or Spanish",no,2025-07-23_07h11.58.546,empathy_intonation_perc,2024.2.4,Win32,59.88023952,67acfcf471895bd3ece873e5,687ed1b7e638a4cbf2f02089,6880c24414f146a5fb241246,,,,,,,,,,,,,,1,,,,,,,,,,,,,,,,,,,,,,,,,,,,,,,,,,,,,,,,,,,,,,,,,,,,,,,,,9,hacha,,,,,1560.3509,1561.5847,1,1,0.7034,,0,10,10,8,1,REAL,FAKE,,,,,,,,,,,,,,,,,
,,,,,,,,,67acfcf471895bd3ece873e5,Maxican ,13 or older,"no, only English or Spanish",no,2025-07-23_07h11.58.546,empathy_intonation_perc,2024.2.4,Win32,59.88023952,67acfcf471895bd3ece873e5,687ed1b7e638a4cbf2f02089,6880c24414f146a5fb241246,,,,,,,,,,,,,,0,,,,,,,,,,,,,,,,,,,,,,,,,,,,,,,,,,,,,,,,,,,,,,,,,,,,,,,,,30,alardio,,,,,1561.5866,1562.4866,0,1,0.3808,,0,11,11,29,1,REAL,FAKE,,,,,,,,,,,,,,,,,
,,,,,,,,,67acfcf471895bd3ece873e5,Maxican ,13 or older,"no, only English or Spanish",no,2025-07-23_07h11.58.546,empathy_intonation_perc,2024.2.4,Win32,59.88023952,67acfcf471895bd3ece873e5,687ed1b7e638a4cbf2f02089,6880c24414f146a5fb241246,,,,,,,,,,,,,,1,,,,,,,,,,,,,,,,,,,,,,,,,,,,,,,,,,,,,,,,,,,,,,,,,,,,,,,,,11,cenefa,,,,,1562.4887,1563.7226,1,1,0.7148,,0,12,12,10,1,REAL,FAKE,,,,,,,,,,,,,,,,,
,,,,,,,,,67acfcf471895bd3ece873e5,Maxican ,13 or older,"no, only English or Spanish",no,2025-07-23_07h11.58.546,empathy_intonation_perc,2024.2.4,Win32,59.88023952,67acfcf471895bd3ece873e5,687ed1b7e638a4cbf2f02089,6880c24414f146a5fb241246,,,,,,,,,,,,,,1,,,,,,,,,,,,,,,,,,,,,,,,,,,,,,,,,,,,,,,,,,,,,,,,,,,,,,,,,2,pellizcar,,,,,1563.7245,1564.8747,0,0,0.6365,,0,13,13,1,1,REAL,FAKE,,,,,,,,,,,,,,,,,
,,,,,,,,,67acfcf471895bd3ece873e5,Maxican ,13 or older,"no, only English or Spanish",no,2025-07-23_07h11.58.546,empathy_intonation_perc,2024.2.4,Win32,59.88023952,67acfcf471895bd3ece873e5,687ed1b7e638a4cbf2f02089,6880c24414f146a5fb241246,,,,,,,,,,,,,,1,,,,,,,,,,,,,,,,,,,,,,,,,,,,,,,,,,,,,,,,,,,,,,,,,,,,,,,,,43,canela,,,,,1564.8764,1565.9437,1,1,0.5488,,0,14,14,42,1,REAL,FAKE,,,,,,,,,,,,,,,,,
,,,,,,,,,67acfcf471895bd3ece873e5,Maxican ,13 or older,"no, only English or Spanish",no,2025-07-23_07h11.58.546,empathy_intonation_perc,2024.2.4,Win32,59.88023952,67acfcf471895bd3ece873e5,687ed1b7e638a4cbf2f02089,6880c24414f146a5fb241246,,,,,,,,,,,,,,0,,,,,,,,,,,,,,,,,,,,,,,,,,,,,,,,,,,,,,,,,,,,,,,,,,,,,,,,,4,batillón,,,,,1565.9461,1567.0124,1,0,0.5497,,0,15,15,3,1,REAL,FAKE,,,,,,,,,,,,,,,,,
,,,,,,,,,67acfcf471895bd3ece873e5,Maxican ,13 or older,"no, only English or Spanish",no,2025-07-23_07h11.58.546,empathy_intonation_perc,2024.2.4,Win32,59.88023952,67acfcf471895bd3ece873e5,687ed1b7e638a4cbf2f02089,6880c24414f146a5fb241246,,,,,,,,,,,,,,1,,,,,,,,,,,,,,,,,,,,,,,,,,,,,,,,,,,,,,,,,,,,,,,,,,,,,,,,,85,laúd,,,,,1567.0146,1568.0144,1,1,0.4804,,0,16,16,84,1,REAL,FAKE,,,,,,,,,,,,,,,,,
,,,,,,,,,67acfcf471895bd3ece873e5,Maxican ,13 or older,"no, only English or Spanish",no,2025-07-23_07h11.58.546,empathy_intonation_perc,2024.2.4,Win32,59.88023952,67acfcf471895bd3ece873e5,687ed1b7e638a4cbf2f02089,6880c24414f146a5fb241246,,,,,,,,,,,,,,1,,,,,,,,,,,,,,,,,,,,,,,,,,,,,,,,,,,,,,,,,,,,,,,,,,,,,,,,,28,merodear,,,,,1568.0162,1569.4008,0,0,0.8661,,0,17,17,27,1,REAL,FAKE,,,,,,,,,,,,,,,,,
,,,,,,,,,67acfcf471895bd3ece873e5,Maxican ,13 or older,"no, only English or Spanish",no,2025-07-23_07h11.58.546,empathy_intonation_perc,2024.2.4,Win32,59.88023952,67acfcf471895bd3ece873e5,687ed1b7e638a4cbf2f02089,6880c24414f146a5fb241246,,,,,,,,,,,,,,1,,,,,,,,,,,,,,,,,,,,,,,,,,,,,,,,,,,,,,,,,,,,,,,,,,,,,,,,,91,click the 1 key.,,,,,1569.403,1571.4716,1,1,1.5494,,0,18,18,90,1,REAL,FAKE,,,,,,,,,,,,,,,,,
,,,,,,,,,67acfcf471895bd3ece873e5,Maxican ,13 or older,"no, only English or Spanish",no,2025-07-23_07h11.58.546,empathy_intonation_perc,2024.2.4,Win32,59.88023952,67acfcf471895bd3ece873e5,687ed1b7e638a4cbf2f02089,6880c24414f146a5fb241246,,,,,,,,,,,,,,1,,,,,,,,,,,,,,,,,,,,,,,,,,,,,,,,,,,,,,,,,,,,,,,,,,,,,,,,,12,asesinato,,,,,1571.4734,1572.891,1,1,0.8861,,0,19,19,11,1,REAL,FAKE,,,,,,,,,,,,,,,,,
,,,,,,,,,67acfcf471895bd3ece873e5,Maxican ,13 or older,"no, only English or Spanish",no,2025-07-23_07h11.58.546,empathy_intonation_perc,2024.2.4,Win32,59.88023952,67acfcf471895bd3ece873e5,687ed1b7e638a4cbf2f02089,6880c24414f146a5fb241246,,,,,,,,,,,,,,1,,,,,,,,,,,,,,,,,,,,,,,,,,,,,,,,,,,,,,,,,,,,,,,,,,,,,,,,,75,yacer,,,,,1572.8927,1574.2772,0,0,0.8685,,0,20,20,74,1,REAL,FAKE,,,,,,,,,,,,,,,,,
,,,,,,,,,67acfcf471895bd3ece873e5,Maxican ,13 or older,"no, only English or Spanish",no,2025-07-23_07h11.58.546,empathy_intonation_perc,2024.2.4,Win32,59.88023952,67acfcf471895bd3ece873e5,687ed1b7e638a4cbf2f02089,6880c24414f146a5fb241246,,,,,,,,,,,,,,0,,,,,,,,,,,,,,,,,,,,,,,,,,,,,,,,,,,,,,,,,,,,,,,,,,,,,,,,,50,flamida,,,,,1574.279,1575.4128,1,0,0.6006,,0,21,21,49,1,REAL,FAKE,,,,,,,,,,,,,,,,,
,,,,,,,,,67acfcf471895bd3ece873e5,Maxican ,13 or older,"no, only English or Spanish",no,2025-07-23_07h11.58.546,empathy_intonation_perc,2024.2.4,Win32,59.88023952,67acfcf471895bd3ece873e5,687ed1b7e638a4cbf2f02089,6880c24414f146a5fb241246,,,,,,,,,,,,,,1,,,,,,,,,,,,,,,,,,,,,,,,,,,,,,,,,,,,,,,,,,,,,,,,,,,,,,,,,76,atar,,,,,1575.4146,1577.1329,0,0,1.1998,,0,22,22,75,1,REAL,FAKE,,,,,,,,,,,,,,,,,
,,,,,,,,,67acfcf471895bd3ece873e5,Maxican ,13 or older,"no, only English or Spanish",no,2025-07-23_07h11.58.546,empathy_intonation_perc,2024.2.4,Win32,59.88023952,67acfcf471895bd3ece873e5,687ed1b7e638a4cbf2f02089,6880c24414f146a5fb241246,,,,,,,,,,,,,,1,,,,,,,,,,,,,,,,,,,,,,,,,,,,,,,,,,,,,,,,,,,,,,,,,,,,,,,,,45,jilguero,,,,,1577.1347,1578.3198,1,1,0.6714,,0,23,23,44,1,REAL,FAKE,,,,,,,,,,,,,,,,,
,,,,,,,,,67acfcf471895bd3ece873e5,Maxican ,13 or older,"no, only English or Spanish",no,2025-07-23_07h11.58.546,empathy_intonation_perc,2024.2.4,Win32,59.88023952,67acfcf471895bd3ece873e5,687ed1b7e638a4cbf2f02089,6880c24414f146a5fb241246,,,,,,,,,,,,,,1,,,,,,,,,,,,,,,,,,,,,,,,,,,,,,,,,,,,,,,,,,,,,,,,,,,,,,,,,3,pulmones,,,,,1578.3217,1579.3885,1,1,0.5397,,0,24,24,2,1,REAL,FAKE,,,,,,,,,,,,,,,,,
,,,,,,,,,67acfcf471895bd3ece873e5,Maxican ,13 or older,"no, only English or Spanish",no,2025-07-23_07h11.58.546,empathy_intonation_perc,2024.2.4,Win32,59.88023952,67acfcf471895bd3ece873e5,687ed1b7e638a4cbf2f02089,6880c24414f146a5fb241246,,,,,,,,,,,,,,0,,,,,,,,,,,,,,,,,,,,,,,,,,,,,,,,,,,,,,,,,,,,,,,,,,,,,,,,,63,esposante,,,,,1579.39,1580.7902,1,0,0.8663,,0,25,25,62,1,REAL,FAKE,,,,,,,,,,,,,,,,,
,,,,,,,,,67acfcf471895bd3ece873e5,Maxican ,13 or older,"no, only English or Spanish",no,2025-07-23_07h11.58.546,empathy_intonation_perc,2024.2.4,Win32,59.88023952,67acfcf471895bd3ece873e5,687ed1b7e638a4cbf2f02089,6880c24414f146a5fb241246,,,,,,,,,,,,,,1,,,,,,,,,,,,,,,,,,,,,,,,,,,,,,,,,,,,,,,,,,,,,,,,,,,,,,,,,36,loro,,,,,1580.7921,1582.2265,0,0,0.9172,,0,26,26,35,1,REAL,FAKE,,,,,,,,,,,,,,,,,
,,,,,,,,,67acfcf471895bd3ece873e5,Maxican ,13 or older,"no, only English or Spanish",no,2025-07-23_07h11.58.546,empathy_intonation_perc,2024.2.4,Win32,59.88023952,67acfcf471895bd3ece873e5,687ed1b7e638a4cbf2f02089,6880c24414f146a5fb241246,,,,,,,,,,,,,,1,,,,,,,,,,,,,,,,,,,,,,,,,,,,,,,,,,,,,,,,,,,,,,,,,,,,,,,,,52,camisa,,,,,1582.2284,1583.6134,1,1,0.8722,,0,27,27,51,1,REAL,FAKE,,,,,,,,,,,,,,,,,
,,,,,,,,,67acfcf471895bd3ece873e5,Maxican ,13 or older,"no, only English or Spanish",no,2025-07-23_07h11.58.546,empathy_intonation_perc,2024.2.4,Win32,59.88023952,67acfcf471895bd3ece873e5,687ed1b7e638a4cbf2f02089,6880c24414f146a5fb241246,,,,,,,,,,,,,,1,,,,,,,,,,,,,,,,,,,,,,,,,,,,,,,,,,,,,,,,,,,,,,,,,,,,,,,,,46,martillo,,,,,1583.615,1584.7315,1,1,0.5828,,0,28,28,45,1,REAL,FAKE,,,,,,,,,,,,,,,,,
,,,,,,,,,67acfcf471895bd3ece873e5,Maxican ,13 or older,"no, only English or Spanish",no,2025-07-23_07h11.58.546,empathy_intonation_perc,2024.2.4,Win32,59.88023952,67acfcf471895bd3ece873e5,687ed1b7e638a4cbf2f02089,6880c24414f146a5fb241246,,,,,,,,,,,,,,0,,,,,,,,,,,,,,,,,,,,,,,,,,,,,,,,,,,,,,,,,,,,,,,,,,,,,,,,,27,acutación,,,,,1584.7333,1585.934,1,0,0.6843,,0,29,29,26,1,REAL,FAKE,,,,,,,,,,,,,,,,,
,,,,,,,,,67acfcf471895bd3ece873e5,Maxican ,13 or older,"no, only English or Spanish",no,2025-07-23_07h11.58.546,empathy_intonation_perc,2024.2.4,Win32,59.88023952,67acfcf471895bd3ece873e5,687ed1b7e638a4cbf2f02089,6880c24414f146a5fb241246,,,,,,,,,,,,,,1,,,,,,,,,,,,,,,,,,,,,,,,,,,,,,,,,,,,,,,,,,,,,,,,,,,,,,,,,86,barato,,,,,1585.9358,1587.2867,0,0,0.8372,,0,30,30,85,1,REAL,FAKE,,,,,,,,,,,,,,,,,
,,,,,,,,,67acfcf471895bd3ece873e5,Maxican ,13 or older,"no, only English or Spanish",no,2025-07-23_07h11.58.546,empathy_intonation_perc,2024.2.4,Win32,59.88023952,67acfcf471895bd3ece873e5,687ed1b7e638a4cbf2f02089,6880c24414f146a5fb241246,,,,,,,,,,,,,,0,,,,,,,,,,,,,,,,,,,,,,,,,,,,,,,,,,,,,,,,,,,,,,,,,,,,,,,,,70,temblo,,,,,1587.2887,1588.4222,1,0,0.6141,,0,31,31,69,1,REAL,FAKE,,,,,,,,,,,,,,,,,
,,,,,,,,,67acfcf471895bd3ece873e5,Maxican ,13 or older,"no, only English or Spanish",no,2025-07-23_07h11.58.546,empathy_intonation_perc,2024.2.4,Win32,59.88023952,67acfcf471895bd3ece873e5,687ed1b7e638a4cbf2f02089,6880c24414f146a5fb241246,,,,,,,,,,,,,,0,,,,,,,,,,,,,,,,,,,,,,,,,,,,,,,,,,,,,,,,,,,,,,,,,,,,,,,,,58,plaudir,,,,,1588.4242,1589.6088,1,0,0.6724,,0,32,32,57,1,REAL,FAKE,,,,,,,,,,,,,,,,,
,,,,,,,,,67acfcf471895bd3ece873e5,Maxican ,13 or older,"no, only English or Spanish",no,2025-07-23_07h11.58.546,empathy_intonation_perc,2024.2.4,Win32,59.88023952,67acfcf471895bd3ece873e5,687ed1b7e638a4cbf2f02089,6880c24414f146a5fb241246,,,,,,,,,,,,,,1,,,,,,,,,,,,,,,,,,,,,,,,,,,,,,,,,,,,,,,,,,,,,,,,,,,,,,,,,31,pandilla,,,,,1589.6102,1590.7938,1,1,0.6536,,0,33,33,30,1,REAL,FAKE,,,,,,,,,,,,,,,,,
,,,,,,,,,67acfcf471895bd3ece873e5,Maxican ,13 or older,"no, only English or Spanish",no,2025-07-23_07h11.58.546,empathy_intonation_perc,2024.2.4,Win32,59.88023952,67acfcf471895bd3ece873e5,687ed1b7e638a4cbf2f02089,6880c24414f146a5fb241246,,,,,,,,,,,,,,1,,,,,,,,,,,,,,,,,,,,,,,,,,,,,,,,,,,,,,,,,,,,,,,,,,,,,,,,,78,frondoso,,,,,1590.7957,1592.1632,0,0,0.8486,,0,34,34,77,1,REAL,FAKE,,,,,,,,,,,,,,,,,
,,,,,,,,,67acfcf471895bd3ece873e5,Maxican ,13 or older,"no, only English or Spanish",no,2025-07-23_07h11.58.546,empathy_intonation_perc,2024.2.4,Win32,59.88023952,67acfcf471895bd3ece873e5,687ed1b7e638a4cbf2f02089,6880c24414f146a5fb241246,,,,,,,,,,,,,,1,,,,,,,,,,,,,,,,,,,,,,,,,,,,,,,,,,,,,,,,,,,,,,,,,,,,,,,,,88,acantilado,,,,,1592.1651,1593.4324,1,1,0.7484,,0,35,35,87,1,REAL,FAKE,,,,,,,,,,,,,,,,,
,,,,,,,,,67acfcf471895bd3ece873e5,Maxican ,13 or older,"no, only English or Spanish",no,2025-07-23_07h11.58.546,empathy_intonation_perc,2024.2.4,Win32,59.88023952,67acfcf471895bd3ece873e5,687ed1b7e638a4cbf2f02089,6880c24414f146a5fb241246,,,,,,,,,,,,,,0,,,,,,,,,,,,,,,,,,,,,,,,,,,,,,,,,,,,,,,,,,,,,,,,,,,,,,,,,84,escuto,,,,,1593.4344,1594.4512,1,0,0.5018,,0,36,36,83,1,REAL,FAKE,,,,,,,,,,,,,,,,,
,,,,,,,,,67acfcf471895bd3ece873e5,Maxican ,13 or older,"no, only English or Spanish",no,2025-07-23_07h11.58.546,empathy_intonation_perc,2024.2.4,Win32,59.88023952,67acfcf471895bd3ece873e5,687ed1b7e638a4cbf2f02089,6880c24414f146a5fb241246,,,,,,,,,,,,,,1,,,,,,,,,,,,,,,,,,,,,,,,,,,,,,,,,,,,,,,,,,,,,,,,,,,,,,,,,51,candado,,,,,1594.4529,1595.5534,0,0,0.5802,,0,37,37,50,1,REAL,FAKE,,,,,,,,,,,,,,,,,
,,,,,,,,,67acfcf471895bd3ece873e5,Maxican ,13 or older,"no, only English or Spanish",no,2025-07-23_07h11.58.546,empathy_intonation_perc,2024.2.4,Win32,59.88023952,67acfcf471895bd3ece873e5,687ed1b7e638a4cbf2f02089,6880c24414f146a5fb241246,,,,,,,,,,,,,,0,,,,,,,,,,,,,,,,,,,,,,,,,,,,,,,,,,,,,,,,,,,,,,,,,,,,,,,,,92,click the 0 key.,,,,,1595.5555,1596.9395,0,1,0.8509,,0,38,38,91,1,REAL,FAKE,,,,,,,,,,,,,,,,,
,,,,,,,,,67acfcf471895bd3ece873e5,Maxican ,13 or older,"no, only English or Spanish",no,2025-07-23_07h11.58.546,empathy_intonation_perc,2024.2.4,Win32,59.88023952,67acfcf471895bd3ece873e5,687ed1b7e638a4cbf2f02089,6880c24414f146a5fb241246,,,,,,,,,,,,,,0,,,,,,,,,,,,,,,,,,,,,,,,,,,,,,,,,,,,,,,,,,,,,,,,,,,,,,,,,19,brecedad,,,,,1596.9412,1598.2422,1,0,0.7813,,0,39,39,18,1,REAL,FAKE,,,,,,,,,,,,,,,,,
,,,,,,,,,67acfcf471895bd3ece873e5,Maxican ,13 or older,"no, only English or Spanish",no,2025-07-23_07h11.58.546,empathy_intonation_perc,2024.2.4,Win32,59.88023952,67acfcf471895bd3ece873e5,687ed1b7e638a4cbf2f02089,6880c24414f146a5fb241246,,,,,,,,,,,,,,1,,,,,,,,,,,,,,,,,,,,,,,,,,,,,,,,,,,,,,,,,,,,,,,,,,,,,,,,,34,aviso,,,,,1598.2444,1599.3114,1,1,0.5541,,0,40,40,33,1,REAL,FAKE,,,,,,,,,,,,,,,,,
,,,,,,,,,67acfcf471895bd3ece873e5,Maxican ,13 or older,"no, only English or Spanish",no,2025-07-23_07h11.58.546,empathy_intonation_perc,2024.2.4,Win32,59.88023952,67acfcf471895bd3ece873e5,687ed1b7e638a4cbf2f02089,6880c24414f146a5fb241246,,,,,,,,,,,,,,1,,,,,,,,,,,,,,,,,,,,,,,,,,,,,,,,,,,,,,,,,,,,,,,,,,,,,,,,,49,ganar,,,,,1599.3131,1600.4131,1,1,0.5649,,0,41,41,48,1,REAL,FAKE,,,,,,,,,,,,,,,,,
,,,,,,,,,67acfcf471895bd3ece873e5,Maxican ,13 or older,"no, only English or Spanish",no,2025-07-23_07h11.58.546,empathy_intonation_perc,2024.2.4,Win32,59.88023952,67acfcf471895bd3ece873e5,687ed1b7e638a4cbf2f02089,6880c24414f146a5fb241246,,,,,,,,,,,,,,1,,,,,,,,,,,,,,,,,,,,,,,,,,,,,,,,,,,,,,,,,,,,,,,,,,,,,,,,,24,látigo,,,,,1600.4154,1601.5488,1,1,0.6181,,0,42,42,23,1,REAL,FAKE,,,,,,,,,,,,,,,,,
,,,,,,,,,67acfcf471895bd3ece873e5,Maxican ,13 or older,"no, only English or Spanish",no,2025-07-23_07h11.58.546,empathy_intonation_perc,2024.2.4,Win32,59.88023952,67acfcf471895bd3ece873e5,687ed1b7e638a4cbf2f02089,6880c24414f146a5fb241246,,,,,,,,,,,,,,1,,,,,,,,,,,,,,,,,,,,,,,,,,,,,,,,,,,,,,,,,,,,,,,,,,,,,,,,,73,hervidor,,,,,1601.5505,1602.7513,0,0,0.6836,,0,43,43,72,1,REAL,FAKE,,,,,,,,,,,,,,,,,
,,,,,,,,,67acfcf471895bd3ece873e5,Maxican ,13 or older,"no, only English or Spanish",no,2025-07-23_07h11.58.546,empathy_intonation_perc,2024.2.4,Win32,59.88023952,67acfcf471895bd3ece873e5,687ed1b7e638a4cbf2f02089,6880c24414f146a5fb241246,,,,,,,,,,,,,,0,,,,,,,,,,,,,,,,,,,,,,,,,,,,,,,,,,,,,,,,,,,,,,,,,,,,,,,,,79,tropaje,,,,,1602.7532,1603.6865,1,0,0.414,,0,44,44,78,1,REAL,FAKE,,,,,,,,,,,,,,,,,
,,,,,,,,,67acfcf471895bd3ece873e5,Maxican ,13 or older,"no, only English or Spanish",no,2025-07-23_07h11.58.546,empathy_intonation_perc,2024.2.4,Win32,59.88023952,67acfcf471895bd3ece873e5,687ed1b7e638a4cbf2f02089,6880c24414f146a5fb241246,,,,,,,,,,,,,,0,,,,,,,,,,,,,,,,,,,,,,,,,,,,,,,,,,,,,,,,,,,,,,,,,,,,,,,,,8,cadeña,,,,,1603.6887,1604.6386,1,0,0.4339,,0,45,45,7,1,REAL,FAKE,,,,,,,,,,,,,,,,,
,,,,,,,,,67acfcf471895bd3ece873e5,Maxican ,13 or older,"no, only English or Spanish",no,2025-07-23_07h11.58.546,empathy_intonation_perc,2024.2.4,Win32,59.88023952,67acfcf471895bd3ece873e5,687ed1b7e638a4cbf2f02089,6880c24414f146a5fb241246,,,,,,,,,,,,,,1,,,,,,,,,,,,,,,,,,,,,,,,,,,,,,,,,,,,,,,,,,,,,,,,,,,,,,,,,44,cuchara,,,,,1604.6405,1605.7573,1,1,0.5805,,0,46,46,43,1,REAL,FAKE,,,,,,,,,,,,,,,,,
,,,,,,,,,67acfcf471895bd3ece873e5,Maxican ,13 or older,"no, only English or Spanish",no,2025-07-23_07h11.58.546,empathy_intonation_perc,2024.2.4,Win32,59.88023952,67acfcf471895bd3ece873e5,687ed1b7e638a4cbf2f02089,6880c24414f146a5fb241246,,,,,,,,,,,,,,0,,,,,,,,,,,,,,,,,,,,,,,,,,,,,,,,,,,,,,,,,,,,,,,,,,,,,,,,,42,cadallo,,,,,1605.7592,1606.7928,0,1,0.514,,0,47,47,41,1,REAL,FAKE,,,,,,,,,,,,,,,,,
,,,,,,,,,67acfcf471895bd3ece873e5,Maxican ,13 or older,"no, only English or Spanish",no,2025-07-23_07h11.58.546,empathy_intonation_perc,2024.2.4,Win32,59.88023952,67acfcf471895bd3ece873e5,687ed1b7e638a4cbf2f02089,6880c24414f146a5fb241246,,,,,,,,,,,,,,1,,,,,,,,,,,,,,,,,,,,,,,,,,,,,,,,,,,,,,,,,,,,,,,,,,,,,,,,,59,besar,,,,,1606.7945,1607.9124,1,1,0.5889,,0,48,48,58,1,REAL,FAKE,,,,,,,,,,,,,,,,,
,,,,,,,,,67acfcf471895bd3ece873e5,Maxican ,13 or older,"no, only English or Spanish",no,2025-07-23_07h11.58.546,empathy_intonation_perc,2024.2.4,Win32,59.88023952,67acfcf471895bd3ece873e5,687ed1b7e638a4cbf2f02089,6880c24414f146a5fb241246,,,,,,,,,,,,,,1,,,,,,,,,,,,,,,,,,,,,,,,,,,,,,,,,,,,,,,,,,,,,,,,,,,,,,,,,65,bizcocho,,,,,1607.9145,1608.897,0,0,0.4489,,0,49,49,64,1,REAL,FAKE,,,,,,,,,,,,,,,,,
,,,,,,,,,67acfcf471895bd3ece873e5,Maxican ,13 or older,"no, only English or Spanish",no,2025-07-23_07h11.58.546,empathy_intonation_perc,2024.2.4,Win32,59.88023952,67acfcf471895bd3ece873e5,687ed1b7e638a4cbf2f02089,6880c24414f146a5fb241246,,,,,,,,,,,,,,1,,,,,,,,,,,,,,,,,,,,,,,,,,,,,,,,,,,,,,,,,,,,,,,,,,,,,,,,,68,alegre,,,,,1608.8986,1609.8655,1,1,0.4506,,0,50,50,67,1,REAL,FAKE,,,,,,,,,,,,,,,,,
,,,,,,,,,67acfcf471895bd3ece873e5,Maxican ,13 or older,"no, only English or Spanish",no,2025-07-23_07h11.58.546,empathy_intonation_perc,2024.2.4,Win32,59.88023952,67acfcf471895bd3ece873e5,687ed1b7e638a4cbf2f02089,6880c24414f146a5fb241246,,,,,,,,,,,,,,0,,,,,,,,,,,,,,,,,,,,,,,,,,,,,,,,,,,,,,,,,,,,,,,,,,,,,,,,,87,grodo,,,,,1609.8674,1610.9512,1,0,0.5486,,0,51,51,86,1,REAL,FAKE,,,,,,,,,,,,,,,,,
,,,,,,,,,67acfcf471895bd3ece873e5,Maxican ,13 or older,"no, only English or Spanish",no,2025-07-23_07h11.58.546,empathy_intonation_perc,2024.2.4,Win32,59.88023952,67acfcf471895bd3ece873e5,687ed1b7e638a4cbf2f02089,6880c24414f146a5fb241246,,,,,,,,,,,,,,0,,,,,,,,,,,,,,,,,,,,,,,,,,,,,,,,,,,,,,,,,,,,,,,,,,,,,,,,,35,rompido,,,,,1610.9532,1611.9531,0,1,0.4818,,0,52,52,34,1,REAL,FAKE,,,,,,,,,,,,,,,,,
,,,,,,,,,67acfcf471895bd3ece873e5,Maxican ,13 or older,"no, only English or Spanish",no,2025-07-23_07h11.58.546,empathy_intonation_perc,2024.2.4,Win32,59.88023952,67acfcf471895bd3ece873e5,687ed1b7e638a4cbf2f02089,6880c24414f146a5fb241246,,,,,,,,,,,,,,1,,,,,,,,,,,,,,,,,,,,,,,,,,,,,,,,,,,,,,,,,,,,,,,,,,,,,,,,,41,rebuscar,,,,,1611.9551,1613.0053,0,0,0.5308,,0,53,53,40,1,REAL,FAKE,,,,,,,,,,,,,,,,,
,,,,,,,,,67acfcf471895bd3ece873e5,Maxican ,13 or older,"no, only English or Spanish",no,2025-07-23_07h11.58.546,empathy_intonation_perc,2024.2.4,Win32,59.88023952,67acfcf471895bd3ece873e5,687ed1b7e638a4cbf2f02089,6880c24414f146a5fb241246,,,,,,,,,,,,,,1,,,,,,,,,,,,,,,,,,,,,,,,,,,,,,,,,,,,,,,,,,,,,,,,,,,,,,,,,60,matar,,,,,1613.0077,1614.0074,0,0,0.4674,,0,54,54,59,1,REAL,FAKE,,,,,,,,,,,,,,,,,
,,,,,,,,,67acfcf471895bd3ece873e5,Maxican ,13 or older,"no, only English or Spanish",no,2025-07-23_07h11.58.546,empathy_intonation_perc,2024.2.4,Win32,59.88023952,67acfcf471895bd3ece873e5,687ed1b7e638a4cbf2f02089,6880c24414f146a5fb241246,,,,,,,,,,,,,,0,,,,,,,,,,,,,,,,,,,,,,,,,,,,,,,,,,,,,,,,,,,,,,,,,,,,,,,,,1,terzo,,,,,1614.0094,1614.9092,1,0,0.3646,,0,55,55,0,1,REAL,FAKE,,,,,,,,,,,,,,,,,
,,,,,,,,,67acfcf471895bd3ece873e5,Maxican ,13 or older,"no, only English or Spanish",no,2025-07-23_07h11.58.546,empathy_intonation_perc,2024.2.4,Win32,59.88023952,67acfcf471895bd3ece873e5,687ed1b7e638a4cbf2f02089,6880c24414f146a5fb241246,,,,,,,,,,,,,,1,,,,,,,,,,,,,,,,,,,,,,,,,,,,,,,,,,,,,,,,,,,,,,,,,,,,,,,,,67,cabello,,,,,1614.9108,1615.8945,1,1,0.4482,,0,56,56,66,1,REAL,FAKE,,,,,,,,,,,,,,,,,
,,,,,,,,,67acfcf471895bd3ece873e5,Maxican ,13 or older,"no, only English or Spanish",no,2025-07-23_07h11.58.546,empathy_intonation_perc,2024.2.4,Win32,59.88023952,67acfcf471895bd3ece873e5,687ed1b7e638a4cbf2f02089,6880c24414f146a5fb241246,,,,,,,,,,,,,,1,,,,,,,,,,,,,,,,,,,,,,,,,,,,,,,,,,,,,,,,,,,,,,,,,,,,,,,,,6,tergiversar,,,,,1615.8963,1616.8464,0,0,0.4145,,0,57,57,5,1,REAL,FAKE,,,,,,,,,,,,,,,,,
,,,,,,,,,67acfcf471895bd3ece873e5,Maxican ,13 or older,"no, only English or Spanish",no,2025-07-23_07h11.58.546,empathy_intonation_perc,2024.2.4,Win32,59.88023952,67acfcf471895bd3ece873e5,687ed1b7e638a4cbf2f02089,6880c24414f146a5fb241246,,,,,,,,,,,,,,0,,,,,,,,,,,,,,,,,,,,,,,,,,,,,,,,,,,,,,,,,,,,,,,,,,,,,,,,,82,empirador,,,,,1616.8481,1617.8985,1,0,0.5369,,0,58,58,81,1,REAL,FAKE,,,,,,,,,,,,,,,,,
,,,,,,,,,67acfcf471895bd3ece873e5,Maxican ,13 or older,"no, only English or Spanish",no,2025-07-23_07h11.58.546,empathy_intonation_perc,2024.2.4,Win32,59.88023952,67acfcf471895bd3ece873e5,687ed1b7e638a4cbf2f02089,6880c24414f146a5fb241246,,,,,,,,,,,,,,0,,,,,,,,,,,,,,,,,,,,,,,,,,,,,,,,,,,,,,,,,,,,,,,,,,,,,,,,,72,pemición,,,,,1617.9003,1619.0509,0,1,0.6371,,0,59,59,71,1,REAL,FAKE,,,,,,,,,,,,,,,,,
,,,,,,,,,67acfcf471895bd3ece873e5,Maxican ,13 or older,"no, only English or Spanish",no,2025-07-23_07h11.58.546,empathy_intonation_perc,2024.2.4,Win32,59.88023952,67acfcf471895bd3ece873e5,687ed1b7e638a4cbf2f02089,6880c24414f146a5fb241246,,,,,,,,,,,,,,0,,,,,,,,,,,,,,,,,,,,,,,,,,,,,,,,,,,,,,,,,,,,,,,,,,,,,,,,,74,cintro,,,,,1619.0527,1620.1364,1,0,0.5511,,0,60,60,73,1,REAL,FAKE,,,,,,,,,,,,,,,,,
,,,,,,,,,67acfcf471895bd3ece873e5,Maxican ,13 or older,"no, only English or Spanish",no,2025-07-23_07h11.58.546,empathy_intonation_perc,2024.2.4,Win32,59.88023952,67acfcf471895bd3ece873e5,687ed1b7e638a4cbf2f02089,6880c24414f146a5fb241246,,,,,,,,,,,,,,1,,,,,,,,,,,,,,,,,,,,,,,,,,,,,,,,,,,,,,,,,,,,,,,,,,,,,,,,,39,torpe,,,,,1620.1381,1621.1383,1,1,0.4824,,0,61,61,38,1,REAL,FAKE,,,,,,,,,,,,,,,,,
,,,,,,,,,67acfcf471895bd3ece873e5,Maxican ,13 or older,"no, only English or Spanish",no,2025-07-23_07h11.58.546,empathy_intonation_perc,2024.2.4,Win32,59.88023952,67acfcf471895bd3ece873e5,687ed1b7e638a4cbf2f02089,6880c24414f146a5fb241246,,,,,,,,,,,,,,1,,,,,,,,,,,,,,,,,,,,,,,,,,,,,,,,,,,,,,,,,,,,,,,,,,,,,,,,,81,pozo,,,,,1621.1402,1622.2908,0,0,0.6165,,0,62,62,80,1,REAL,FAKE,,,,,,,,,,,,,,,,,
,,,,,,,,,67acfcf471895bd3ece873e5,Maxican ,13 or older,"no, only English or Spanish",no,2025-07-23_07h11.58.546,empathy_intonation_perc,2024.2.4,Win32,59.88023952,67acfcf471895bd3ece873e5,687ed1b7e638a4cbf2f02089,6880c24414f146a5fb241246,,,,,,,,,,,,,,1,,,,,,,,,,,,,,,,,,,,,,,,,,,,,,,,,,,,,,,,,,,,,,,,,,,,,,,,,62,flaco,,,,,1622.2925,1623.2592,1,1,0.432,,0,63,63,61,1,REAL,FAKE,,,,,,,,,,,,,,,,,
,,,,,,,,,67acfcf471895bd3ece873e5,Maxican ,13 or older,"no, only English or Spanish",no,2025-07-23_07h11.58.546,empathy_intonation_perc,2024.2.4,Win32,59.88023952,67acfcf471895bd3ece873e5,687ed1b7e638a4cbf2f02089,6880c24414f146a5fb241246,,,,,,,,,,,,,,1,,,,,,,,,,,,,,,,,,,,,,,,,,,,,,,,,,,,,,,,,,,,,,,,,,,,,,,,,7,pésimo,,,,,1623.261,1624.2614,0,0,0.4822,,0,64,64,6,1,REAL,FAKE,,,,,,,,,,,,,,,,,
,,,,,,,,,67acfcf471895bd3ece873e5,Maxican ,13 or older,"no, only English or Spanish",no,2025-07-23_07h11.58.546,empathy_intonation_perc,2024.2.4,Win32,59.88023952,67acfcf471895bd3ece873e5,687ed1b7e638a4cbf2f02089,6880c24414f146a5fb241246,,,,,,,,,,,,,,0,,,,,,,,,,,,,,,,,,,,,,,,,,,,,,,,,,,,,,,,,,,,,,,,,,,,,,,,,10,antar,,,,,1624.2631,1625.2967,0,1,0.5158,,0,65,65,9,1,REAL,FAKE,,,,,,,,,,,,,,,,,
,,,,,,,,,67acfcf471895bd3ece873e5,Maxican ,13 or older,"no, only English or Spanish",no,2025-07-23_07h11.58.546,empathy_intonation_perc,2024.2.4,Win32,59.88023952,67acfcf471895bd3ece873e5,687ed1b7e638a4cbf2f02089,6880c24414f146a5fb241246,,,,,,,,,,,,,,1,,,,,,,,,,,,,,,,,,,,,,,,,,,,,,,,,,,,,,,,,,,,,,,,,,,,,,,,,80,hormiga,,,,,1625.2986,1626.3823,1,1,0.5514,,0,66,66,79,1,REAL,FAKE,,,,,,,,,,,,,,,,,
,,,,,,,,,67acfcf471895bd3ece873e5,Maxican ,13 or older,"no, only English or Spanish",no,2025-07-23_07h11.58.546,empathy_intonation_perc,2024.2.4,Win32,59.88023952,67acfcf471895bd3ece873e5,687ed1b7e638a4cbf2f02089,6880c24414f146a5fb241246,,,,,,,,,,,,,,1,,,,,,,,,,,,,,,,,,,,,,,,,,,,,,,,,,,,,,,,,,,,,,,,,,,,,,,,,48,ladrón,,,,,1626.384,1627.6682,1,1,0.7657,,0,67,67,47,1,REAL,FAKE,,,,,,,,,,,,,,,,,
,,,,,,,,,67acfcf471895bd3ece873e5,Maxican ,13 or older,"no, only English or Spanish",no,2025-07-23_07h11.58.546,empathy_intonation_perc,2024.2.4,Win32,59.88023952,67acfcf471895bd3ece873e5,687ed1b7e638a4cbf2f02089,6880c24414f146a5fb241246,,,,,,,,,,,,,,1,,,,,,,,,,,,,,,,,,,,,,,,,,,,,,,,,,,,,,,,,,,,,,,,,,,,,,,,,40,alfombra,,,,,1627.6699,1628.8206,0,0,0.6301,,0,68,68,39,1,REAL,FAKE,,,,,,,,,,,,,,,,,
,,,,,,,,,67acfcf471895bd3ece873e5,Maxican ,13 or older,"no, only English or Spanish",no,2025-07-23_07h11.58.546,empathy_intonation_perc,2024.2.4,Win32,59.88023952,67acfcf471895bd3ece873e5,687ed1b7e638a4cbf2f02089,6880c24414f146a5fb241246,,,,,,,,,,,,,,1,,,,,,,,,,,,,,,,,,,,,,,,,,,,,,,,,,,,,,,,,,,,,,,,,,,,,,,,,64,orgulloso,,,,,1628.8226,1630.19,0,0,0.8362,,0,69,69,63,1,REAL,FAKE,,,,,,,,,,,,,,,,,
,,,,,,,,,67acfcf471895bd3ece873e5,Maxican ,13 or older,"no, only English or Spanish",no,2025-07-23_07h11.58.546,empathy_intonation_perc,2024.2.4,Win32,59.88023952,67acfcf471895bd3ece873e5,687ed1b7e638a4cbf2f02089,6880c24414f146a5fb241246,,,,,,,,,,,,,,1,,,,,,,,,,,,,,,,,,,,,,,,,,,,,,,,,,,,,,,,,,,,,,,,,,,,,,,,,89,prisa,,,,,1630.1918,1631.0583,1,1,0.3466,,0,70,70,88,1,REAL,FAKE,,,,,,,,,,,,,,,,,
,,,,,,,,,67acfcf471895bd3ece873e5,Maxican ,13 or older,"no, only English or Spanish",no,2025-07-23_07h11.58.546,empathy_intonation_perc,2024.2.4,Win32,59.88023952,67acfcf471895bd3ece873e5,687ed1b7e638a4cbf2f02089,6880c24414f146a5fb241246,,,,,,,,,,,,,,0,,,,,,,,,,,,,,,,,,,,,,,,,,,,,,,,,,,,,,,,,,,,,,,,,,,,,,,,,18,arsa,,,,,1631.0602,1632.4444,1,0,0.8695,,0,71,71,17,1,REAL,FAKE,,,,,,,,,,,,,,,,,
,,,,,,,,,67acfcf471895bd3ece873e5,Maxican ,13 or older,"no, only English or Spanish",no,2025-07-23_07h11.58.546,empathy_intonation_perc,2024.2.4,Win32,59.88023952,67acfcf471895bd3ece873e5,687ed1b7e638a4cbf2f02089,6880c24414f146a5fb241246,,,,,,,,,,,,,,1,,,,,,,,,,,,,,,,,,,,,,,,,,,,,,,,,,,,,,,,,,,,,,,,,,,,,,,,,55,nevar,,,,,1632.4462,1633.4632,1,1,0.5033,,0,72,72,54,1,REAL,FAKE,,,,,,,,,,,,,,,,,
,,,,,,,,,67acfcf471895bd3ece873e5,Maxican ,13 or older,"no, only English or Spanish",no,2025-07-23_07h11.58.546,empathy_intonation_perc,2024.2.4,Win32,59.88023952,67acfcf471895bd3ece873e5,687ed1b7e638a4cbf2f02089,6880c24414f146a5fb241246,,,,,,,,,,,,,,0,,,,,,,,,,,,,,,,,,,,,,,,,,,,,,,,,,,,,,,,,,,,,,,,,,,,,,,,,16,abracer,,,,,1633.4651,1634.4653,1,0,0.4672,,0,73,73,15,1,REAL,FAKE,,,,,,,,,,,,,,,,,
,,,,,,,,,67acfcf471895bd3ece873e5,Maxican ,13 or older,"no, only English or Spanish",no,2025-07-23_07h11.58.546,empathy_intonation_perc,2024.2.4,Win32,59.88023952,67acfcf471895bd3ece873e5,687ed1b7e638a4cbf2f02089,6880c24414f146a5fb241246,,,,,,,,,,,,,,1,,,,,,,,,,,,,,,,,,,,,,,,,,,,,,,,,,,,,,,,,,,,,,,,,,,,,,,,,71,polvoriento,,,,,1634.4672,1635.4506,1,1,0.4643,,0,74,74,70,1,REAL,FAKE,,,,,,,,,,,,,,,,,
,,,,,,,,,67acfcf471895bd3ece873e5,Maxican ,13 or older,"no, only English or Spanish",no,2025-07-23_07h11.58.546,empathy_intonation_perc,2024.2.4,Win32,59.88023952,67acfcf471895bd3ece873e5,687ed1b7e638a4cbf2f02089,6880c24414f146a5fb241246,,,,,,,,,,,,,,1,,,,,,,,,,,,,,,,,,,,,,,,,,,,,,,,,,,,,,,,,,,,,,,,,,,,,,,,,38,estornudar,,,,,1635.4523,1636.4693,1,1,0.4842,,0,75,75,37,1,REAL,FAKE,,,,,,,,,,,,,,,,,
,,,,,,,,,67acfcf471895bd3ece873e5,Maxican ,13 or older,"no, only English or Spanish",no,2025-07-23_07h11.58.546,empathy_intonation_perc,2024.2.4,Win32,59.88023952,67acfcf471895bd3ece873e5,687ed1b7e638a4cbf2f02089,6880c24414f146a5fb241246,,,,,,,,,,,,,,1,,,,,,,,,,,,,,,,,,,,,,,,,,,,,,,,,,,,,,,,,,,,,,,,,,,,,,,,,57,tacaño,,,,,1636.471,1637.5048,1,1,0.5145,,0,76,76,56,1,REAL,FAKE,,,,,,,,,,,,,,,,,
,,,,,,,,,67acfcf471895bd3ece873e5,Maxican ,13 or older,"no, only English or Spanish",no,2025-07-23_07h11.58.546,empathy_intonation_perc,2024.2.4,Win32,59.88023952,67acfcf471895bd3ece873e5,687ed1b7e638a4cbf2f02089,6880c24414f146a5fb241246,,,,,,,,,,,,,,0,,,,,,,,,,,,,,,,,,,,,,,,,,,,,,,,,,,,,,,,,,,,,,,,,,,,,,,,,29,decar,,,,,1637.5067,1638.4901,1,0,0.4467,,0,77,77,28,1,REAL,FAKE,,,,,,,,,,,,,,,,,
,,,,,,,,,67acfcf471895bd3ece873e5,Maxican ,13 or older,"no, only English or Spanish",no,2025-07-23_07h11.58.546,empathy_intonation_perc,2024.2.4,Win32,59.88023952,67acfcf471895bd3ece873e5,687ed1b7e638a4cbf2f02089,6880c24414f146a5fb241246,,,,,,,,,,,,,,1,,,,,,,,,,,,,,,,,,,,,,,,,,,,,,,,,,,,,,,,,,,,,,,,,,,,,,,,,20,ávido,,,,,1638.492,1639.5256,1,1,0.5149,,0,78,78,19,1,REAL,FAKE,,,,,,,,,,,,,,,,,
,,,,,,,,,67acfcf471895bd3ece873e5,Maxican ,13 or older,"no, only English or Spanish",no,2025-07-23_07h11.58.546,empathy_intonation_perc,2024.2.4,Win32,59.88023952,67acfcf471895bd3ece873e5,687ed1b7e638a4cbf2f02089,6880c24414f146a5fb241246,,,,,,,,,,,,,,1,,,,,,,,,,,,,,,,,,,,,,,,,,,,,,,,,,,,,,,,,,,,,,,,,,,,,,,,,56,musgo,,,,,1639.5275,1640.4609,1,1,0.4138,,0,79,79,55,1,REAL,FAKE,,,,,,,,,,,,,,,,,
,,,,,,,,,67acfcf471895bd3ece873e5,Maxican ,13 or older,"no, only English or Spanish",no,2025-07-23_07h11.58.546,empathy_intonation_perc,2024.2.4,Win32,59.88023952,67acfcf471895bd3ece873e5,687ed1b7e638a4cbf2f02089,6880c24414f146a5fb241246,,,,,,,,,,,,,,1,,,,,,,,,,,,,,,,,,,,,,,,,,,,,,,,,,,,,,,,,,,,,,,,,,,,,,,,,83,guante,,,,,1640.4627,1641.5294,0,0,0.5377,,0,80,80,82,1,REAL,FAKE,,,,,,,,,,,,,,,,,
,,,,,,,,,67acfcf471895bd3ece873e5,Maxican ,13 or older,"no, only English or Spanish",no,2025-07-23_07h11.58.546,empathy_intonation_perc,2024.2.4,Win32,59.88023952,67acfcf471895bd3ece873e5,687ed1b7e638a4cbf2f02089,6880c24414f146a5fb241246,,,,,,,,,,,,,,1,,,,,,,,,,,,,,,,,,,,,,,,,,,,,,,,,,,,,,,,,,,,,,,,,,,,,,,,,77,tiburón,,,,,1641.5312,1642.398,1,1,0.3535,,0,81,81,76,1,REAL,FAKE,,,,,,,,,,,,,,,,,
,,,,,,,,,67acfcf471895bd3ece873e5,Maxican ,13 or older,"no, only English or Spanish",no,2025-07-23_07h11.58.546,empathy_intonation_perc,2024.2.4,Win32,59.88023952,67acfcf471895bd3ece873e5,687ed1b7e638a4cbf2f02089,6880c24414f146a5fb241246,,,,,,,,,,,,,,0,,,,,,,,,,,,,,,,,,,,,,,,,,,,,,,,,,,,,,,,,,,,,,,,,,,,,,,,,33,pauca,,,,,1642.3998,1643.3673,1,0,0.4391,,0,82,82,32,1,REAL,FAKE,,,,,,,,,,,,,,,,,
,,,,,,,,,67acfcf471895bd3ece873e5,Maxican ,13 or older,"no, only English or Spanish",no,2025-07-23_07h11.58.546,empathy_intonation_perc,2024.2.4,Win32,59.88023952,67acfcf471895bd3ece873e5,687ed1b7e638a4cbf2f02089,6880c24414f146a5fb241246,,,,,,,,,,,,,,1,,,,,,,,,,,,,,,,,,,,,,,,,,,,,,,,,,,,,,,,,,,,,,,,,,,,,,,,,90,clavel,,,,,1643.3688,1644.4689,1,1,0.5638,,0,83,83,89,1,REAL,FAKE,,,,,,,,,,,,,,,,,
,,,,,,,,,67acfcf471895bd3ece873e5,Maxican ,13 or older,"no, only English or Spanish",no,2025-07-23_07h11.58.546,empathy_intonation_perc,2024.2.4,Win32,59.88023952,67acfcf471895bd3ece873e5,687ed1b7e638a4cbf2f02089,6880c24414f146a5fb241246,,,,,,,,,,,,,,0,,,,,,,,,,,,,,,,,,,,,,,,,,,,,,,,,,,,,,,,,,,,,,,,,,,,,,,,,53,vegada,,,,,1644.471,1645.4543,1,0,0.4505,,0,84,84,52,1,REAL,FAKE,,,,,,,,,,,,,,,,,
,,,,,,,,,67acfcf471895bd3ece873e5,Maxican ,13 or older,"no, only English or Spanish",no,2025-07-23_07h11.58.546,empathy_intonation_perc,2024.2.4,Win32,59.88023952,67acfcf471895bd3ece873e5,687ed1b7e638a4cbf2f02089,6880c24414f146a5fb241246,,,,,,,,,,,,,,0,,,,,,,,,,,,,,,,,,,,,,,,,,,,,,,,,,,,,,,,,,,,,,,,,,,,,,,,,21,capillo,,,,,1645.4565,1646.3895,1,0,0.4037,,0,85,85,20,1,REAL,FAKE,,,,,,,,,,,,,,,,,
,,,,,,,,,67acfcf471895bd3ece873e5,Maxican ,13 or older,"no, only English or Spanish",no,2025-07-23_07h11.58.546,empathy_intonation_perc,2024.2.4,Win32,59.88023952,67acfcf471895bd3ece873e5,687ed1b7e638a4cbf2f02089,6880c24414f146a5fb241246,,,,,,,,,,,,,,1,,,,,,,,,,,,,,,,,,,,,,,,,,,,,,,,,,,,,,,,,,,,,,,,,,,,,,,,,61,seda,,,,,1646.3915,1647.3078,0,0,0.3978,,0,86,86,60,1,REAL,FAKE,,,,,,,,,,,,,,,,,
,,,,,,,,,67acfcf471895bd3ece873e5,Maxican ,13 or older,"no, only English or Spanish",no,2025-07-23_07h11.58.546,empathy_intonation_perc,2024.2.4,Win32,59.88023952,67acfcf471895bd3ece873e5,687ed1b7e638a4cbf2f02089,6880c24414f146a5fb241246,,,,,,,,,,,,,,1,,,,,,,,,,,,,,,,,,,,,,,,,,,,,,,,,,,,,,,,,,,,,,,,,,,,,,,,,13,helar,,,,,1647.3096,1648.6272,1,1,0.8022,,0,87,87,12,1,REAL,FAKE,,,,,,,,,,,,,,,,,
,,,,,,,,,67acfcf471895bd3ece873e5,Maxican ,13 or older,"no, only English or Spanish",no,2025-07-23_07h11.58.546,empathy_intonation_perc,2024.2.4,Win32,59.88023952,67acfcf471895bd3ece873e5,687ed1b7e638a4cbf2f02089,6880c24414f146a5fb241246,,,,,,,,,,,,,,1,,,,,,,,,,,,,,,,,,,,,,,,,,,,,,,,,,,,,,,,,,,,,,,,,,,,,,,,,25,bisagra,,,,,1648.629,1649.6459,1,1,0.5029,,0,88,88,24,1,REAL,FAKE,,,,,,,,,,,,,,,,,
,,,,,,,,,67acfcf471895bd3ece873e5,Maxican ,13 or older,"no, only English or Spanish",no,2025-07-23_07h11.58.546,empathy_intonation_perc,2024.2.4,Win32,59.88023952,67acfcf471895bd3ece873e5,687ed1b7e638a4cbf2f02089,6880c24414f146a5fb241246,,,,,,,,,,,,,,1,,,,,,,,,,,,,,,,,,,,,,,,,,,,,,,,,,,,,,,,,,,,,,,,,,,,,,,,,37,granuja,,,,,1649.6479,1650.5645,1,1,0.4047,,0,89,89,36,1,REAL,FAKE,,,,,,,,,,,,,,,,,
,,,,,,,,,67acfcf471895bd3ece873e5,Maxican ,13 or older,"no, only English or Spanish",no,2025-07-23_07h11.58.546,empathy_intonation_perc,2024.2.4,Win32,59.88023952,67acfcf471895bd3ece873e5,687ed1b7e638a4cbf2f02089,6880c24414f146a5fb241246,,,,,,,,,,,,,,1,,,,,,,,,,,,,,,,,,,,,,,,,,,,,,,,,,,,,,,,,,,,,,,,,,,,,,,,,22,lacayo,,,,,1650.5663,1651.4663,1,1,0.3808,,0,90,90,21,1,REAL,FAKE,,,,,,,,,,,,,,,,,
,,,,,,,,,67acfcf471895bd3ece873e5,Maxican ,13 or older,"no, only English or Spanish",no,2025-07-23_07h11.58.546,empathy_intonation_perc,2024.2.4,Win32,59.88023952,67acfcf471895bd3ece873e5,687ed1b7e638a4cbf2f02089,6880c24414f146a5fb241246,,,,,,,,,,,,,,0,,,,,,,,,,,,,,,,,,,,,,,,,,,,,,,,,,,,,,,,,,,,,,,,,,,,,,,,,47,cartinar,,,,,1651.4682,1652.4856,1,0,0.4883,,0,91,91,46,1,REAL,FAKE,,,,,,,,,,,,,,,,,
,,,,,,,,,67acfcf471895bd3ece873e5,Maxican ,13 or older,"no, only English or Spanish",no,2025-07-23_07h11.58.546,empathy_intonation_perc,2024.2.4,Win32,59.88023952,67acfcf471895bd3ece873e5,687ed1b7e638a4cbf2f02089,6880c24414f146a5fb241246,,,,,,,,,,,,,,,,,,,,,,,,,,,,,,,,,,,,,,,,,,,,,,,,,,,,,,,,,,,,,,,,,,,,,,,,,,,,,,,,,,,,,,,,,,1652.4862,1655.2578,,,,,,,,,,,,,,,
,,,,,,,,,67acfcf471895bd3ece873e5,Maxican ,13 or older,"no, only English or Spanish",no,2025-07-23_07h11.58.546,empathy_intonation_perc,2024.2.4,Win32,59.88023952,67acfcf471895bd3ece873e5,687ed1b7e638a4cbf2f02089,6880c24414f146a5fb241246,,,,,,,,,,,,,1,,,,,,,,,,,,,,,,,,,,,,,,,,,,,,,,,,,,,,,,,,,,,,,,,,,,,,,,,,,,,,,,,,,,,,,,,,,,,,,1655.2755,1664.3949,strongly agree,0,0,0,0,1,I can easily tell if someone else wants to enter a conversation.,1,0,1,0,,
,,,,,,,,,67acfcf471895bd3ece873e5,Maxican ,13 or older,"no, only English or Spanish",no,2025-07-23_07h11.58.546,empathy_intonation_perc,2024.2.4,Win32,59.88023952,67acfcf471895bd3ece873e5,687ed1b7e638a4cbf2f02089,6880c24414f146a5fb241246,,,,,,,,,,,,,2,,,,,,,,,,,,,,,,,,,,,,,,,,,,,,,,,,,,,,,,,,,,,,,,,,,,,,,,,,,,,,,,,,,,,,,,,,,,,,,1664.398,1668.4003,strongly disagree,0,1,1,1,1,I prefer animals to humans.,0,1,0,0,,
,,,,,,,,,67acfcf471895bd3ece873e5,Maxican ,13 or older,"no, only English or Spanish",no,2025-07-23_07h11.58.546,empathy_intonation_perc,2024.2.4,Win32,59.88023952,67acfcf471895bd3ece873e5,687ed1b7e638a4cbf2f02089,6880c24414f146a5fb241246,,,,,,,,,,,,,3,,,,,,,,,,,,,,,,,,,,,,,,,,,,,,,,,,,,,,,,,,,,,,,,,,,,,,,,,,,,,,,,,,,,,,,,,,,,,,,1668.404,1671.3231,slightly agree,0,2,2,2,1,I try to keep up with the current trends and fashions.,0,1,0,0,,
,,,,,,,,,67acfcf471895bd3ece873e5,Maxican ,13 or older,"no, only English or Spanish",no,2025-07-23_07h11.58.546,empathy_intonation_perc,2024.2.4,Win32,59.88023952,67acfcf471895bd3ece873e5,687ed1b7e638a4cbf2f02089,6880c24414f146a5fb241246,,,,,,,,,,,,,4,,,,,,,,,,,,,,,,,,,,,,,,,,,,,,,,,,,,,,,,,,,,,,,,,,,,,,,,,,,,,,,,,,,,,,,,,,,,,,,1671.3274,1677.0679,slightly agree,0,3,3,3,1,"I find it difficult to explain to others things that I understand easily,   when they don't understand it first time.",1,0,0,1,,
,,,,,,,,,67acfcf471895bd3ece873e5,Maxican ,13 or older,"no, only English or Spanish",no,2025-07-23_07h11.58.546,empathy_intonation_perc,2024.2.4,Win32,59.88023952,67acfcf471895bd3ece873e5,687ed1b7e638a4cbf2f02089,6880c24414f146a5fb241246,,,,,,,,,,,,,5,,,,,,,,,,,,,,,,,,,,,,,,,,,,,,,,,,,,,,,,,,,,,,,,,,,,,,,,,,,,,,,,,,,,,,,,,,,,,,,1677.0713,1678.7884,slightly agree,0,4,4,4,1,I dream most nights.,0,1,0,0,,
,,,,,,,,,67acfcf471895bd3ece873e5,Maxican ,13 or older,"no, only English or Spanish",no,2025-07-23_07h11.58.546,empathy_intonation_perc,2024.2.4,Win32,59.88023952,67acfcf471895bd3ece873e5,687ed1b7e638a4cbf2f02089,6880c24414f146a5fb241246,,,,,,,,,,,,,6,,,,,,,,,,,,,,,,,,,,,,,,,,,,,,,,,,,,,,,,,,,,,,,,,,,,,,,,,,,,,,,,,,,,,,,,,,,,,,,1678.7909,1681.9281,slightly disagree,0,5,5,5,1,I really enjoy caring for other people.,1,0,1,0,,
,,,,,,,,,67acfcf471895bd3ece873e5,Maxican ,13 or older,"no, only English or Spanish",no,2025-07-23_07h11.58.546,empathy_intonation_perc,2024.2.4,Win32,59.88023952,67acfcf471895bd3ece873e5,687ed1b7e638a4cbf2f02089,6880c24414f146a5fb241246,,,,,,,,,,,,,7,,,,,,,,,,,,,,,,,,,,,,,,,,,,,,,,,,,,,,,,,,,,,,,,,,,,,,,,,,,,,,,,,,,,,,,,,,,,,,,1681.9314,1685.8862,slightly agree,0,6,6,6,1,I try to solve my own problems rather than discussing them with others.,0,1,0,0,,
,,,,,,,,,67acfcf471895bd3ece873e5,Maxican ,13 or older,"no, only English or Spanish",no,2025-07-23_07h11.58.546,empathy_intonation_perc,2024.2.4,Win32,59.88023952,67acfcf471895bd3ece873e5,687ed1b7e638a4cbf2f02089,6880c24414f146a5fb241246,,,,,,,,,,,,,8,,,,,,,,,,,,,,,,,,,,,,,,,,,,,,,,,,,,,,,,,,,,,,,,,,,,,,,,,,,,,,,,,,,,,,,,,,,,,,,1685.8888,1691.6979,strongly disagree,0,7,7,7,1,I find it hard to know what to do in a social situation.,1,0,0,1,,
