instructions_exposure.started,instructions_exposure.stopped,instructions_exposure_loop.thisRepN,instructions_exposure_loop.thisTrialN,instructions_exposure_loop.thisN,instructions_exposure_loop.thisIndex,instructions_exposure_loop.ran,instructions_text,continue_text,participant_id,"What variety of Spanish are you most familiar with? (e.g., Peruvian, Spanish, Mexican)",At what age did you begin learning Spanish?,Are you proficient in any languages other than English/Spanish?,"Are you familiar with Caribbean (e.g., Caribbean, Puerto Rican) or Galician Spanish?",date,expName,psychopyVersion,OS,frameRate,id,study_id,session,trial_exposure.started,trial_exposure.stopped,key_resp_exposure.keys,key_resp_exposure.corr,key_resp_exposure.rt,key_resp_exposure.duration,key_resp.keys,exposure_loop.thisRepN,exposure_loop.thisTrialN,exposure_loop.thisN,exposure_loop.thisIndex,exposure_loop.ran,item_num,correct_response,question,path,duration,instructions_2afc.started,instructions_2afc.stopped,instructions_2afc_loop.thisRepN,instructions_2afc_loop.thisTrialN,instructions_2afc_loop.thisN,instructions_2afc_loop.thisIndex,instructions_2afc_loop.ran,practice_2afc.started,practice_2afc.stopped,key_resp_2afc_practice.keys,key_resp_2afc_practice.corr,key_resp_2afc_practice.rt,key_resp_2afc_practice.duration,trials_2afc_practice_loop.thisRepN,trials_2afc_practice_loop.thisTrialN,trials_2afc_practice_loop.thisN,trials_2afc_practice_loop.thisIndex,trials_2afc_practice_loop.ran,check_2afc.started,check_2afc.stopped,trial_2afc.started,trial_2afc.stopped,key_resp_2afc_trial.keys,key_resp_2afc_trial.corr,key_resp_2afc_trial.rt,key_resp_2afc_trial.duration,trials_2afc_loop.thisRepN,trials_2afc_loop.thisTrialN,trials_2afc_loop.thisN,trials_2afc_loop.thisIndex,trials_2afc_loop.ran,target,variety,instructions_lextale.started,instructions_lextale.stopped,instructions_lextale_loop.thisRepN,instructions_lextale_loop.thisTrialN,instructions_lextale_loop.thisN,instructions_lextale_loop.thisIndex,instructions_lextale_loop.ran,practice_lextale.started,practice_lextale.stopped,key_resp_lextale_practice.keys,key_resp_lextale_practice.corr,key_resp_lextale_practice.rt,key_resp_lextale_practice.duration,practice_feedback_lextale.started,practice_feedback_lextale.stopped,trials_lextale_practice_loop.thisRepN,trials_lextale_practice_loop.thisTrialN,trials_lextale_practice_loop.thisN,trials_lextale_practice_loop.thisIndex,trials_lextale_practice_loop.ran,stim,word,prac_button_real,prac_button_false,check_lextale.started,check_lextale.stopped,trial_lextale.started,trial_lextale.stopped,key_resp_lextale_trial.keys,key_resp_lextale_trial.corr,key_resp_lextale_trial.rt,key_resp_lextale_trial.duration,trials_lextale_loop.thisRepN,trials_lextale_loop.thisTrialN,trials_lextale_loop.thisN,trials_lextale_loop.thisIndex,trials_lextale_loop.ran,button_real,button_false,instructions_eq.started,instructions_eq.stopped,trial_eq.started,trial_eq.stopped,slider_eq_trial.response,trials_eq_loop.thisRepN,trials_eq_loop.thisTrialN,trials_eq_loop.thisN,trials_eq_loop.thisIndex,trials_eq_loop.ran,item,is_test_item,is_distractor,is_agree_score,is_disagree_score,end_exp.started,end_exp.stopped
0.0346,7.6479,0,0,0,0,1,"In the following task, you are going to hear a series of conversations.", (press the space bar to continue),67ad7554361978dd021a69d3,Mexican,13 or older,"yes, I am fluent in another language",yes,2025-08-13_17h52.23.141,empathy_intonation_perc,2024.2.4,Win32,29.94011976,67ad7554361978dd021a69d3,687ed1b7e638a4cbf2f02089,689d08d081dbc5d688c5d6d6,,,,,,,,,,,,,,,,,,,,,,,,,,,,,,,,,,,,,,,,,,,,,,,,,,,,,,,,,,,,,,,,,,,,,,,,,,,,,,,,,,,,,,,,,,,,,,,,,,,,,,,,,,
7.649,11.8136,0,1,1,1,1,It is okay if you don't not 100% understand them!, (press the space bar to continue),67ad7554361978dd021a69d3,Mexican,13 or older,"yes, I am fluent in another language",yes,2025-08-13_17h52.23.141,empathy_intonation_perc,2024.2.4,Win32,29.94011976,67ad7554361978dd021a69d3,687ed1b7e638a4cbf2f02089,689d08d081dbc5d688c5d6d6,,,,,,,,,,,,,,,,,,,,,,,,,,,,,,,,,,,,,,,,,,,,,,,,,,,,,,,,,,,,,,,,,,,,,,,,,,,,,,,,,,,,,,,,,,,,,,,,,,,,,,,,,,
11.8181,17.7475,0,2,2,2,1,"After, you will read a sentence about the conversation and decide if it's true or false.", (press the space bar to continue),67ad7554361978dd021a69d3,Mexican,13 or older,"yes, I am fluent in another language",yes,2025-08-13_17h52.23.141,empathy_intonation_perc,2024.2.4,Win32,29.94011976,67ad7554361978dd021a69d3,687ed1b7e638a4cbf2f02089,689d08d081dbc5d688c5d6d6,,,,,,,,,,,,,,,,,,,,,,,,,,,,,,,,,,,,,,,,,,,,,,,,,,,,,,,,,,,,,,,,,,,,,,,,,,,,,,,,,,,,,,,,,,,,,,,,,,,,,,,,,,
17.7532,21.7131,0,3,3,3,1,"If it's true, press '1' (True) and if it's false press '0' (False).", (press the space bar to continue),67ad7554361978dd021a69d3,Mexican,13 or older,"yes, I am fluent in another language",yes,2025-08-13_17h52.23.141,empathy_intonation_perc,2024.2.4,Win32,29.94011976,67ad7554361978dd021a69d3,687ed1b7e638a4cbf2f02089,689d08d081dbc5d688c5d6d6,,,,,,,,,,,,,,,,,,,,,,,,,,,,,,,,,,,,,,,,,,,,,,,,,,,,,,,,,,,,,,,,,,,,,,,,,,,,,,,,,,,,,,,,,,,,,,,,,,,,,,,,,,
,,,,,,,,,67ad7554361978dd021a69d3,Mexican,13 or older,"yes, I am fluent in another language",yes,2025-08-13_17h52.23.141,empathy_intonation_perc,2024.2.4,Win32,29.94011976,67ad7554361978dd021a69d3,687ed1b7e638a4cbf2f02089,689d08d081dbc5d688c5d6d6,21.7266,93.9123,1,1,12.0746,,,0,0,0,1,1,2,1,The mom asked the daughter if she already went to the supermarket.,./stim/exposure_wavs/dr_stimuli_convo.wav,60,,,,,,,,,,,,,,,,,,,,,,,,,,,,,,,,,,,,,,,,,,,,,,,,,,,,,,,,,,,,,,,,,,,,,,,,,,,,,,,,,,,,,,,,,
,,,,,,,,,67ad7554361978dd021a69d3,Mexican,13 or older,"yes, I am fluent in another language",yes,2025-08-13_17h52.23.141,empathy_intonation_perc,2024.2.4,Win32,29.94011976,67ad7554361978dd021a69d3,687ed1b7e638a4cbf2f02089,689d08d081dbc5d688c5d6d6,93.9165,149.8761,0,1,19.9116,,,0,1,1,2,1,3,0,The mom already has rice.,./stim/exposure_wavs/pr_stimuli_convo.wav,36,,,,,,,,,,,,,,,,,,,,,,,,,,,,,,,,,,,,,,,,,,,,,,,,,,,,,,,,,,,,,,,,,,,,,,,,,,,,,,,,,,,,,,,,,
,,,,,,,,,67ad7554361978dd021a69d3,Mexican,13 or older,"yes, I am fluent in another language",yes,2025-08-13_17h52.23.141,empathy_intonation_perc,2024.2.4,Win32,29.94011976,67ad7554361978dd021a69d3,687ed1b7e638a4cbf2f02089,689d08d081dbc5d688c5d6d6,149.8795,209.1743,0,0,12.2238,,,0,2,2,0,1,1,1,The son asked the mom if Aunt Marina is okay.,./stim/exposure_wavs/ga_stimuli_convo.wav,47,,,,,,,,,,,,,,,,,,,,,,,,,,,,,,,,,,,,,,,,,,,,,,,,,,,,,,,,,,,,,,,,,,,,,,,,,,,,,,,,,,,,,,,,,
,,,,,,,"In the following task you are going to hear a series of utterances. 

  You will decide if the utterances sound like questions or not using your keyboard.", (press the spacebar to continue),67ad7554361978dd021a69d3,Mexican,13 or older,"yes, I am fluent in another language",yes,2025-08-13_17h52.23.141,empathy_intonation_perc,2024.2.4,Win32,29.94011976,67ad7554361978dd021a69d3,687ed1b7e638a4cbf2f02089,689d08d081dbc5d688c5d6d6,,,,,,,,,,,,,,,,,,209.1841,222.7737,0,0,0,0,1,,,,,,,,,,,,,,,,,,,,,,,,,,,,,,,,,,,,,,,,,,,,,,,,,,,,,,,,,,,,,,,,,,,,,,,,,,,,,,,,,,
,,,,,,,"If you believe the utterance is a question, type '1' (for 'yes') and if you do not 
  believe it is a question type '0' (for 'no').

  Let's practice a bit...", (press the spacebar to continue),67ad7554361978dd021a69d3,Mexican,13 or older,"yes, I am fluent in another language",yes,2025-08-13_17h52.23.141,empathy_intonation_perc,2024.2.4,Win32,29.94011976,67ad7554361978dd021a69d3,687ed1b7e638a4cbf2f02089,689d08d081dbc5d688c5d6d6,,,,,,,,,,,,,,,,,,222.7771,228.7071,0,1,1,1,1,,,,,,,,,,,,,,,,,,,,,,,,,,,,,,,,,,,,,,,,,,,,,,,,,,,,,,,,,,,,,,,,,,,,,,,,,,,,,,,,,,
,,,,,,,,,67ad7554361978dd021a69d3,Mexican,13 or older,"yes, I am fluent in another language",yes,2025-08-13_17h52.23.141,empathy_intonation_perc,2024.2.4,Win32,29.94011976,67ad7554361978dd021a69d3,687ed1b7e638a4cbf2f02089,689d08d081dbc5d688c5d6d6,,,,,,,,,,,,,,1,,./stim/wavs/mexican_question_filler_Felipe-no-tiene-contrasena.wav,,,,,,,,,228.7202,234.6077,1,1,5.3445,,0,0,0,3,1,,,,,,,,,,,,,,,,,,,,,,,,,,,,,,,,,,,,,,,,,,,,,,,,,,,,,,,,,,,,,,,,,,,,,,,
,,,,,,,,,67ad7554361978dd021a69d3,Mexican,13 or older,"yes, I am fluent in another language",yes,2025-08-13_17h52.23.141,empathy_intonation_perc,2024.2.4,Win32,29.94011976,67ad7554361978dd021a69d3,687ed1b7e638a4cbf2f02089,689d08d081dbc5d688c5d6d6,,,,,,,,,,,,,,1,,./stim/wavs/castilian_question_filler_Mi-esposo-conoce-al-chico.wav,,,,,,,,,234.6092,244.673,1,1,9.5036,,0,1,1,0,1,,,,,,,,,,,,,,,,,,,,,,,,,,,,,,,,,,,,,,,,,,,,,,,,,,,,,,,,,,,,,,,,,,,,,,,
,,,,,,,,,67ad7554361978dd021a69d3,Mexican,13 or older,"yes, I am fluent in another language",yes,2025-08-13_17h52.23.141,empathy_intonation_perc,2024.2.4,Win32,29.94011976,67ad7554361978dd021a69d3,687ed1b7e638a4cbf2f02089,689d08d081dbc5d688c5d6d6,,,,,,,,,,,,,,1,,./stim/wavs/chilean_question_filler_Mi-padre-cantaba-bien.wav,,,,,,,,,244.6744,257.0391,0,0,11.8171,,0,2,2,2,1,,,,,,,,,,,,,,,,,,,,,,,,,,,,,,,,,,,,,,,,,,,,,,,,,,,,,,,,,,,,,,,,,,,,,,,
,,,,,,,,,67ad7554361978dd021a69d3,Mexican,13 or older,"yes, I am fluent in another language",yes,2025-08-13_17h52.23.141,empathy_intonation_perc,2024.2.4,Win32,29.94011976,67ad7554361978dd021a69d3,687ed1b7e638a4cbf2f02089,689d08d081dbc5d688c5d6d6,,,,,,,,,,,,,,0,,./stim/wavs/andalusian_statement_filler_Alberto-nunca-se-afeita.wav,,,,,,,,,257.0404,260.0727,0,1,2.4729,,0,3,3,5,1,,,,,,,,,,,,,,,,,,,,,,,,,,,,,,,,,,,,,,,,,,,,,,,,,,,,,,,,,,,,,,,,,,,,,,,
,,,,,,,,,67ad7554361978dd021a69d3,Mexican,13 or older,"yes, I am fluent in another language",yes,2025-08-13_17h52.23.141,empathy_intonation_perc,2024.2.4,Win32,29.94011976,67ad7554361978dd021a69d3,687ed1b7e638a4cbf2f02089,689d08d081dbc5d688c5d6d6,,,,,,,,,,,,,,1,,./stim/wavs/argentine_question_filler_Mi-vecino-habla-mucho.wav,,,,,,,,,260.074,267.5723,1,1,6.9393,,0,4,4,1,1,,,,,,,,,,,,,,,,,,,,,,,,,,,,,,,,,,,,,,,,,,,,,,,,,,,,,,,,,,,,,,,,,,,,,,,
,,,,,,,,,67ad7554361978dd021a69d3,Mexican,13 or older,"yes, I am fluent in another language",yes,2025-08-13_17h52.23.141,empathy_intonation_perc,2024.2.4,Win32,29.94011976,67ad7554361978dd021a69d3,687ed1b7e638a4cbf2f02089,689d08d081dbc5d688c5d6d6,,,,,,,,,,,,,,0,,./stim/wavs/peruvian_statement_filler_El-nino-habla-con-su-madre.wav,,,,,,,,,267.5733,270.7723,0,1,2.6379,,0,5,5,6,1,,,,,,,,,,,,,,,,,,,,,,,,,,,,,,,,,,,,,,,,,,,,,,,,,,,,,,,,,,,,,,,,,,,,,,,
,,,,,,,,,67ad7554361978dd021a69d3,Mexican,13 or older,"yes, I am fluent in another language",yes,2025-08-13_17h52.23.141,empathy_intonation_perc,2024.2.4,Win32,29.94011976,67ad7554361978dd021a69d3,687ed1b7e638a4cbf2f02089,689d08d081dbc5d688c5d6d6,,,,,,,,,,,,,,0,,./stim/wavs/puertorican_statement_filler_La-nina-pinta-con-su-amiga.wav,,,,,,,,,270.7736,273.7722,0,1,2.4422,,0,6,6,7,1,,,,,,,,,,,,,,,,,,,,,,,,,,,,,,,,,,,,,,,,,,,,,,,,,,,,,,,,,,,,,,,,,,,,,,,
,,,,,,,,,67ad7554361978dd021a69d3,Mexican,13 or older,"yes, I am fluent in another language",yes,2025-08-13_17h52.23.141,empathy_intonation_perc,2024.2.4,Win32,29.94011976,67ad7554361978dd021a69d3,687ed1b7e638a4cbf2f02089,689d08d081dbc5d688c5d6d6,,,,,,,,,,,,,,0,,./stim/wavs/cuban_statement_filler_Cocinabas-por-la-noche.wav,,,,,,,,,273.7732,276.5048,0,1,2.1895,,0,7,7,4,1,,,,,,,,,,,,,,,,,,,,,,,,,,,,,,,,,,,,,,,,,,,,,,,,,,,,,,,,,,,,,,,,,,,,,,,
,,,,,,,,,67ad7554361978dd021a69d3,Mexican,13 or older,"yes, I am fluent in another language",yes,2025-08-13_17h52.23.141,empathy_intonation_perc,2024.2.4,Win32,29.94011976,67ad7554361978dd021a69d3,687ed1b7e638a4cbf2f02089,689d08d081dbc5d688c5d6d6,,,,,,,,,,,,,,,,,,,,,,,,,,,,,,,,,,,,276.5054,281.1057,,,,,,,,,,,,,,,,,,,,,,,,,,,,,,,,,,,,,,,,,,,,,,,,,,,,,,,,,,,,,,,,,,,,,
,,,,,,,,,67ad7554361978dd021a69d3,Mexican,13 or older,"yes, I am fluent in another language",yes,2025-08-13_17h52.23.141,empathy_intonation_perc,2024.2.4,Win32,29.94011976,67ad7554361978dd021a69d3,687ed1b7e638a4cbf2f02089,689d08d081dbc5d688c5d6d6,,,,,,,,,,,,,3,1,,./stim/wavs/castilian_match_interrogative-total-yn_Manuela-vende-el-carro.wav,,,,,,,,,,,,,,,,,,,,,,281.1434,284.1387,1,1,2.4537,,0,0,0,2,1,0,castilian,,,,,,,,,,,,,,,,,,,,,,,,,,,,,,,,,,,,,,,,,,,,,,,,,,,,,,,,
,,,,,,,,,67ad7554361978dd021a69d3,Mexican,13 or older,"yes, I am fluent in another language",yes,2025-08-13_17h52.23.141,empathy_intonation_perc,2024.2.4,Win32,29.94011976,67ad7554361978dd021a69d3,687ed1b7e638a4cbf2f02089,689d08d081dbc5d688c5d6d6,,,,,,,,,,,,,12,1,,./stim/wavs/cuban_match_interrogative-total-yn_Marta-abre-el-regalo.wav,,,,,,,,,,,,,,,,,,,,,,284.1401,288.705,1,1,4.0089,,0,1,1,11,1,1,cuban,,,,,,,,,,,,,,,,,,,,,,,,,,,,,,,,,,,,,,,,,,,,,,,,,,,,,,,,
,,,,,,,,,67ad7554361978dd021a69d3,Mexican,13 or older,"yes, I am fluent in another language",yes,2025-08-13_17h52.23.141,empathy_intonation_perc,2024.2.4,Win32,29.94011976,67ad7554361978dd021a69d3,687ed1b7e638a4cbf2f02089,689d08d081dbc5d688c5d6d6,,,,,,,,,,,,,57,0,,./stim/wavs/mexican_match_declarative-broad-focus_Ana-lleva-el-abrigo.wav,,,,,,,,,,,,,,,,,,,,,,288.706,290.8712,0,1,1.6065,,0,2,2,56,1,0,mexican,,,,,,,,,,,,,,,,,,,,,,,,,,,,,,,,,,,,,,,,,,,,,,,,,,,,,,,,
,,,,,,,,,67ad7554361978dd021a69d3,Mexican,13 or older,"yes, I am fluent in another language",yes,2025-08-13_17h52.23.141,empathy_intonation_perc,2024.2.4,Win32,29.94011976,67ad7554361978dd021a69d3,687ed1b7e638a4cbf2f02089,689d08d081dbc5d688c5d6d6,,,,,,,,,,,,,71,0,,./stim/wavs/castilian_mismatch_declarative-broad-focus_La-nina-lava-el-plato.wav,,,,,,,,,,,,,,,,,,,,,,290.8723,293.6723,0,1,2.2577,,0,3,3,70,1,0,castilian,,,,,,,,,,,,,,,,,,,,,,,,,,,,,,,,,,,,,,,,,,,,,,,,,,,,,,,,
,,,,,,,,,67ad7554361978dd021a69d3,Mexican,13 or older,"yes, I am fluent in another language",yes,2025-08-13_17h52.23.141,empathy_intonation_perc,2024.2.4,Win32,29.94011976,67ad7554361978dd021a69d3,687ed1b7e638a4cbf2f02089,689d08d081dbc5d688c5d6d6,,,,,,,,,,,,,64,0,,./stim/wavs/puertorican_match_declarative-broad-focus_Daniel-iba-a-Bolivia.wav,,,,,,,,,,,,,,,,,,,,,,293.673,296.3385,0,1,2.1003,,0,4,4,63,1,0,puertorican,,,,,,,,,,,,,,,,,,,,,,,,,,,,,,,,,,,,,,,,,,,,,,,,,,,,,,,,
,,,,,,,,,67ad7554361978dd021a69d3,Mexican,13 or older,"yes, I am fluent in another language",yes,2025-08-13_17h52.23.141,empathy_intonation_perc,2024.2.4,Win32,29.94011976,67ad7554361978dd021a69d3,687ed1b7e638a4cbf2f02089,689d08d081dbc5d688c5d6d6,,,,,,,,,,,,,44,1,,./stim/wavs/puertorican_mismatch_interrogative-total-yn_Mi-madre-come-la-fruta.wav,,,,,,,,,,,,,,,,,,,,,,296.3397,303.2047,1,1,6.2979,,0,5,5,43,1,1,puertorican,,,,,,,,,,,,,,,,,,,,,,,,,,,,,,,,,,,,,,,,,,,,,,,,,,,,,,,,
,,,,,,,,,67ad7554361978dd021a69d3,Mexican,13 or older,"yes, I am fluent in another language",yes,2025-08-13_17h52.23.141,empathy_intonation_perc,2024.2.4,Win32,29.94011976,67ad7554361978dd021a69d3,687ed1b7e638a4cbf2f02089,689d08d081dbc5d688c5d6d6,,,,,,,,,,,,,15,1,,./stim/wavs/mexican_match_interrogative-total-yn_David-leia-el-libro.wav,,,,,,,,,,,,,,,,,,,,,,303.2058,305.7712,1,1,2.0018,,0,6,6,14,1,0,mexican,,,,,,,,,,,,,,,,,,,,,,,,,,,,,,,,,,,,,,,,,,,,,,,,,,,,,,,,
,,,,,,,,,67ad7554361978dd021a69d3,Mexican,13 or older,"yes, I am fluent in another language",yes,2025-08-13_17h52.23.141,empathy_intonation_perc,2024.2.4,Win32,29.94011976,67ad7554361978dd021a69d3,687ed1b7e638a4cbf2f02089,689d08d081dbc5d688c5d6d6,,,,,,,,,,,,,32,1,,./stim/wavs/cuban_mismatch_interrogative-total-yn_Mi-madre-come-la-fruta.wav,,,,,,,,,,,,,,,,,,,,,,305.7722,310.8041,0,0,4.4706,,0,7,7,31,1,1,cuban,,,,,,,,,,,,,,,,,,,,,,,,,,,,,,,,,,,,,,,,,,,,,,,,,,,,,,,,
,,,,,,,,,67ad7554361978dd021a69d3,Mexican,13 or older,"yes, I am fluent in another language",yes,2025-08-13_17h52.23.141,empathy_intonation_perc,2024.2.4,Win32,29.94011976,67ad7554361978dd021a69d3,687ed1b7e638a4cbf2f02089,689d08d081dbc5d688c5d6d6,,,,,,,,,,,,,69,0,,./stim/wavs/castilian_mismatch_declarative-broad-focus_El-nino-oye-el-rio.wav,,,,,,,,,,,,,,,,,,,,,,310.8052,314.9708,0,1,3.6139,,0,8,8,68,1,0,castilian,,,,,,,,,,,,,,,,,,,,,,,,,,,,,,,,,,,,,,,,,,,,,,,,,,,,,,,,
,,,,,,,,,67ad7554361978dd021a69d3,Mexican,13 or older,"yes, I am fluent in another language",yes,2025-08-13_17h52.23.141,empathy_intonation_perc,2024.2.4,Win32,29.94011976,67ad7554361978dd021a69d3,687ed1b7e638a4cbf2f02089,689d08d081dbc5d688c5d6d6,,,,,,,,,,,,,18,1,,./stim/wavs/mexican_match_interrogative-total-yn_Marta-abre-el-regalo.wav,,,,,,,,,,,,,,,,,,,,,,314.972,317.8373,1,1,2.3106,,0,9,9,17,1,0,mexican,,,,,,,,,,,,,,,,,,,,,,,,,,,,,,,,,,,,,,,,,,,,,,,,,,,,,,,,
,,,,,,,,,67ad7554361978dd021a69d3,Mexican,13 or older,"yes, I am fluent in another language",yes,2025-08-13_17h52.23.141,empathy_intonation_perc,2024.2.4,Win32,29.94011976,67ad7554361978dd021a69d3,687ed1b7e638a4cbf2f02089,689d08d081dbc5d688c5d6d6,,,,,,,,,,,,,28,1,,./stim/wavs/castilian_mismatch_interrogative-total-yn_Mi-novio-viene-del-lago.wav,,,,,,,,,,,,,,,,,,,,,,317.8389,320.9371,1,1,2.5366,,0,10,10,27,1,0,castilian,,,,,,,,,,,,,,,,,,,,,,,,,,,,,,,,,,,,,,,,,,,,,,,,,,,,,,,,
,,,,,,,,,67ad7554361978dd021a69d3,Mexican,13 or older,"yes, I am fluent in another language",yes,2025-08-13_17h52.23.141,empathy_intonation_perc,2024.2.4,Win32,29.94011976,67ad7554361978dd021a69d3,687ed1b7e638a4cbf2f02089,689d08d081dbc5d688c5d6d6,,,,,,,,,,,,,35,1,,./stim/wavs/mexican_mismatch_interrogative-total-yn_El-hombre-mira-la-luna.wav,,,,,,,,,,,,,,,,,,,,,,320.9382,325.0703,1,1,3.5684,,0,11,11,34,1,0,mexican,,,,,,,,,,,,,,,,,,,,,,,,,,,,,,,,,,,,,,,,,,,,,,,,,,,,,,,,
,,,,,,,,,67ad7554361978dd021a69d3,Mexican,13 or older,"yes, I am fluent in another language",yes,2025-08-13_17h52.23.141,empathy_intonation_perc,2024.2.4,Win32,29.94011976,67ad7554361978dd021a69d3,687ed1b7e638a4cbf2f02089,689d08d081dbc5d688c5d6d6,,,,,,,,,,,,,21,1,,./stim/wavs/puertorican_match_interrogative-total-yn_David-leia-el-libro.wav,,,,,,,,,,,,,,,,,,,,,,325.0711,327.77,0,0,2.1491,,0,12,12,20,1,1,puertorican,,,,,,,,,,,,,,,,,,,,,,,,,,,,,,,,,,,,,,,,,,,,,,,,,,,,,,,,
,,,,,,,,,67ad7554361978dd021a69d3,Mexican,13 or older,"yes, I am fluent in another language",yes,2025-08-13_17h52.23.141,empathy_intonation_perc,2024.2.4,Win32,29.94011976,67ad7554361978dd021a69d3,687ed1b7e638a4cbf2f02089,689d08d081dbc5d688c5d6d6,,,,,,,,,,,,,84,0,,./stim/wavs/puertorican_mismatch_declarative-broad-focus_El-bebe-comia-muy-bien.wav,,,,,,,,,,,,,,,,,,,,,,327.7711,330.7371,0,1,2.4006,,0,13,13,83,1,0,puertorican,,,,,,,,,,,,,,,,,,,,,,,,,,,,,,,,,,,,,,,,,,,,,,,,,,,,,,,,
,,,,,,,,,67ad7554361978dd021a69d3,Mexican,13 or older,"yes, I am fluent in another language",yes,2025-08-13_17h52.23.141,empathy_intonation_perc,2024.2.4,Win32,29.94011976,67ad7554361978dd021a69d3,687ed1b7e638a4cbf2f02089,689d08d081dbc5d688c5d6d6,,,,,,,,,,,,,59,0,,./stim/wavs/mexican_match_declarative-broad-focus_David-leia-el-libro.wav,,,,,,,,,,,,,,,,,,,,,,330.7385,332.9034,0,1,1.6183,,0,14,14,58,1,0,mexican,,,,,,,,,,,,,,,,,,,,,,,,,,,,,,,,,,,,,,,,,,,,,,,,,,,,,,,,
,,,,,,,,,67ad7554361978dd021a69d3,Mexican,13 or older,"yes, I am fluent in another language",yes,2025-08-13_17h52.23.141,empathy_intonation_perc,2024.2.4,Win32,29.94011976,67ad7554361978dd021a69d3,687ed1b7e638a4cbf2f02089,689d08d081dbc5d688c5d6d6,,,,,,,,,,,,,78,0,,./stim/wavs/cuban_mismatch_declarative-broad-focus_Mi-tia-odia-la-lluvia.wav,,,,,,,,,,,,,,,,,,,,,,332.9046,337.0368,0,1,3.5771,,0,15,15,77,1,0,cuban,,,,,,,,,,,,,,,,,,,,,,,,,,,,,,,,,,,,,,,,,,,,,,,,,,,,,,,,
,,,,,,,,,67ad7554361978dd021a69d3,Mexican,13 or older,"yes, I am fluent in another language",yes,2025-08-13_17h52.23.141,empathy_intonation_perc,2024.2.4,Win32,29.94011976,67ad7554361978dd021a69d3,687ed1b7e638a4cbf2f02089,689d08d081dbc5d688c5d6d6,,,,,,,,,,,,,52,0,,./stim/wavs/cuban_match_declarative-broad-focus_Daniel-iba-a-Bolivia.wav,,,,,,,,,,,,,,,,,,,,,,337.038,340.736,0,1,3.1867,,0,16,16,51,1,0,cuban,,,,,,,,,,,,,,,,,,,,,,,,,,,,,,,,,,,,,,,,,,,,,,,,,,,,,,,,
,,,,,,,,,67ad7554361978dd021a69d3,Mexican,13 or older,"yes, I am fluent in another language",yes,2025-08-13_17h52.23.141,empathy_intonation_perc,2024.2.4,Win32,29.94011976,67ad7554361978dd021a69d3,687ed1b7e638a4cbf2f02089,689d08d081dbc5d688c5d6d6,,,,,,,,,,,,,11,1,,./stim/wavs/cuban_match_interrogative-total-yn_Mariano-habla-del-tiempo.wav,,,,,,,,,,,,,,,,,,,,,,340.7368,345.9036,1,1,4.6184,,0,17,17,10,1,1,cuban,,,,,,,,,,,,,,,,,,,,,,,,,,,,,,,,,,,,,,,,,,,,,,,,,,,,,,,,
,,,,,,,,,67ad7554361978dd021a69d3,Mexican,13 or older,"yes, I am fluent in another language",yes,2025-08-13_17h52.23.141,empathy_intonation_perc,2024.2.4,Win32,29.94011976,67ad7554361978dd021a69d3,687ed1b7e638a4cbf2f02089,689d08d081dbc5d688c5d6d6,,,,,,,,,,,,,27,1,,./stim/wavs/castilian_mismatch_interrogative-total-yn_Mi-madre-come-la-fruta.wav,,,,,,,,,,,,,,,,,,,,,,345.9043,355.5692,1,1,9.1104,,0,18,18,26,1,0,castilian,,,,,,,,,,,,,,,,,,,,,,,,,,,,,,,,,,,,,,,,,,,,,,,,,,,,,,,,
,,,,,,,,,67ad7554361978dd021a69d3,Mexican,13 or older,"yes, I am fluent in another language",yes,2025-08-13_17h52.23.141,empathy_intonation_perc,2024.2.4,Win32,29.94011976,67ad7554361978dd021a69d3,687ed1b7e638a4cbf2f02089,689d08d081dbc5d688c5d6d6,,,,,,,,,,,,,10,1,,./stim/wavs/cuban_match_interrogative-total-yn_Maria-bebe-el-vino.wav,,,,,,,,,,,,,,,,,,,,,,355.5705,361.1362,0,0,5.0095,,0,19,19,9,1,1,cuban,,,,,,,,,,,,,,,,,,,,,,,,,,,,,,,,,,,,,,,,,,,,,,,,,,,,,,,,
,,,,,,,,,67ad7554361978dd021a69d3,Mexican,13 or older,"yes, I am fluent in another language",yes,2025-08-13_17h52.23.141,empathy_intonation_perc,2024.2.4,Win32,29.94011976,67ad7554361978dd021a69d3,687ed1b7e638a4cbf2f02089,689d08d081dbc5d688c5d6d6,,,,,,,,,,,,,40,1,,./stim/wavs/puertorican_mismatch_interrogative-total-yn_El-hombre-mira-la-luna.wav,,,,,,,,,,,,,,,,,,,,,,361.1373,365.2688,1,1,3.582,,0,20,20,39,1,1,puertorican,,,,,,,,,,,,,,,,,,,,,,,,,,,,,,,,,,,,,,,,,,,,,,,,,,,,,,,,
,,,,,,,,,67ad7554361978dd021a69d3,Mexican,13 or older,"yes, I am fluent in another language",yes,2025-08-13_17h52.23.141,empathy_intonation_perc,2024.2.4,Win32,29.94011976,67ad7554361978dd021a69d3,687ed1b7e638a4cbf2f02089,689d08d081dbc5d688c5d6d6,,,,,,,,,,,,,7,1,,./stim/wavs/cuban_match_interrogative-total-yn_Ana-lleva-el-abrigo.wav,,,,,,,,,,,,,,,,,,,,,,365.2698,368.3022,0,0,2.4693,,0,21,21,6,1,1,cuban,,,,,,,,,,,,,,,,,,,,,,,,,,,,,,,,,,,,,,,,,,,,,,,,,,,,,,,,
,,,,,,,,,67ad7554361978dd021a69d3,Mexican,13 or older,"yes, I am fluent in another language",yes,2025-08-13_17h52.23.141,empathy_intonation_perc,2024.2.4,Win32,29.94011976,67ad7554361978dd021a69d3,687ed1b7e638a4cbf2f02089,689d08d081dbc5d688c5d6d6,,,,,,,,,,,,,82,0,,./stim/wavs/mexican_mismatch_declarative-broad-focus_Mi-novio-viene-del-lago.wav,,,,,,,,,,,,,,,,,,,,,,368.3031,370.5355,0,1,1.6768,,0,22,22,81,1,0,mexican,,,,,,,,,,,,,,,,,,,,,,,,,,,,,,,,,,,,,,,,,,,,,,,,,,,,,,,,
,,,,,,,,,67ad7554361978dd021a69d3,Mexican,13 or older,"yes, I am fluent in another language",yes,2025-08-13_17h52.23.141,empathy_intonation_perc,2024.2.4,Win32,29.94011976,67ad7554361978dd021a69d3,687ed1b7e638a4cbf2f02089,689d08d081dbc5d688c5d6d6,,,,,,,,,,,,,23,1,,./stim/wavs/puertorican_match_interrogative-total-yn_Manuela-vende-el-carro.wav,,,,,,,,,,,,,,,,,,,,,,370.5364,373.4689,1,1,2.3711,,0,23,23,22,1,1,puertorican,,,,,,,,,,,,,,,,,,,,,,,,,,,,,,,,,,,,,,,,,,,,,,,,,,,,,,,,
,,,,,,,,,67ad7554361978dd021a69d3,Mexican,13 or older,"yes, I am fluent in another language",yes,2025-08-13_17h52.23.141,empathy_intonation_perc,2024.2.4,Win32,29.94011976,67ad7554361978dd021a69d3,687ed1b7e638a4cbf2f02089,689d08d081dbc5d688c5d6d6,,,,,,,,,,,,,87,0,,./stim/wavs/puertorican_mismatch_declarative-broad-focus_La-maestra-vive-en-Paris.wav,,,,,,,,,,,,,,,,,,,,,,373.47,375.902,0,1,1.8691,,0,24,24,86,1,0,puertorican,,,,,,,,,,,,,,,,,,,,,,,,,,,,,,,,,,,,,,,,,,,,,,,,,,,,,,,,
,,,,,,,,,67ad7554361978dd021a69d3,Mexican,13 or older,"yes, I am fluent in another language",yes,2025-08-13_17h52.23.141,empathy_intonation_perc,2024.2.4,Win32,29.94011976,67ad7554361978dd021a69d3,687ed1b7e638a4cbf2f02089,689d08d081dbc5d688c5d6d6,,,,,,,,,,,,,16,1,,./stim/wavs/mexican_match_interrogative-total-yn_Emilio-ama-la-marcha.wav,,,,,,,,,,,,,,,,,,,,,,375.903,379.7687,1,1,3.3161,,0,25,25,15,1,0,mexican,,,,,,,,,,,,,,,,,,,,,,,,,,,,,,,,,,,,,,,,,,,,,,,,,,,,,,,,
,,,,,,,,,67ad7554361978dd021a69d3,Mexican,13 or older,"yes, I am fluent in another language",yes,2025-08-13_17h52.23.141,empathy_intonation_perc,2024.2.4,Win32,29.94011976,67ad7554361978dd021a69d3,687ed1b7e638a4cbf2f02089,689d08d081dbc5d688c5d6d6,,,,,,,,,,,,,36,1,,./stim/wavs/mexican_mismatch_interrogative-total-yn_El-nino-oye-el-rio.wav,,,,,,,,,,,,,,,,,,,,,,379.7696,384.9689,0,0,4.64,,0,26,26,35,1,0,mexican,,,,,,,,,,,,,,,,,,,,,,,,,,,,,,,,,,,,,,,,,,,,,,,,,,,,,,,,
,,,,,,,,,67ad7554361978dd021a69d3,Mexican,13 or older,"yes, I am fluent in another language",yes,2025-08-13_17h52.23.141,empathy_intonation_perc,2024.2.4,Win32,29.94011976,67ad7554361978dd021a69d3,687ed1b7e638a4cbf2f02089,689d08d081dbc5d688c5d6d6,,,,,,,,,,,,,26,1,,./stim/wavs/castilian_mismatch_interrogative-total-yn_La-nina-lava-el-plato.wav,,,,,,,,,,,,,,,,,,,,,,384.9704,389.6685,1,1,4.1413,,0,27,27,25,1,0,castilian,,,,,,,,,,,,,,,,,,,,,,,,,,,,,,,,,,,,,,,,,,,,,,,,,,,,,,,,
,,,,,,,,,67ad7554361978dd021a69d3,Mexican,13 or older,"yes, I am fluent in another language",yes,2025-08-13_17h52.23.141,empathy_intonation_perc,2024.2.4,Win32,29.94011976,67ad7554361978dd021a69d3,687ed1b7e638a4cbf2f02089,689d08d081dbc5d688c5d6d6,,,,,,,,,,,,,39,1,,./stim/wavs/mexican_mismatch_interrogative-total-yn_Mi-tia-odia-la-lluvia.wav,,,,,,,,,,,,,,,,,,,,,,389.6706,393.4345,1,1,3.2195,,0,28,28,38,1,0,mexican,,,,,,,,,,,,,,,,,,,,,,,,,,,,,,,,,,,,,,,,,,,,,,,,,,,,,,,,
,,,,,,,,,67ad7554361978dd021a69d3,Mexican,13 or older,"yes, I am fluent in another language",yes,2025-08-13_17h52.23.141,empathy_intonation_perc,2024.2.4,Win32,29.94011976,67ad7554361978dd021a69d3,687ed1b7e638a4cbf2f02089,689d08d081dbc5d688c5d6d6,,,,,,,,,,,,,14,1,,./stim/wavs/mexican_match_interrogative-total-yn_Daniel-iba-a-Bolivia.wav,,,,,,,,,,,,,,,,,,,,,,393.436,399.1348,1,1,5.1354,,0,29,29,13,1,0,mexican,,,,,,,,,,,,,,,,,,,,,,,,,,,,,,,,,,,,,,,,,,,,,,,,,,,,,,,,
,,,,,,,,,67ad7554361978dd021a69d3,Mexican,13 or older,"yes, I am fluent in another language",yes,2025-08-13_17h52.23.141,empathy_intonation_perc,2024.2.4,Win32,29.94011976,67ad7554361978dd021a69d3,687ed1b7e638a4cbf2f02089,689d08d081dbc5d688c5d6d6,,,,,,,,,,,,,83,0,,./stim/wavs/mexican_mismatch_declarative-broad-focus_Mi-tia-odia-la-lluvia.wav,,,,,,,,,,,,,,,,,,,,,,399.1359,401.8342,0,1,2.1549,,0,30,30,82,1,0,mexican,,,,,,,,,,,,,,,,,,,,,,,,,,,,,,,,,,,,,,,,,,,,,,,,,,,,,,,,
,,,,,,,,,67ad7554361978dd021a69d3,Mexican,13 or older,"yes, I am fluent in another language",yes,2025-08-13_17h52.23.141,empathy_intonation_perc,2024.2.4,Win32,29.94011976,67ad7554361978dd021a69d3,687ed1b7e638a4cbf2f02089,689d08d081dbc5d688c5d6d6,,,,,,,,,,,,,58,0,,./stim/wavs/mexican_match_declarative-broad-focus_Daniel-iba-a-Bolivia.wav,,,,,,,,,,,,,,,,,,,,,,401.835,407.5677,0,1,5.1731,,0,31,31,57,1,0,mexican,,,,,,,,,,,,,,,,,,,,,,,,,,,,,,,,,,,,,,,,,,,,,,,,,,,,,,,,
,,,,,,,,,67ad7554361978dd021a69d3,Mexican,13 or older,"yes, I am fluent in another language",yes,2025-08-13_17h52.23.141,empathy_intonation_perc,2024.2.4,Win32,29.94011976,67ad7554361978dd021a69d3,687ed1b7e638a4cbf2f02089,689d08d081dbc5d688c5d6d6,,,,,,,,,,,,,50,0,,./stim/wavs/castilian_match_declarative-broad-focus_Marta-abre-el-regalo.wav,,,,,,,,,,,,,,,,,,,,,,407.5694,411.4341,0,1,3.3172,,0,32,32,49,1,0,castilian,,,,,,,,,,,,,,,,,,,,,,,,,,,,,,,,,,,,,,,,,,,,,,,,,,,,,,,,
,,,,,,,,,67ad7554361978dd021a69d3,Mexican,13 or older,"yes, I am fluent in another language",yes,2025-08-13_17h52.23.141,empathy_intonation_perc,2024.2.4,Win32,29.94011976,67ad7554361978dd021a69d3,687ed1b7e638a4cbf2f02089,689d08d081dbc5d688c5d6d6,,,,,,,,,,,,,4,1,,./stim/wavs/castilian_match_interrogative-total-yn_Maria-bebe-el-vino.wav,,,,,,,,,,,,,,,,,,,,,,411.4356,421.4006,1,1,9.4086,,0,33,33,3,1,0,castilian,,,,,,,,,,,,,,,,,,,,,,,,,,,,,,,,,,,,,,,,,,,,,,,,,,,,,,,,
,,,,,,,,,67ad7554361978dd021a69d3,Mexican,13 or older,"yes, I am fluent in another language",yes,2025-08-13_17h52.23.141,empathy_intonation_perc,2024.2.4,Win32,29.94011976,67ad7554361978dd021a69d3,687ed1b7e638a4cbf2f02089,689d08d081dbc5d688c5d6d6,,,,,,,,,,,,,29,1,,./stim/wavs/castilian_mismatch_interrogative-total-yn_Mi-tia-odia-la-lluvia.wav,,,,,,,,,,,,,,,,,,,,,,421.402,423.9686,1,1,2.0228,,0,34,34,28,1,0,castilian,,,,,,,,,,,,,,,,,,,,,,,,,,,,,,,,,,,,,,,,,,,,,,,,,,,,,,,,
,,,,,,,,,67ad7554361978dd021a69d3,Mexican,13 or older,"yes, I am fluent in another language",yes,2025-08-13_17h52.23.141,empathy_intonation_perc,2024.2.4,Win32,29.94011976,67ad7554361978dd021a69d3,687ed1b7e638a4cbf2f02089,689d08d081dbc5d688c5d6d6,,,,,,,,,,,,,60,0,,./stim/wavs/mexican_match_declarative-broad-focus_Emilio-ama-la-marcha.wav,,,,,,,,,,,,,,,,,,,,,,423.9698,427.1335,0,1,2.6031,,0,35,35,59,1,0,mexican,,,,,,,,,,,,,,,,,,,,,,,,,,,,,,,,,,,,,,,,,,,,,,,,,,,,,,,,
,,,,,,,,,67ad7554361978dd021a69d3,Mexican,13 or older,"yes, I am fluent in another language",yes,2025-08-13_17h52.23.141,empathy_intonation_perc,2024.2.4,Win32,29.94011976,67ad7554361978dd021a69d3,687ed1b7e638a4cbf2f02089,689d08d081dbc5d688c5d6d6,,,,,,,,,,,,,46,0,,./stim/wavs/castilian_match_declarative-broad-focus_Emilio-ama-la-marcha.wav,,,,,,,,,,,,,,,,,,,,,,427.1344,431.8998,0,1,4.2183,,0,36,36,45,1,0,castilian,,,,,,,,,,,,,,,,,,,,,,,,,,,,,,,,,,,,,,,,,,,,,,,,,,,,,,,,
,,,,,,,,,67ad7554361978dd021a69d3,Mexican,13 or older,"yes, I am fluent in another language",yes,2025-08-13_17h52.23.141,empathy_intonation_perc,2024.2.4,Win32,29.94011976,67ad7554361978dd021a69d3,687ed1b7e638a4cbf2f02089,689d08d081dbc5d688c5d6d6,,,,,,,,,,,,,9,1,,./stim/wavs/cuban_match_interrogative-total-yn_Manuela-vende-el-carro.wav,,,,,,,,,,,,,,,,,,,,,,431.901,438.2333,1,1,5.8056,,0,37,37,8,1,1,cuban,,,,,,,,,,,,,,,,,,,,,,,,,,,,,,,,,,,,,,,,,,,,,,,,,,,,,,,,
,,,,,,,,,67ad7554361978dd021a69d3,Mexican,13 or older,"yes, I am fluent in another language",yes,2025-08-13_17h52.23.141,empathy_intonation_perc,2024.2.4,Win32,29.94011976,67ad7554361978dd021a69d3,687ed1b7e638a4cbf2f02089,689d08d081dbc5d688c5d6d6,,,,,,,,,,,,,31,1,,./stim/wavs/cuban_mismatch_interrogative-total-yn_El-nino-oye-el-rio.wav,,,,,,,,,,,,,,,,,,,,,,438.2344,441.1667,0,0,2.3684,,0,38,38,30,1,1,cuban,,,,,,,,,,,,,,,,,,,,,,,,,,,,,,,,,,,,,,,,,,,,,,,,,,,,,,,,
,,,,,,,,,67ad7554361978dd021a69d3,Mexican,13 or older,"yes, I am fluent in another language",yes,2025-08-13_17h52.23.141,empathy_intonation_perc,2024.2.4,Win32,29.94011976,67ad7554361978dd021a69d3,687ed1b7e638a4cbf2f02089,689d08d081dbc5d688c5d6d6,,,,,,,,,,,,,20,1,,./stim/wavs/puertorican_match_interrogative-total-yn_Daniel-iba-a-Bolivia.wav,,,,,,,,,,,,,,,,,,,,,,441.1677,444.433,0,0,2.7028,,0,39,39,19,1,1,puertorican,,,,,,,,,,,,,,,,,,,,,,,,,,,,,,,,,,,,,,,,,,,,,,,,,,,,,,,,
,,,,,,,,,67ad7554361978dd021a69d3,Mexican,13 or older,"yes, I am fluent in another language",yes,2025-08-13_17h52.23.141,empathy_intonation_perc,2024.2.4,Win32,29.94011976,67ad7554361978dd021a69d3,687ed1b7e638a4cbf2f02089,689d08d081dbc5d688c5d6d6,,,,,,,,,,,,,88,0,,./stim/wavs/puertorican_mismatch_declarative-broad-focus_La-nina-lava-el-plato.wav,,,,,,,,,,,,,,,,,,,,,,444.434,449.7996,0,1,4.8014,,0,40,40,87,1,0,puertorican,,,,,,,,,,,,,,,,,,,,,,,,,,,,,,,,,,,,,,,,,,,,,,,,,,,,,,,,
,,,,,,,,,67ad7554361978dd021a69d3,Mexican,13 or older,"yes, I am fluent in another language",yes,2025-08-13_17h52.23.141,empathy_intonation_perc,2024.2.4,Win32,29.94011976,67ad7554361978dd021a69d3,687ed1b7e638a4cbf2f02089,689d08d081dbc5d688c5d6d6,,,,,,,,,,,,,45,0,,./stim/wavs/castilian_match_declarative-broad-focus_David-leia-el-libro.wav,,,,,,,,,,,,,,,,,,,,,,449.8005,453.2328,0,1,2.8816,,0,41,41,44,1,0,castilian,,,,,,,,,,,,,,,,,,,,,,,,,,,,,,,,,,,,,,,,,,,,,,,,,,,,,,,,
,,,,,,,,,67ad7554361978dd021a69d3,Mexican,13 or older,"yes, I am fluent in another language",yes,2025-08-13_17h52.23.141,empathy_intonation_perc,2024.2.4,Win32,29.94011976,67ad7554361978dd021a69d3,687ed1b7e638a4cbf2f02089,689d08d081dbc5d688c5d6d6,,,,,,,,,,,,,41,1,,./stim/wavs/puertorican_mismatch_interrogative-total-yn_El-nino-oye-el-rio.wav,,,,,,,,,,,,,,,,,,,,,,453.2346,456.3329,1,1,2.5454,,0,42,42,40,1,1,puertorican,,,,,,,,,,,,,,,,,,,,,,,,,,,,,,,,,,,,,,,,,,,,,,,,,,,,,,,,
,,,,,,,,,67ad7554361978dd021a69d3,Mexican,13 or older,"yes, I am fluent in another language",yes,2025-08-13_17h52.23.141,empathy_intonation_perc,2024.2.4,Win32,29.94011976,67ad7554361978dd021a69d3,687ed1b7e638a4cbf2f02089,689d08d081dbc5d688c5d6d6,,,,,,,,,,,,,42,1,,./stim/wavs/puertorican_mismatch_interrogative-total-yn_La-maestra-vive-en-Paris.wav,,,,,,,,,,,,,,,,,,,,,,456.334,462.1655,0,0,5.2769,,0,43,43,41,1,1,puertorican,,,,,,,,,,,,,,,,,,,,,,,,,,,,,,,,,,,,,,,,,,,,,,,,,,,,,,,,
,,,,,,,,,67ad7554361978dd021a69d3,Mexican,13 or older,"yes, I am fluent in another language",yes,2025-08-13_17h52.23.141,empathy_intonation_perc,2024.2.4,Win32,29.94011976,67ad7554361978dd021a69d3,687ed1b7e638a4cbf2f02089,689d08d081dbc5d688c5d6d6,,,,,,,,,,,,,1,1,,./stim/wavs/castilian_match_interrogative-total-yn_David-leia-el-libro.wav,,,,,,,,,,,,,,,,,,,,,,462.1665,468.7993,1,1,6.0777,,0,44,44,0,1,0,castilian,,,,,,,,,,,,,,,,,,,,,,,,,,,,,,,,,,,,,,,,,,,,,,,,,,,,,,,,
,,,,,,,,,67ad7554361978dd021a69d3,Mexican,13 or older,"yes, I am fluent in another language",yes,2025-08-13_17h52.23.141,empathy_intonation_perc,2024.2.4,Win32,29.94011976,67ad7554361978dd021a69d3,687ed1b7e638a4cbf2f02089,689d08d081dbc5d688c5d6d6,,,,,,,,,,,,,30,1,,./stim/wavs/cuban_mismatch_interrogative-total-yn_El-hombre-mira-la-luna.wav,,,,,,,,,,,,,,,,,,,,,,468.8005,472.9326,0,0,3.5711,,0,45,45,29,1,1,cuban,,,,,,,,,,,,,,,,,,,,,,,,,,,,,,,,,,,,,,,,,,,,,,,,,,,,,,,,
,,,,,,,,,67ad7554361978dd021a69d3,Mexican,13 or older,"yes, I am fluent in another language",yes,2025-08-13_17h52.23.141,empathy_intonation_perc,2024.2.4,Win32,29.94011976,67ad7554361978dd021a69d3,687ed1b7e638a4cbf2f02089,689d08d081dbc5d688c5d6d6,,,,,,,,,,,,,68,0,,./stim/wavs/puertorican_match_declarative-broad-focus_Maria-bebe-el-vino.wav,,,,,,,,,,,,,,,,,,,,,,472.9342,476.099,0,1,2.5979,,0,46,46,67,1,0,puertorican,,,,,,,,,,,,,,,,,,,,,,,,,,,,,,,,,,,,,,,,,,,,,,,,,,,,,,,,
,,,,,,,,,67ad7554361978dd021a69d3,Mexican,13 or older,"yes, I am fluent in another language",yes,2025-08-13_17h52.23.141,empathy_intonation_perc,2024.2.4,Win32,29.94011976,67ad7554361978dd021a69d3,687ed1b7e638a4cbf2f02089,689d08d081dbc5d688c5d6d6,,,,,,,,,,,,,76,0,,./stim/wavs/cuban_mismatch_declarative-broad-focus_La-nina-lava-el-plato.wav,,,,,,,,,,,,,,,,,,,,,,476.1,479.9651,0,1,3.3232,,0,47,47,75,1,0,cuban,,,,,,,,,,,,,,,,,,,,,,,,,,,,,,,,,,,,,,,,,,,,,,,,,,,,,,,,
,,,,,,,,,67ad7554361978dd021a69d3,Mexican,13 or older,"yes, I am fluent in another language",yes,2025-08-13_17h52.23.141,empathy_intonation_perc,2024.2.4,Win32,29.94011976,67ad7554361978dd021a69d3,687ed1b7e638a4cbf2f02089,689d08d081dbc5d688c5d6d6,,,,,,,,,,,,,37,1,,./stim/wavs/mexican_mismatch_interrogative-total-yn_La-maestra-vive-en-Paris.wav,,,,,,,,,,,,,,,,,,,,,,479.9674,483.3317,0,0,2.8041,,0,48,48,36,1,0,mexican,,,,,,,,,,,,,,,,,,,,,,,,,,,,,,,,,,,,,,,,,,,,,,,,,,,,,,,,
,,,,,,,,,67ad7554361978dd021a69d3,Mexican,13 or older,"yes, I am fluent in another language",yes,2025-08-13_17h52.23.141,empathy_intonation_perc,2024.2.4,Win32,29.94011976,67ad7554361978dd021a69d3,687ed1b7e638a4cbf2f02089,689d08d081dbc5d688c5d6d6,,,,,,,,,,,,,80,0,,./stim/wavs/mexican_mismatch_declarative-broad-focus_El-hombre-mira-la-luna.wav,,,,,,,,,,,,,,,,,,,,,,483.333,485.9982,0,1,2.1206,,0,49,49,79,1,0,mexican,,,,,,,,,,,,,,,,,,,,,,,,,,,,,,,,,,,,,,,,,,,,,,,,,,,,,,,,
,,,,,,,,,67ad7554361978dd021a69d3,Mexican,13 or older,"yes, I am fluent in another language",yes,2025-08-13_17h52.23.141,empathy_intonation_perc,2024.2.4,Win32,29.94011976,67ad7554361978dd021a69d3,687ed1b7e638a4cbf2f02089,689d08d081dbc5d688c5d6d6,,,,,,,,,,,,,65,0,,./stim/wavs/puertorican_match_declarative-broad-focus_David-leia-el-libro.wav,,,,,,,,,,,,,,,,,,,,,,485.999,488.1982,0,1,1.6453,,0,50,50,64,1,0,puertorican,,,,,,,,,,,,,,,,,,,,,,,,,,,,,,,,,,,,,,,,,,,,,,,,,,,,,,,,
,,,,,,,,,67ad7554361978dd021a69d3,Mexican,13 or older,"yes, I am fluent in another language",yes,2025-08-13_17h52.23.141,empathy_intonation_perc,2024.2.4,Win32,29.94011976,67ad7554361978dd021a69d3,687ed1b7e638a4cbf2f02089,689d08d081dbc5d688c5d6d6,,,,,,,,,,,,,74,0,,./stim/wavs/cuban_mismatch_declarative-broad-focus_El-bebe-comia-muy-bien.wav,,,,,,,,,,,,,,,,,,,,,,488.1991,490.3983,0,1,1.6431,,0,51,51,73,1,0,cuban,,,,,,,,,,,,,,,,,,,,,,,,,,,,,,,,,,,,,,,,,,,,,,,,,,,,,,,,
,,,,,,,,,67ad7554361978dd021a69d3,Mexican,13 or older,"yes, I am fluent in another language",yes,2025-08-13_17h52.23.141,empathy_intonation_perc,2024.2.4,Win32,29.94011976,67ad7554361978dd021a69d3,687ed1b7e638a4cbf2f02089,689d08d081dbc5d688c5d6d6,,,,,,,,,,,,,75,0,,./stim/wavs/cuban_mismatch_declarative-broad-focus_El-hombre-mira-la-luna.wav,,,,,,,,,,,,,,,,,,,,,,490.3996,492.4986,0,1,1.5437,,0,52,52,74,1,0,cuban,,,,,,,,,,,,,,,,,,,,,,,,,,,,,,,,,,,,,,,,,,,,,,,,,,,,,,,,
,,,,,,,,,67ad7554361978dd021a69d3,Mexican,13 or older,"yes, I am fluent in another language",yes,2025-08-13_17h52.23.141,empathy_intonation_perc,2024.2.4,Win32,29.94011976,67ad7554361978dd021a69d3,687ed1b7e638a4cbf2f02089,689d08d081dbc5d688c5d6d6,,,,,,,,,,,,,6,1,,./stim/wavs/castilian_match_interrogative-total-yn_Marta-abre-el-regalo.wav,,,,,,,,,,,,,,,,,,,,,,492.4998,495.2647,1,1,2.2193,,0,53,53,5,1,0,castilian,,,,,,,,,,,,,,,,,,,,,,,,,,,,,,,,,,,,,,,,,,,,,,,,,,,,,,,,
,,,,,,,,,67ad7554361978dd021a69d3,Mexican,13 or older,"yes, I am fluent in another language",yes,2025-08-13_17h52.23.141,empathy_intonation_perc,2024.2.4,Win32,29.94011976,67ad7554361978dd021a69d3,687ed1b7e638a4cbf2f02089,689d08d081dbc5d688c5d6d6,,,,,,,,,,,,,22,1,,./stim/wavs/puertorican_match_interrogative-total-yn_Emilio-ama-la-marcha.wav,,,,,,,,,,,,,,,,,,,,,,495.2658,497.7314,0,0,1.9051,,0,54,54,21,1,1,puertorican,,,,,,,,,,,,,,,,,,,,,,,,,,,,,,,,,,,,,,,,,,,,,,,,,,,,,,,,
,,,,,,,,,67ad7554361978dd021a69d3,Mexican,13 or older,"yes, I am fluent in another language",yes,2025-08-13_17h52.23.141,empathy_intonation_perc,2024.2.4,Win32,29.94011976,67ad7554361978dd021a69d3,687ed1b7e638a4cbf2f02089,689d08d081dbc5d688c5d6d6,,,,,,,,,,,,,5,1,,./stim/wavs/castilian_match_interrogative-total-yn_Mariano-habla-del-tiempo.wav,,,,,,,,,,,,,,,,,,,,,,497.7326,500.4982,1,1,2.2113,,0,55,55,4,1,0,castilian,,,,,,,,,,,,,,,,,,,,,,,,,,,,,,,,,,,,,,,,,,,,,,,,,,,,,,,,
,,,,,,,,,67ad7554361978dd021a69d3,Mexican,13 or older,"yes, I am fluent in another language",yes,2025-08-13_17h52.23.141,empathy_intonation_perc,2024.2.4,Win32,29.94011976,67ad7554361978dd021a69d3,687ed1b7e638a4cbf2f02089,689d08d081dbc5d688c5d6d6,,,,,,,,,,,,,51,0,,./stim/wavs/cuban_match_declarative-broad-focus_Ana-lleva-el-abrigo.wav,,,,,,,,,,,,,,,,,,,,,,500.4995,502.8639,0,1,1.8233,,0,56,56,50,1,0,cuban,,,,,,,,,,,,,,,,,,,,,,,,,,,,,,,,,,,,,,,,,,,,,,,,,,,,,,,,
,,,,,,,,,67ad7554361978dd021a69d3,Mexican,13 or older,"yes, I am fluent in another language",yes,2025-08-13_17h52.23.141,empathy_intonation_perc,2024.2.4,Win32,29.94011976,67ad7554361978dd021a69d3,687ed1b7e638a4cbf2f02089,689d08d081dbc5d688c5d6d6,,,,,,,,,,,,,56,0,,./stim/wavs/cuban_match_declarative-broad-focus_Marta-abre-el-regalo.wav,,,,,,,,,,,,,,,,,,,,,,502.8647,504.9652,0,1,1.5752,,0,57,57,55,1,0,cuban,,,,,,,,,,,,,,,,,,,,,,,,,,,,,,,,,,,,,,,,,,,,,,,,,,,,,,,,
,,,,,,,,,67ad7554361978dd021a69d3,Mexican,13 or older,"yes, I am fluent in another language",yes,2025-08-13_17h52.23.141,empathy_intonation_perc,2024.2.4,Win32,29.94011976,67ad7554361978dd021a69d3,687ed1b7e638a4cbf2f02089,689d08d081dbc5d688c5d6d6,,,,,,,,,,,,,48,0,,./stim/wavs/castilian_match_declarative-broad-focus_Maria-bebe-el-vino.wav,,,,,,,,,,,,,,,,,,,,,,504.9664,507.8649,0,1,2.3364,,0,58,58,47,1,0,castilian,,,,,,,,,,,,,,,,,,,,,,,,,,,,,,,,,,,,,,,,,,,,,,,,,,,,,,,,
,,,,,,,,,67ad7554361978dd021a69d3,Mexican,13 or older,"yes, I am fluent in another language",yes,2025-08-13_17h52.23.141,empathy_intonation_perc,2024.2.4,Win32,29.94011976,67ad7554361978dd021a69d3,687ed1b7e638a4cbf2f02089,689d08d081dbc5d688c5d6d6,,,,,,,,,,,,,33,1,,./stim/wavs/cuban_mismatch_interrogative-total-yn_Mi-novio-viene-del-lago.wav,,,,,,,,,,,,,,,,,,,,,,507.8658,512.6314,1,1,4.2,,0,59,59,32,1,1,cuban,,,,,,,,,,,,,,,,,,,,,,,,,,,,,,,,,,,,,,,,,,,,,,,,,,,,,,,,
,,,,,,,,,67ad7554361978dd021a69d3,Mexican,13 or older,"yes, I am fluent in another language",yes,2025-08-13_17h52.23.141,empathy_intonation_perc,2024.2.4,Win32,29.94011976,67ad7554361978dd021a69d3,687ed1b7e638a4cbf2f02089,689d08d081dbc5d688c5d6d6,,,,,,,,,,,,,72,0,,./stim/wavs/castilian_mismatch_declarative-broad-focus_Mi-novio-viene-del-lago.wav,,,,,,,,,,,,,,,,,,,,,,512.6324,515.1306,0,1,1.9352,,0,60,60,71,1,0,castilian,,,,,,,,,,,,,,,,,,,,,,,,,,,,,,,,,,,,,,,,,,,,,,,,,,,,,,,,
,,,,,,,,,67ad7554361978dd021a69d3,Mexican,13 or older,"yes, I am fluent in another language",yes,2025-08-13_17h52.23.141,empathy_intonation_perc,2024.2.4,Win32,29.94011976,67ad7554361978dd021a69d3,687ed1b7e638a4cbf2f02089,689d08d081dbc5d688c5d6d6,,,,,,,,,,,,,43,1,,./stim/wavs/puertorican_mismatch_interrogative-total-yn_La-nina-lava-el-plato.wav,,,,,,,,,,,,,,,,,,,,,,515.1313,519.0645,0,0,3.4018,,0,61,61,42,1,1,puertorican,,,,,,,,,,,,,,,,,,,,,,,,,,,,,,,,,,,,,,,,,,,,,,,,,,,,,,,,
,,,,,,,,,67ad7554361978dd021a69d3,Mexican,13 or older,"yes, I am fluent in another language",yes,2025-08-13_17h52.23.141,empathy_intonation_perc,2024.2.4,Win32,29.94011976,67ad7554361978dd021a69d3,687ed1b7e638a4cbf2f02089,689d08d081dbc5d688c5d6d6,,,,,,,,,,,,,67,0,,./stim/wavs/puertorican_match_declarative-broad-focus_Manuela-vende-el-carro.wav,,,,,,,,,,,,,,,,,,,,,,519.0657,522.664,0,1,3.0527,,0,62,62,66,1,0,puertorican,,,,,,,,,,,,,,,,,,,,,,,,,,,,,,,,,,,,,,,,,,,,,,,,,,,,,,,,
,,,,,,,,,67ad7554361978dd021a69d3,Mexican,13 or older,"yes, I am fluent in another language",yes,2025-08-13_17h52.23.141,empathy_intonation_perc,2024.2.4,Win32,29.94011976,67ad7554361978dd021a69d3,687ed1b7e638a4cbf2f02089,689d08d081dbc5d688c5d6d6,,,,,,,,,,,,,24,1,,./stim/wavs/puertorican_match_interrogative-total-yn_Maria-bebe-el-vino.wav,,,,,,,,,,,,,,,,,,,,,,522.665,525.931,1,1,2.7148,,0,63,63,23,1,1,puertorican,,,,,,,,,,,,,,,,,,,,,,,,,,,,,,,,,,,,,,,,,,,,,,,,,,,,,,,,
,,,,,,,,,67ad7554361978dd021a69d3,Mexican,13 or older,"yes, I am fluent in another language",yes,2025-08-13_17h52.23.141,empathy_intonation_perc,2024.2.4,Win32,29.94011976,67ad7554361978dd021a69d3,687ed1b7e638a4cbf2f02089,689d08d081dbc5d688c5d6d6,,,,,,,,,,,,,81,0,,./stim/wavs/mexican_mismatch_declarative-broad-focus_La-maestra-vive-en-Paris.wav,,,,,,,,,,,,,,,,,,,,,,525.9321,528.3304,0,1,1.8359,,0,64,64,80,1,0,mexican,,,,,,,,,,,,,,,,,,,,,,,,,,,,,,,,,,,,,,,,,,,,,,,,,,,,,,,,
,,,,,,,,,67ad7554361978dd021a69d3,Mexican,13 or older,"yes, I am fluent in another language",yes,2025-08-13_17h52.23.141,empathy_intonation_perc,2024.2.4,Win32,29.94011976,67ad7554361978dd021a69d3,687ed1b7e638a4cbf2f02089,689d08d081dbc5d688c5d6d6,,,,,,,,,,,,,49,0,,./stim/wavs/castilian_match_declarative-broad-focus_Mariano-habla-del-tiempo.wav,,,,,,,,,,,,,,,,,,,,,,528.3313,530.7632,0,1,1.8879,,0,65,65,48,1,0,castilian,,,,,,,,,,,,,,,,,,,,,,,,,,,,,,,,,,,,,,,,,,,,,,,,,,,,,,,,
,,,,,,,,,67ad7554361978dd021a69d3,Mexican,13 or older,"yes, I am fluent in another language",yes,2025-08-13_17h52.23.141,empathy_intonation_perc,2024.2.4,Win32,29.94011976,67ad7554361978dd021a69d3,687ed1b7e638a4cbf2f02089,689d08d081dbc5d688c5d6d6,,,,,,,,,,,,,73,0,,./stim/wavs/castilian_mismatch_declarative-broad-focus_Mi-tia-odia-la-lluvia.wav,,,,,,,,,,,,,,,,,,,,,,530.7641,533.464,0,1,2.1461,,0,66,66,72,1,0,castilian,,,,,,,,,,,,,,,,,,,,,,,,,,,,,,,,,,,,,,,,,,,,,,,,,,,,,,,,
,,,,,,,,,67ad7554361978dd021a69d3,Mexican,13 or older,"yes, I am fluent in another language",yes,2025-08-13_17h52.23.141,empathy_intonation_perc,2024.2.4,Win32,29.94011976,67ad7554361978dd021a69d3,687ed1b7e638a4cbf2f02089,689d08d081dbc5d688c5d6d6,,,,,,,,,,,,,85,0,,./stim/wavs/puertorican_mismatch_declarative-broad-focus_El-hombre-mira-la-luna.wav,,,,,,,,,,,,,,,,,,,,,,533.4654,535.4633,0,1,1.4358,,0,67,67,84,1,0,puertorican,,,,,,,,,,,,,,,,,,,,,,,,,,,,,,,,,,,,,,,,,,,,,,,,,,,,,,,,
,,,,,,,,,67ad7554361978dd021a69d3,Mexican,13 or older,"yes, I am fluent in another language",yes,2025-08-13_17h52.23.141,empathy_intonation_perc,2024.2.4,Win32,29.94011976,67ad7554361978dd021a69d3,687ed1b7e638a4cbf2f02089,689d08d081dbc5d688c5d6d6,,,,,,,,,,,,,13,1,,./stim/wavs/mexican_match_interrogative-total-yn_Ana-lleva-el-abrigo.wav,,,,,,,,,,,,,,,,,,,,,,535.4641,537.9974,1,1,1.9667,,0,68,68,12,1,0,mexican,,,,,,,,,,,,,,,,,,,,,,,,,,,,,,,,,,,,,,,,,,,,,,,,,,,,,,,,
,,,,,,,,,67ad7554361978dd021a69d3,Mexican,13 or older,"yes, I am fluent in another language",yes,2025-08-13_17h52.23.141,empathy_intonation_perc,2024.2.4,Win32,29.94011976,67ad7554361978dd021a69d3,687ed1b7e638a4cbf2f02089,689d08d081dbc5d688c5d6d6,,,,,,,,,,,,,86,0,,./stim/wavs/puertorican_mismatch_declarative-broad-focus_El-nino-oye-el-rio.wav,,,,,,,,,,,,,,,,,,,,,,537.9988,540.1307,0,1,1.5702,,0,69,69,85,1,0,puertorican,,,,,,,,,,,,,,,,,,,,,,,,,,,,,,,,,,,,,,,,,,,,,,,,,,,,,,,,
,,,,,,,,,67ad7554361978dd021a69d3,Mexican,13 or older,"yes, I am fluent in another language",yes,2025-08-13_17h52.23.141,empathy_intonation_perc,2024.2.4,Win32,29.94011976,67ad7554361978dd021a69d3,687ed1b7e638a4cbf2f02089,689d08d081dbc5d688c5d6d6,,,,,,,,,,,,,8,1,,./stim/wavs/cuban_match_interrogative-total-yn_Daniel-iba-a-Bolivia.wav,,,,,,,,,,,,,,,,,,,,,,540.1319,542.93,0,0,2.2372,,0,70,70,7,1,1,cuban,,,,,,,,,,,,,,,,,,,,,,,,,,,,,,,,,,,,,,,,,,,,,,,,,,,,,,,,
,,,,,,,,,67ad7554361978dd021a69d3,Mexican,13 or older,"yes, I am fluent in another language",yes,2025-08-13_17h52.23.141,empathy_intonation_perc,2024.2.4,Win32,29.94011976,67ad7554361978dd021a69d3,687ed1b7e638a4cbf2f02089,689d08d081dbc5d688c5d6d6,,,,,,,,,,,,,79,0,,./stim/wavs/mexican_mismatch_declarative-broad-focus_El-bebe-comia-muy-bien.wav,,,,,,,,,,,,,,,,,,,,,,542.931,545.2635,0,1,1.7669,,0,71,71,78,1,0,mexican,,,,,,,,,,,,,,,,,,,,,,,,,,,,,,,,,,,,,,,,,,,,,,,,,,,,,,,,
,,,,,,,,,67ad7554361978dd021a69d3,Mexican,13 or older,"yes, I am fluent in another language",yes,2025-08-13_17h52.23.141,empathy_intonation_perc,2024.2.4,Win32,29.94011976,67ad7554361978dd021a69d3,687ed1b7e638a4cbf2f02089,689d08d081dbc5d688c5d6d6,,,,,,,,,,,,,17,1,,./stim/wavs/mexican_match_interrogative-total-yn_Mariano-habla-del-tiempo.wav,,,,,,,,,,,,,,,,,,,,,,545.2646,548.0968,1,1,2.268,,0,72,72,16,1,0,mexican,,,,,,,,,,,,,,,,,,,,,,,,,,,,,,,,,,,,,,,,,,,,,,,,,,,,,,,,
,,,,,,,,,67ad7554361978dd021a69d3,Mexican,13 or older,"yes, I am fluent in another language",yes,2025-08-13_17h52.23.141,empathy_intonation_perc,2024.2.4,Win32,29.94011976,67ad7554361978dd021a69d3,687ed1b7e638a4cbf2f02089,689d08d081dbc5d688c5d6d6,,,,,,,,,,,,,77,0,,./stim/wavs/cuban_mismatch_declarative-broad-focus_Mi-novio-viene-del-lago.wav,,,,,,,,,,,,,,,,,,,,,,548.0978,550.4633,0,1,1.8036,,0,73,73,76,1,0,cuban,,,,,,,,,,,,,,,,,,,,,,,,,,,,,,,,,,,,,,,,,,,,,,,,,,,,,,,,
,,,,,,,,,67ad7554361978dd021a69d3,Mexican,13 or older,"yes, I am fluent in another language",yes,2025-08-13_17h52.23.141,empathy_intonation_perc,2024.2.4,Win32,29.94011976,67ad7554361978dd021a69d3,687ed1b7e638a4cbf2f02089,689d08d081dbc5d688c5d6d6,,,,,,,,,,,,,53,0,,./stim/wavs/cuban_match_declarative-broad-focus_Manuela-vende-el-carro.wav,,,,,,,,,,,,,,,,,,,,,,550.4647,552.963,0,1,1.9556,,0,74,74,52,1,0,cuban,,,,,,,,,,,,,,,,,,,,,,,,,,,,,,,,,,,,,,,,,,,,,,,,,,,,,,,,
,,,,,,,,,67ad7554361978dd021a69d3,Mexican,13 or older,"yes, I am fluent in another language",yes,2025-08-13_17h52.23.141,empathy_intonation_perc,2024.2.4,Win32,29.94011976,67ad7554361978dd021a69d3,687ed1b7e638a4cbf2f02089,689d08d081dbc5d688c5d6d6,,,,,,,,,,,,,47,0,,./stim/wavs/castilian_match_declarative-broad-focus_Manuela-vende-el-carro.wav,,,,,,,,,,,,,,,,,,,,,,552.9639,555.3968,0,1,1.8756,,0,75,75,46,1,0,castilian,,,,,,,,,,,,,,,,,,,,,,,,,,,,,,,,,,,,,,,,,,,,,,,,,,,,,,,,
,,,,,,,,,67ad7554361978dd021a69d3,Mexican,13 or older,"yes, I am fluent in another language",yes,2025-08-13_17h52.23.141,empathy_intonation_perc,2024.2.4,Win32,29.94011976,67ad7554361978dd021a69d3,687ed1b7e638a4cbf2f02089,689d08d081dbc5d688c5d6d6,,,,,,,,,,,,,25,1,,./stim/wavs/castilian_mismatch_interrogative-total-yn_La-maestra-vive-en-Paris.wav,,,,,,,,,,,,,,,,,,,,,,555.3978,558.6625,1,1,2.7089,,0,76,76,24,1,0,castilian,,,,,,,,,,,,,,,,,,,,,,,,,,,,,,,,,,,,,,,,,,,,,,,,,,,,,,,,
,,,,,,,,,67ad7554361978dd021a69d3,Mexican,13 or older,"yes, I am fluent in another language",yes,2025-08-13_17h52.23.141,empathy_intonation_perc,2024.2.4,Win32,29.94011976,67ad7554361978dd021a69d3,687ed1b7e638a4cbf2f02089,689d08d081dbc5d688c5d6d6,,,,,,,,,,,,,62,0,,./stim/wavs/mexican_match_declarative-broad-focus_Marta-abre-el-regalo.wav,,,,,,,,,,,,,,,,,,,,,,558.6636,560.7295,0,1,1.5097,,0,77,77,61,1,0,mexican,,,,,,,,,,,,,,,,,,,,,,,,,,,,,,,,,,,,,,,,,,,,,,,,,,,,,,,,
,,,,,,,,,67ad7554361978dd021a69d3,Mexican,13 or older,"yes, I am fluent in another language",yes,2025-08-13_17h52.23.141,empathy_intonation_perc,2024.2.4,Win32,29.94011976,67ad7554361978dd021a69d3,687ed1b7e638a4cbf2f02089,689d08d081dbc5d688c5d6d6,,,,,,,,,,,,,55,0,,./stim/wavs/cuban_match_declarative-broad-focus_Mariano-habla-del-tiempo.wav,,,,,,,,,,,,,,,,,,,,,,560.7304,563.0298,0,1,1.7434,,0,78,78,54,1,0,cuban,,,,,,,,,,,,,,,,,,,,,,,,,,,,,,,,,,,,,,,,,,,,,,,,,,,,,,,,
,,,,,,,,,67ad7554361978dd021a69d3,Mexican,13 or older,"yes, I am fluent in another language",yes,2025-08-13_17h52.23.141,empathy_intonation_perc,2024.2.4,Win32,29.94011976,67ad7554361978dd021a69d3,687ed1b7e638a4cbf2f02089,689d08d081dbc5d688c5d6d6,,,,,,,,,,,,,38,1,,./stim/wavs/mexican_mismatch_interrogative-total-yn_Mi-novio-viene-del-lago.wav,,,,,,,,,,,,,,,,,,,,,,563.0312,565.7624,1,1,2.1683,,0,79,79,37,1,0,mexican,,,,,,,,,,,,,,,,,,,,,,,,,,,,,,,,,,,,,,,,,,,,,,,,,,,,,,,,
,,,,,,,,,67ad7554361978dd021a69d3,Mexican,13 or older,"yes, I am fluent in another language",yes,2025-08-13_17h52.23.141,empathy_intonation_perc,2024.2.4,Win32,29.94011976,67ad7554361978dd021a69d3,687ed1b7e638a4cbf2f02089,689d08d081dbc5d688c5d6d6,,,,,,,,,,,,,2,1,,./stim/wavs/castilian_match_interrogative-total-yn_Emilio-ama-la-marcha.wav,,,,,,,,,,,,,,,,,,,,,,565.7632,568.3294,1,1,2.0102,,0,80,80,1,1,0,castilian,,,,,,,,,,,,,,,,,,,,,,,,,,,,,,,,,,,,,,,,,,,,,,,,,,,,,,,,
,,,,,,,,,67ad7554361978dd021a69d3,Mexican,13 or older,"yes, I am fluent in another language",yes,2025-08-13_17h52.23.141,empathy_intonation_perc,2024.2.4,Win32,29.94011976,67ad7554361978dd021a69d3,687ed1b7e638a4cbf2f02089,689d08d081dbc5d688c5d6d6,,,,,,,,,,,,,70,0,,./stim/wavs/castilian_mismatch_declarative-broad-focus_La-maestra-vive-en-Paris.wav,,,,,,,,,,,,,,,,,,,,,,568.3306,571.2628,0,1,2.3895,,0,81,81,69,1,0,castilian,,,,,,,,,,,,,,,,,,,,,,,,,,,,,,,,,,,,,,,,,,,,,,,,,,,,,,,,
,,,,,,,,,67ad7554361978dd021a69d3,Mexican,13 or older,"yes, I am fluent in another language",yes,2025-08-13_17h52.23.141,empathy_intonation_perc,2024.2.4,Win32,29.94011976,67ad7554361978dd021a69d3,687ed1b7e638a4cbf2f02089,689d08d081dbc5d688c5d6d6,,,,,,,,,,,,,19,1,,./stim/wavs/puertorican_match_interrogative-total-yn_Ana-lleva-el-abrigo.wav,,,,,,,,,,,,,,,,,,,,,,571.2639,573.9622,1,1,2.1433,,0,82,82,18,1,1,puertorican,,,,,,,,,,,,,,,,,,,,,,,,,,,,,,,,,,,,,,,,,,,,,,,,,,,,,,,,
,,,,,,,,,67ad7554361978dd021a69d3,Mexican,13 or older,"yes, I am fluent in another language",yes,2025-08-13_17h52.23.141,empathy_intonation_perc,2024.2.4,Win32,29.94011976,67ad7554361978dd021a69d3,687ed1b7e638a4cbf2f02089,689d08d081dbc5d688c5d6d6,,,,,,,,,,,,,34,1,,./stim/wavs/cuban_mismatch_interrogative-total-yn_Mi-tia-odia-la-lluvia.wav,,,,,,,,,,,,,,,,,,,,,,573.9629,576.2285,0,0,1.714,,0,83,83,33,1,1,cuban,,,,,,,,,,,,,,,,,,,,,,,,,,,,,,,,,,,,,,,,,,,,,,,,,,,,,,,,
,,,,,,,,,67ad7554361978dd021a69d3,Mexican,13 or older,"yes, I am fluent in another language",yes,2025-08-13_17h52.23.141,empathy_intonation_perc,2024.2.4,Win32,29.94011976,67ad7554361978dd021a69d3,687ed1b7e638a4cbf2f02089,689d08d081dbc5d688c5d6d6,,,,,,,,,,,,,66,0,,./stim/wavs/puertorican_match_declarative-broad-focus_Emilio-ama-la-marcha.wav,,,,,,,,,,,,,,,,,,,,,,576.2293,578.3959,0,1,1.6088,,0,84,84,65,1,0,puertorican,,,,,,,,,,,,,,,,,,,,,,,,,,,,,,,,,,,,,,,,,,,,,,,,,,,,,,,,
,,,,,,,,,67ad7554361978dd021a69d3,Mexican,13 or older,"yes, I am fluent in another language",yes,2025-08-13_17h52.23.141,empathy_intonation_perc,2024.2.4,Win32,29.94011976,67ad7554361978dd021a69d3,687ed1b7e638a4cbf2f02089,689d08d081dbc5d688c5d6d6,,,,,,,,,,,,,63,0,,./stim/wavs/puertorican_match_declarative-broad-focus_Ana-lleva-el-abrigo.wav,,,,,,,,,,,,,,,,,,,,,,578.3973,580.6289,0,1,1.6691,,0,85,85,62,1,0,puertorican,,,,,,,,,,,,,,,,,,,,,,,,,,,,,,,,,,,,,,,,,,,,,,,,,,,,,,,,
,,,,,,,,,67ad7554361978dd021a69d3,Mexican,13 or older,"yes, I am fluent in another language",yes,2025-08-13_17h52.23.141,empathy_intonation_perc,2024.2.4,Win32,29.94011976,67ad7554361978dd021a69d3,687ed1b7e638a4cbf2f02089,689d08d081dbc5d688c5d6d6,,,,,,,,,,,,,61,0,,./stim/wavs/mexican_match_declarative-broad-focus_Mariano-habla-del-tiempo.wav,,,,,,,,,,,,,,,,,,,,,,580.63,582.7957,0,1,1.6063,,0,86,86,60,1,0,mexican,,,,,,,,,,,,,,,,,,,,,,,,,,,,,,,,,,,,,,,,,,,,,,,,,,,,,,,,
,,,,,,,,,67ad7554361978dd021a69d3,Mexican,13 or older,"yes, I am fluent in another language",yes,2025-08-13_17h52.23.141,empathy_intonation_perc,2024.2.4,Win32,29.94011976,67ad7554361978dd021a69d3,687ed1b7e638a4cbf2f02089,689d08d081dbc5d688c5d6d6,,,,,,,,,,,,,54,0,,./stim/wavs/cuban_match_declarative-broad-focus_Maria-bebe-el-vino.wav,,,,,,,,,,,,,,,,,,,,,,582.7966,584.9284,0,1,1.583,,0,87,87,53,1,0,cuban,,,,,,,,,,,,,,,,,,,,,,,,,,,,,,,,,,,,,,,,,,,,,,,,,,,,,,,,
,,,,,,,"Great! Now we will move on. The next task consists of about 60 trials, in each of which you will see a string of letters. 
  
  Your task is to decide whether this is a real Spanish word or not.", (press the spacebar to continue),67ad7554361978dd021a69d3,Mexican,13 or older,"yes, I am fluent in another language",yes,2025-08-13_17h52.23.141,empathy_intonation_perc,2024.2.4,Win32,29.94011976,67ad7554361978dd021a69d3,687ed1b7e638a4cbf2f02089,689d08d081dbc5d688c5d6d6,,,,,,,,,,,,,,,,,,,,,,,,,,,,,,,,,,,,,,,,,,,,,,,,,,,584.9398,721.4258,0,0,0,0,1,,,,,,,,,,,,,,,,,,,,,,,,,,,,,,,,,,,,,,,,,,,,,,,,,
,,,,,,,"If you think it is an existing Spanish word, you type '1' (for 'REAL'), and if you think it is not an existing Spanish word, you type '0' (for 'FAKE').", (press the spacebar to continue),67ad7554361978dd021a69d3,Mexican,13 or older,"yes, I am fluent in another language",yes,2025-08-13_17h52.23.141,empathy_intonation_perc,2024.2.4,Win32,29.94011976,67ad7554361978dd021a69d3,687ed1b7e638a4cbf2f02089,689d08d081dbc5d688c5d6d6,,,,,,,,,,,,,,,,,,,,,,,,,,,,,,,,,,,,,,,,,,,,,,,,,,,721.4313,728.6746,0,1,1,1,1,,,,,,,,,,,,,,,,,,,,,,,,,,,,,,,,,,,,,,,,,,,,,,,,,
,,,,,,,"If you are sure that the word exists, even though you don’t know its exact meaning, you may still respond '1' (REAL). 
  
  But if you are not sure if it is an existing word, you should respond '0' (FAKE).
  
  Let's do a practice round...", (press the spacebar to continue),67ad7554361978dd021a69d3,Mexican,13 or older,"yes, I am fluent in another language",yes,2025-08-13_17h52.23.141,empathy_intonation_perc,2024.2.4,Win32,29.94011976,67ad7554361978dd021a69d3,687ed1b7e638a4cbf2f02089,689d08d081dbc5d688c5d6d6,,,,,,,,,,,,,,,,,,,,,,,,,,,,,,,,,,,,,,,,,,,,,,,,,,,728.6789,733.7751,0,2,2,2,1,,,,,,,,,,,,,,,,,,,,,,,,,,,,,,,,,,,,,,,,,,,,,,,,,
,,,,,,,,,67ad7554361978dd021a69d3,Mexican,13 or older,"yes, I am fluent in another language",yes,2025-08-13_17h52.23.141,empathy_intonation_perc,2024.2.4,Win32,29.94011976,67ad7554361978dd021a69d3,687ed1b7e638a4cbf2f02089,689d08d081dbc5d688c5d6d6,,,,,,,,,,,,,,0,,,,,,,,,,,,,,,,,,,,,,,,,,,,,,,,,,,,,,,,,,,,733.7849,738.3086,1,0,3.9638,,738.3092,739.3078,0,0,0,0,1,0,depiste,REAL,FAKE,,,,,,,,,,,,,,,,,,,,,,,,,,,,,,,,
,,,,,,,,,67ad7554361978dd021a69d3,Mexican,13 or older,"yes, I am fluent in another language",yes,2025-08-13_17h52.23.141,empathy_intonation_perc,2024.2.4,Win32,29.94011976,67ad7554361978dd021a69d3,687ed1b7e638a4cbf2f02089,689d08d081dbc5d688c5d6d6,,,,,,,,,,,,,,1,,,,,,,,,,,,,,,,,,,,,,,,,,,,,,,,,,,,,,,,,,,,739.3108,742.8737,1,1,2.9977,,742.8755,743.8741,0,1,1,1,1,0,sí,REAL,FAKE,,,,,,,,,,,,,,,,,,,,,,,,,,,,,,,,
,,,,,,,,,67ad7554361978dd021a69d3,Mexican,13 or older,"yes, I am fluent in another language",yes,2025-08-13_17h52.23.141,empathy_intonation_perc,2024.2.4,Win32,29.94011976,67ad7554361978dd021a69d3,687ed1b7e638a4cbf2f02089,689d08d081dbc5d688c5d6d6,,,,,,,,,,,,,,0,,,,,,,,,,,,,,,,,,,,,,,,,,,,,,,,,,,,,,,,,,,,743.8778,748.1073,0,1,3.6774,,748.1074,749.1087,0,2,2,2,1,0,coné,REAL,FAKE,,,,,,,,,,,,,,,,,,,,,,,,,,,,,,,,
,,,,,,,,,67ad7554361978dd021a69d3,Mexican,13 or older,"yes, I am fluent in another language",yes,2025-08-13_17h52.23.141,empathy_intonation_perc,2024.2.4,Win32,29.94011976,67ad7554361978dd021a69d3,687ed1b7e638a4cbf2f02089,689d08d081dbc5d688c5d6d6,,,,,,,,,,,,,,0,,,,,,,,,,,,,,,,,,,,,,,,,,,,,,,,,,,,,,,,,,,,749.1113,754.9403,1,0,5.2659,,754.9423,755.9406,0,3,3,3,1,0,calpar,REAL,FAKE,,,,,,,,,,,,,,,,,,,,,,,,,,,,,,,,
,,,,,,,,,67ad7554361978dd021a69d3,Mexican,13 or older,"yes, I am fluent in another language",yes,2025-08-13_17h52.23.141,empathy_intonation_perc,2024.2.4,Win32,29.94011976,67ad7554361978dd021a69d3,687ed1b7e638a4cbf2f02089,689d08d081dbc5d688c5d6d6,,,,,,,,,,,,,,0,,,,,,,,,,,,,,,,,,,,,,,,,,,,,,,,,,,,,,,,,,,,755.9433,761.5741,0,1,5.0626,,761.5761,762.5737,0,4,4,4,1,0,joten,REAL,FAKE,,,,,,,,,,,,,,,,,,,,,,,,,,,,,,,,
,,,,,,,,,67ad7554361978dd021a69d3,Mexican,13 or older,"yes, I am fluent in another language",yes,2025-08-13_17h52.23.141,empathy_intonation_perc,2024.2.4,Win32,29.94011976,67ad7554361978dd021a69d3,687ed1b7e638a4cbf2f02089,689d08d081dbc5d688c5d6d6,,,,,,,,,,,,,,1,,,,,,,,,,,,,,,,,,,,,,,,,,,,,,,,,,,,,,,,,,,,762.5763,774.7724,0,0,11.6488,,774.7735,775.7731,0,5,5,5,1,0,sacapuntas,REAL,FAKE,,,,,,,,,,,,,,,,,,,,,,,,,,,,,,,,
,,,,,,,,,67ad7554361978dd021a69d3,Mexican,13 or older,"yes, I am fluent in another language",yes,2025-08-13_17h52.23.141,empathy_intonation_perc,2024.2.4,Win32,29.94011976,67ad7554361978dd021a69d3,687ed1b7e638a4cbf2f02089,689d08d081dbc5d688c5d6d6,,,,,,,,,,,,,,0,,,,,,,,,,,,,,,,,,,,,,,,,,,,,,,,,,,,,,,,,,,,775.7754,779.2737,0,1,2.9322,,779.2748,780.2735,0,6,6,6,1,0,priba,REAL,FAKE,,,,,,,,,,,,,,,,,,,,,,,,,,,,,,,,
,,,,,,,,,67ad7554361978dd021a69d3,Mexican,13 or older,"yes, I am fluent in another language",yes,2025-08-13_17h52.23.141,empathy_intonation_perc,2024.2.4,Win32,29.94011976,67ad7554361978dd021a69d3,687ed1b7e638a4cbf2f02089,689d08d081dbc5d688c5d6d6,,,,,,,,,,,,,,0,,,,,,,,,,,,,,,,,,,,,,,,,,,,,,,,,,,,,,,,,,,,780.2753,784.4061,1,0,3.5702,,784.4076,785.4061,0,7,7,7,1,0,pelasula,REAL,FAKE,,,,,,,,,,,,,,,,,,,,,,,,,,,,,,,,
,,,,,,,,,67ad7554361978dd021a69d3,Mexican,13 or older,"yes, I am fluent in another language",yes,2025-08-13_17h52.23.141,empathy_intonation_perc,2024.2.4,Win32,29.94011976,67ad7554361978dd021a69d3,687ed1b7e638a4cbf2f02089,689d08d081dbc5d688c5d6d6,,,,,,,,,,,,,,1,,,,,,,,,,,,,,,,,,,,,,,,,,,,,,,,,,,,,,,,,,,,785.4088,793.2051,1,1,7.2497,,793.2061,794.2058,0,8,8,8,1,0,bien,REAL,FAKE,,,,,,,,,,,,,,,,,,,,,,,,,,,,,,,,
,,,,,,,,,67ad7554361978dd021a69d3,Mexican,13 or older,"yes, I am fluent in another language",yes,2025-08-13_17h52.23.141,empathy_intonation_perc,2024.2.4,Win32,29.94011976,67ad7554361978dd021a69d3,687ed1b7e638a4cbf2f02089,689d08d081dbc5d688c5d6d6,,,,,,,,,,,,,,1,,,,,,,,,,,,,,,,,,,,,,,,,,,,,,,,,,,,,,,,,,,,794.2078,796.8725,1,1,2.1123,,796.8727,797.8724,0,9,9,9,1,0,casa,REAL,FAKE,,,,,,,,,,,,,,,,,,,,,,,,,,,,,,,,
,,,,,,,,,67ad7554361978dd021a69d3,Mexican,13 or older,"yes, I am fluent in another language",yes,2025-08-13_17h52.23.141,empathy_intonation_perc,2024.2.4,Win32,29.94011976,67ad7554361978dd021a69d3,687ed1b7e638a4cbf2f02089,689d08d081dbc5d688c5d6d6,,,,,,,,,,,,,,0,,,,,,,,,,,,,,,,,,,,,,,,,,,,,,,,,,,,,,,,,,,,797.8751,801.305,1,0,2.8635,,801.3062,802.3055,0,10,10,10,1,0,lejo,REAL,FAKE,,,,,,,,,,,,,,,,,,,,,,,,,,,,,,,,
,,,,,,,,,67ad7554361978dd021a69d3,Mexican,13 or older,"yes, I am fluent in another language",yes,2025-08-13_17h52.23.141,empathy_intonation_perc,2024.2.4,Win32,29.94011976,67ad7554361978dd021a69d3,687ed1b7e638a4cbf2f02089,689d08d081dbc5d688c5d6d6,,,,,,,,,,,,,,0,,,,,,,,,,,,,,,,,,,,,,,,,,,,,,,,,,,,,,,,,,,,802.3073,806.805,1,0,3.9417,,806.805,807.8053,0,11,11,11,1,0,pretantas,REAL,FAKE,,,,,,,,,,,,,,,,,,,,,,,,,,,,,,,,
,,,,,,,,,67ad7554361978dd021a69d3,Mexican,13 or older,"yes, I am fluent in another language",yes,2025-08-13_17h52.23.141,empathy_intonation_perc,2024.2.4,Win32,29.94011976,67ad7554361978dd021a69d3,687ed1b7e638a4cbf2f02089,689d08d081dbc5d688c5d6d6,,,,,,,,,,,,,,,,,,,,,,,,,,,,,,,,,,,,,,,,,,,,,,,,,,,,,,,,,,,,,,,,,,,,,,,,,,,807.806,809.2726,,,,,,,,,,,,,,,,,,,,,,,,,,,,,,
,,,,,,,,,67ad7554361978dd021a69d3,Mexican,13 or older,"yes, I am fluent in another language",yes,2025-08-13_17h52.23.141,empathy_intonation_perc,2024.2.4,Win32,29.94011976,67ad7554361978dd021a69d3,687ed1b7e638a4cbf2f02089,689d08d081dbc5d688c5d6d6,,,,,,,,,,,,,,0,,,,,,,,,,,,,,,,,,,,,,,,,,,,,,,,,,,,,,,,,,,,,,,,,,,,,,,,,17,floroso,,,,,809.2892,815.0066,1,0,5.164,,0,0,0,16,1,REAL,FAKE,,,,,,,,,,,,,,,,,
,,,,,,,,,67ad7554361978dd021a69d3,Mexican,13 or older,"yes, I am fluent in another language",yes,2025-08-13_17h52.23.141,empathy_intonation_perc,2024.2.4,Win32,29.94011976,67ad7554361978dd021a69d3,687ed1b7e638a4cbf2f02089,689d08d081dbc5d688c5d6d6,,,,,,,,,,,,,,1,,,,,,,,,,,,,,,,,,,,,,,,,,,,,,,,,,,,,,,,,,,,,,,,,,,,,,,,,39,torpe,,,,,815.0095,821.5384,0,0,5.9734,,0,1,1,38,1,REAL,FAKE,,,,,,,,,,,,,,,,,
,,,,,,,,,67ad7554361978dd021a69d3,Mexican,13 or older,"yes, I am fluent in another language",yes,2025-08-13_17h52.23.141,empathy_intonation_perc,2024.2.4,Win32,29.94011976,67ad7554361978dd021a69d3,687ed1b7e638a4cbf2f02089,689d08d081dbc5d688c5d6d6,,,,,,,,,,,,,,0,,,,,,,,,,,,,,,,,,,,,,,,,,,,,,,,,,,,,,,,,,,,,,,,,,,,,,,,,19,brecedad,,,,,821.5404,825.5381,1,0,3.4403,,0,2,2,18,1,REAL,FAKE,,,,,,,,,,,,,,,,,
,,,,,,,,,67ad7554361978dd021a69d3,Mexican,13 or older,"yes, I am fluent in another language",yes,2025-08-13_17h52.23.141,empathy_intonation_perc,2024.2.4,Win32,29.94011976,67ad7554361978dd021a69d3,687ed1b7e638a4cbf2f02089,689d08d081dbc5d688c5d6d6,,,,,,,,,,,,,,1,,,,,,,,,,,,,,,,,,,,,,,,,,,,,,,,,,,,,,,,,,,,,,,,,,,,,,,,,59,besar,,,,,825.5411,829.6377,1,1,3.5413,,0,3,3,58,1,REAL,FAKE,,,,,,,,,,,,,,,,,
,,,,,,,,,67ad7554361978dd021a69d3,Mexican,13 or older,"yes, I am fluent in another language",yes,2025-08-13_17h52.23.141,empathy_intonation_perc,2024.2.4,Win32,29.94011976,67ad7554361978dd021a69d3,687ed1b7e638a4cbf2f02089,689d08d081dbc5d688c5d6d6,,,,,,,,,,,,,,0,,,,,,,,,,,,,,,,,,,,,,,,,,,,,,,,,,,,,,,,,,,,,,,,,,,,,,,,,21,capillo,,,,,829.6394,834.9045,1,0,4.7055,,0,4,4,20,1,REAL,FAKE,,,,,,,,,,,,,,,,,
,,,,,,,,,67ad7554361978dd021a69d3,Mexican,13 or older,"yes, I am fluent in another language",yes,2025-08-13_17h52.23.141,empathy_intonation_perc,2024.2.4,Win32,29.94011976,67ad7554361978dd021a69d3,687ed1b7e638a4cbf2f02089,689d08d081dbc5d688c5d6d6,,,,,,,,,,,,,,0,,,,,,,,,,,,,,,,,,,,,,,,,,,,,,,,,,,,,,,,,,,,,,,,,,,,,,,,,84,escuto,,,,,834.9059,837.804,0,1,2.3452,,0,5,5,83,1,REAL,FAKE,,,,,,,,,,,,,,,,,
,,,,,,,,,67ad7554361978dd021a69d3,Mexican,13 or older,"yes, I am fluent in another language",yes,2025-08-13_17h52.23.141,empathy_intonation_perc,2024.2.4,Win32,29.94011976,67ad7554361978dd021a69d3,687ed1b7e638a4cbf2f02089,689d08d081dbc5d688c5d6d6,,,,,,,,,,,,,,1,,,,,,,,,,,,,,,,,,,,,,,,,,,,,,,,,,,,,,,,,,,,,,,,,,,,,,,,,51,candado,,,,,837.8062,860.6371,1,1,22.272,,0,6,6,50,1,REAL,FAKE,,,,,,,,,,,,,,,,,
,,,,,,,,,67ad7554361978dd021a69d3,Mexican,13 or older,"yes, I am fluent in another language",yes,2025-08-13_17h52.23.141,empathy_intonation_perc,2024.2.4,Win32,29.94011976,67ad7554361978dd021a69d3,687ed1b7e638a4cbf2f02089,689d08d081dbc5d688c5d6d6,,,,,,,,,,,,,,0,,,,,,,,,,,,,,,,,,,,,,,,,,,,,,,,,,,,,,,,,,,,,,,,,,,,,,,,,70,temblo,,,,,860.6393,873.3035,0,1,12.1084,,0,7,7,69,1,REAL,FAKE,,,,,,,,,,,,,,,,,
,,,,,,,,,67ad7554361978dd021a69d3,Mexican,13 or older,"yes, I am fluent in another language",yes,2025-08-13_17h52.23.141,empathy_intonation_perc,2024.2.4,Win32,29.94011976,67ad7554361978dd021a69d3,687ed1b7e638a4cbf2f02089,689d08d081dbc5d688c5d6d6,,,,,,,,,,,,,,1,,,,,,,,,,,,,,,,,,,,,,,,,,,,,,,,,,,,,,,,,,,,,,,,,,,,,,,,,34,aviso,,,,,873.3062,883.3358,1,1,9.4625,,0,8,8,33,1,REAL,FAKE,,,,,,,,,,,,,,,,,
,,,,,,,,,67ad7554361978dd021a69d3,Mexican,13 or older,"yes, I am fluent in another language",yes,2025-08-13_17h52.23.141,empathy_intonation_perc,2024.2.4,Win32,29.94011976,67ad7554361978dd021a69d3,687ed1b7e638a4cbf2f02089,689d08d081dbc5d688c5d6d6,,,,,,,,,,,,,,1,,,,,,,,,,,,,,,,,,,,,,,,,,,,,,,,,,,,,,,,,,,,,,,,,,,,,,,,,11,cenefa,,,,,883.3373,898.7356,1,1,14.846,,0,9,9,10,1,REAL,FAKE,,,,,,,,,,,,,,,,,
,,,,,,,,,67ad7554361978dd021a69d3,Mexican,13 or older,"yes, I am fluent in another language",yes,2025-08-13_17h52.23.141,empathy_intonation_perc,2024.2.4,Win32,29.94011976,67ad7554361978dd021a69d3,687ed1b7e638a4cbf2f02089,689d08d081dbc5d688c5d6d6,,,,,,,,,,,,,,1,,,,,,,,,,,,,,,,,,,,,,,,,,,,,,,,,,,,,,,,,,,,,,,,,,,,,,,,,5,zapato,,,,,898.7379,901.0015,1,1,1.717,,0,10,10,4,1,REAL,FAKE,,,,,,,,,,,,,,,,,
,,,,,,,,,67ad7554361978dd021a69d3,Mexican,13 or older,"yes, I am fluent in another language",yes,2025-08-13_17h52.23.141,empathy_intonation_perc,2024.2.4,Win32,29.94011976,67ad7554361978dd021a69d3,687ed1b7e638a4cbf2f02089,689d08d081dbc5d688c5d6d6,,,,,,,,,,,,,,1,,,,,,,,,,,,,,,,,,,,,,,,,,,,,,,,,,,,,,,,,,,,,,,,,,,,,,,,,49,ganar,,,,,901.003,908.0354,1,1,6.4687,,0,11,11,48,1,REAL,FAKE,,,,,,,,,,,,,,,,,
,,,,,,,,,67ad7554361978dd021a69d3,Mexican,13 or older,"yes, I am fluent in another language",yes,2025-08-13_17h52.23.141,empathy_intonation_perc,2024.2.4,Win32,29.94011976,67ad7554361978dd021a69d3,687ed1b7e638a4cbf2f02089,689d08d081dbc5d688c5d6d6,,,,,,,,,,,,,,1,,,,,,,,,,,,,,,,,,,,,,,,,,,,,,,,,,,,,,,,,,,,,,,,,,,,,,,,,68,alegre,,,,,908.0376,918.4682,1,1,9.8719,,0,12,12,67,1,REAL,FAKE,,,,,,,,,,,,,,,,,
,,,,,,,,,67ad7554361978dd021a69d3,Mexican,13 or older,"yes, I am fluent in another language",yes,2025-08-13_17h52.23.141,empathy_intonation_perc,2024.2.4,Win32,29.94011976,67ad7554361978dd021a69d3,687ed1b7e638a4cbf2f02089,689d08d081dbc5d688c5d6d6,,,,,,,,,,,,,,1,,,,,,,,,,,,,,,,,,,,,,,,,,,,,,,,,,,,,,,,,,,,,,,,,,,,,,,,,24,látigo,,,,,918.471,929.401,1,1,10.3792,,0,13,13,23,1,REAL,FAKE,,,,,,,,,,,,,,,,,
,,,,,,,,,67ad7554361978dd021a69d3,Mexican,13 or older,"yes, I am fluent in another language",yes,2025-08-13_17h52.23.141,empathy_intonation_perc,2024.2.4,Win32,29.94011976,67ad7554361978dd021a69d3,687ed1b7e638a4cbf2f02089,689d08d081dbc5d688c5d6d6,,,,,,,,,,,,,,0,,,,,,,,,,,,,,,,,,,,,,,,,,,,,,,,,,,,,,,,,,,,,,,,,,,,,,,,,29,decar,,,,,929.4029,933.0011,1,0,3.0285,,0,14,14,28,1,REAL,FAKE,,,,,,,,,,,,,,,,,
,,,,,,,,,67ad7554361978dd021a69d3,Mexican,13 or older,"yes, I am fluent in another language",yes,2025-08-13_17h52.23.141,empathy_intonation_perc,2024.2.4,Win32,29.94011976,67ad7554361978dd021a69d3,687ed1b7e638a4cbf2f02089,689d08d081dbc5d688c5d6d6,,,,,,,,,,,,,,1,,,,,,,,,,,,,,,,,,,,,,,,,,,,,,,,,,,,,,,,,,,,,,,,,,,,,,,,,91,click the 1 key.,,,,,933.004,935.8345,1,1,2.2609,,0,15,15,90,1,REAL,FAKE,,,,,,,,,,,,,,,,,
,,,,,,,,,67ad7554361978dd021a69d3,Mexican,13 or older,"yes, I am fluent in another language",yes,2025-08-13_17h52.23.141,empathy_intonation_perc,2024.2.4,Win32,29.94011976,67ad7554361978dd021a69d3,687ed1b7e638a4cbf2f02089,689d08d081dbc5d688c5d6d6,,,,,,,,,,,,,,1,,,,,,,,,,,,,,,,,,,,,,,,,,,,,,,,,,,,,,,,,,,,,,,,,,,,,,,,,61,seda,,,,,935.8365,945.7685,1,1,9.3739,,0,16,16,60,1,REAL,FAKE,,,,,,,,,,,,,,,,,
,,,,,,,,,67ad7554361978dd021a69d3,Mexican,13 or older,"yes, I am fluent in another language",yes,2025-08-13_17h52.23.141,empathy_intonation_perc,2024.2.4,Win32,29.94011976,67ad7554361978dd021a69d3,687ed1b7e638a4cbf2f02089,689d08d081dbc5d688c5d6d6,,,,,,,,,,,,,,0,,,,,,,,,,,,,,,,,,,,,,,,,,,,,,,,,,,,,,,,,,,,,,,,,,,,,,,,,92,click the 0 key.,,,,,945.7719,947.6673,0,1,1.3287,,0,17,17,91,1,REAL,FAKE,,,,,,,,,,,,,,,,,
,,,,,,,,,67ad7554361978dd021a69d3,Mexican,13 or older,"yes, I am fluent in another language",yes,2025-08-13_17h52.23.141,empathy_intonation_perc,2024.2.4,Win32,29.94011976,67ad7554361978dd021a69d3,687ed1b7e638a4cbf2f02089,689d08d081dbc5d688c5d6d6,,,,,,,,,,,,,,1,,,,,,,,,,,,,,,,,,,,,,,,,,,,,,,,,,,,,,,,,,,,,,,,,,,,,,,,,20,ávido,,,,,947.6689,957.5005,0,0,9.2677,,0,18,18,19,1,REAL,FAKE,,,,,,,,,,,,,,,,,
,,,,,,,,,67ad7554361978dd021a69d3,Mexican,13 or older,"yes, I am fluent in another language",yes,2025-08-13_17h52.23.141,empathy_intonation_perc,2024.2.4,Win32,29.94011976,67ad7554361978dd021a69d3,687ed1b7e638a4cbf2f02089,689d08d081dbc5d688c5d6d6,,,,,,,,,,,,,,1,,,,,,,,,,,,,,,,,,,,,,,,,,,,,,,,,,,,,,,,,,,,,,,,,,,,,,,,,88,acantilado,,,,,957.5028,965.9332,1,1,7.8616,,0,19,19,87,1,REAL,FAKE,,,,,,,,,,,,,,,,,
,,,,,,,,,67ad7554361978dd021a69d3,Mexican,13 or older,"yes, I am fluent in another language",yes,2025-08-13_17h52.23.141,empathy_intonation_perc,2024.2.4,Win32,29.94011976,67ad7554361978dd021a69d3,687ed1b7e638a4cbf2f02089,689d08d081dbc5d688c5d6d6,,,,,,,,,,,,,,1,,,,,,,,,,,,,,,,,,,,,,,,,,,,,,,,,,,,,,,,,,,,,,,,,,,,,,,,,22,lacayo,,,,,965.9349,968.567,0,0,2.0774,,0,20,20,21,1,REAL,FAKE,,,,,,,,,,,,,,,,,
,,,,,,,,,67ad7554361978dd021a69d3,Mexican,13 or older,"yes, I am fluent in another language",yes,2025-08-13_17h52.23.141,empathy_intonation_perc,2024.2.4,Win32,29.94011976,67ad7554361978dd021a69d3,687ed1b7e638a4cbf2f02089,689d08d081dbc5d688c5d6d6,,,,,,,,,,,,,,1,,,,,,,,,,,,,,,,,,,,,,,,,,,,,,,,,,,,,,,,,,,,,,,,,,,,,,,,,90,clavel,,,,,968.5686,971.9342,0,0,2.7969,,0,21,21,89,1,REAL,FAKE,,,,,,,,,,,,,,,,,
,,,,,,,,,67ad7554361978dd021a69d3,Mexican,13 or older,"yes, I am fluent in another language",yes,2025-08-13_17h52.23.141,empathy_intonation_perc,2024.2.4,Win32,29.94011976,67ad7554361978dd021a69d3,687ed1b7e638a4cbf2f02089,689d08d081dbc5d688c5d6d6,,,,,,,,,,,,,,1,,,,,,,,,,,,,,,,,,,,,,,,,,,,,,,,,,,,,,,,,,,,,,,,,,,,,,,,,9,hacha,,,,,971.9365,974.0329,1,1,1.5381,,0,22,22,8,1,REAL,FAKE,,,,,,,,,,,,,,,,,
,,,,,,,,,67ad7554361978dd021a69d3,Mexican,13 or older,"yes, I am fluent in another language",yes,2025-08-13_17h52.23.141,empathy_intonation_perc,2024.2.4,Win32,29.94011976,67ad7554361978dd021a69d3,687ed1b7e638a4cbf2f02089,689d08d081dbc5d688c5d6d6,,,,,,,,,,,,,,1,,,,,,,,,,,,,,,,,,,,,,,,,,,,,,,,,,,,,,,,,,,,,,,,,,,,,,,,,13,helar,,,,,974.0351,976.1333,1,1,1.5323,,0,23,23,12,1,REAL,FAKE,,,,,,,,,,,,,,,,,
,,,,,,,,,67ad7554361978dd021a69d3,Mexican,13 or older,"yes, I am fluent in another language",yes,2025-08-13_17h52.23.141,empathy_intonation_perc,2024.2.4,Win32,29.94011976,67ad7554361978dd021a69d3,687ed1b7e638a4cbf2f02089,689d08d081dbc5d688c5d6d6,,,,,,,,,,,,,,1,,,,,,,,,,,,,,,,,,,,,,,,,,,,,,,,,,,,,,,,,,,,,,,,,,,,,,,,,44,cuchara,,,,,976.135,981.3668,1,1,4.6631,,0,24,24,43,1,REAL,FAKE,,,,,,,,,,,,,,,,,
,,,,,,,,,67ad7554361978dd021a69d3,Mexican,13 or older,"yes, I am fluent in another language",yes,2025-08-13_17h52.23.141,empathy_intonation_perc,2024.2.4,Win32,29.94011976,67ad7554361978dd021a69d3,687ed1b7e638a4cbf2f02089,689d08d081dbc5d688c5d6d6,,,,,,,,,,,,,,1,,,,,,,,,,,,,,,,,,,,,,,,,,,,,,,,,,,,,,,,,,,,,,,,,,,,,,,,,2,pellizcar,,,,,981.3685,986.9994,1,1,5.0817,,0,25,25,1,1,REAL,FAKE,,,,,,,,,,,,,,,,,
,,,,,,,,,67ad7554361978dd021a69d3,Mexican,13 or older,"yes, I am fluent in another language",yes,2025-08-13_17h52.23.141,empathy_intonation_perc,2024.2.4,Win32,29.94011976,67ad7554361978dd021a69d3,687ed1b7e638a4cbf2f02089,689d08d081dbc5d688c5d6d6,,,,,,,,,,,,,,1,,,,,,,,,,,,,,,,,,,,,,,,,,,,,,,,,,,,,,,,,,,,,,,,,,,,,,,,,26,secuestro,,,,,987.0011,991.7324,0,0,4.1712,,0,26,26,25,1,REAL,FAKE,,,,,,,,,,,,,,,,,
,,,,,,,,,67ad7554361978dd021a69d3,Mexican,13 or older,"yes, I am fluent in another language",yes,2025-08-13_17h52.23.141,empathy_intonation_perc,2024.2.4,Win32,29.94011976,67ad7554361978dd021a69d3,687ed1b7e638a4cbf2f02089,689d08d081dbc5d688c5d6d6,,,,,,,,,,,,,,1,,,,,,,,,,,,,,,,,,,,,,,,,,,,,,,,,,,,,,,,,,,,,,,,,,,,,,,,,3,pulmones,,,,,991.7343,996.9662,1,1,4.6699,,0,27,27,2,1,REAL,FAKE,,,,,,,,,,,,,,,,,
,,,,,,,,,67ad7554361978dd021a69d3,Mexican,13 or older,"yes, I am fluent in another language",yes,2025-08-13_17h52.23.141,empathy_intonation_perc,2024.2.4,Win32,29.94011976,67ad7554361978dd021a69d3,687ed1b7e638a4cbf2f02089,689d08d081dbc5d688c5d6d6,,,,,,,,,,,,,,0,,,,,,,,,,,,,,,,,,,,,,,,,,,,,,,,,,,,,,,,,,,,,,,,,,,,,,,,,53,vegada,,,,,996.9679,1000.1988,0,1,2.6658,,0,28,28,52,1,REAL,FAKE,,,,,,,,,,,,,,,,,
,,,,,,,,,67ad7554361978dd021a69d3,Mexican,13 or older,"yes, I am fluent in another language",yes,2025-08-13_17h52.23.141,empathy_intonation_perc,2024.2.4,Win32,29.94011976,67ad7554361978dd021a69d3,687ed1b7e638a4cbf2f02089,689d08d081dbc5d688c5d6d6,,,,,,,,,,,,,,1,,,,,,,,,,,,,,,,,,,,,,,,,,,,,,,,,,,,,,,,,,,,,,,,,,,,,,,,,25,bisagra,,,,,1000.2011,1006.1323,0,0,5.3714,,0,29,29,24,1,REAL,FAKE,,,,,,,,,,,,,,,,,
,,,,,,,,,67ad7554361978dd021a69d3,Mexican,13 or older,"yes, I am fluent in another language",yes,2025-08-13_17h52.23.141,empathy_intonation_perc,2024.2.4,Win32,29.94011976,67ad7554361978dd021a69d3,687ed1b7e638a4cbf2f02089,689d08d081dbc5d688c5d6d6,,,,,,,,,,,,,,1,,,,,,,,,,,,,,,,,,,,,,,,,,,,,,,,,,,,,,,,,,,,,,,,,,,,,,,,,64,orgulloso,,,,,1006.1358,1009.2322,0,0,2.5314,,0,30,30,63,1,REAL,FAKE,,,,,,,,,,,,,,,,,
,,,,,,,,,67ad7554361978dd021a69d3,Mexican,13 or older,"yes, I am fluent in another language",yes,2025-08-13_17h52.23.141,empathy_intonation_perc,2024.2.4,Win32,29.94011976,67ad7554361978dd021a69d3,687ed1b7e638a4cbf2f02089,689d08d081dbc5d688c5d6d6,,,,,,,,,,,,,,1,,,,,,,,,,,,,,,,,,,,,,,,,,,,,,,,,,,,,,,,,,,,,,,,,,,,,,,,,31,pandilla,,,,,1009.2341,1013.4983,1,1,3.6987,,0,31,31,30,1,REAL,FAKE,,,,,,,,,,,,,,,,,
,,,,,,,,,67ad7554361978dd021a69d3,Mexican,13 or older,"yes, I am fluent in another language",yes,2025-08-13_17h52.23.141,empathy_intonation_perc,2024.2.4,Win32,29.94011976,67ad7554361978dd021a69d3,687ed1b7e638a4cbf2f02089,689d08d081dbc5d688c5d6d6,,,,,,,,,,,,,,0,,,,,,,,,,,,,,,,,,,,,,,,,,,,,,,,,,,,,,,,,,,,,,,,,,,,,,,,,33,pauca,,,,,1013.5001,1018.4649,0,1,4.4119,,0,32,32,32,1,REAL,FAKE,,,,,,,,,,,,,,,,,
,,,,,,,,,67ad7554361978dd021a69d3,Mexican,13 or older,"yes, I am fluent in another language",yes,2025-08-13_17h52.23.141,empathy_intonation_perc,2024.2.4,Win32,29.94011976,67ad7554361978dd021a69d3,687ed1b7e638a4cbf2f02089,689d08d081dbc5d688c5d6d6,,,,,,,,,,,,,,1,,,,,,,,,,,,,,,,,,,,,,,,,,,,,,,,,,,,,,,,,,,,,,,,,,,,,,,,,52,camisa,,,,,1018.4676,1020.2985,1,1,1.2628,,0,33,33,51,1,REAL,FAKE,,,,,,,,,,,,,,,,,
,,,,,,,,,67ad7554361978dd021a69d3,Mexican,13 or older,"yes, I am fluent in another language",yes,2025-08-13_17h52.23.141,empathy_intonation_perc,2024.2.4,Win32,29.94011976,67ad7554361978dd021a69d3,687ed1b7e638a4cbf2f02089,689d08d081dbc5d688c5d6d6,,,,,,,,,,,,,,1,,,,,,,,,,,,,,,,,,,,,,,,,,,,,,,,,,,,,,,,,,,,,,,,,,,,,,,,,12,asesinato,,,,,1020.3005,1026.7649,1,1,5.8959,,0,34,34,11,1,REAL,FAKE,,,,,,,,,,,,,,,,,
,,,,,,,,,67ad7554361978dd021a69d3,Mexican,13 or older,"yes, I am fluent in another language",yes,2025-08-13_17h52.23.141,empathy_intonation_perc,2024.2.4,Win32,29.94011976,67ad7554361978dd021a69d3,687ed1b7e638a4cbf2f02089,689d08d081dbc5d688c5d6d6,,,,,,,,,,,,,,1,,,,,,,,,,,,,,,,,,,,,,,,,,,,,,,,,,,,,,,,,,,,,,,,,,,,,,,,,54,fomentar,,,,,1026.7674,1031.9641,1,1,4.6311,,0,35,35,53,1,REAL,FAKE,,,,,,,,,,,,,,,,,
,,,,,,,,,67ad7554361978dd021a69d3,Mexican,13 or older,"yes, I am fluent in another language",yes,2025-08-13_17h52.23.141,empathy_intonation_perc,2024.2.4,Win32,29.94011976,67ad7554361978dd021a69d3,687ed1b7e638a4cbf2f02089,689d08d081dbc5d688c5d6d6,,,,,,,,,,,,,,1,,,,,,,,,,,,,,,,,,,,,,,,,,,,,,,,,,,,,,,,,,,,,,,,,,,,,,,,,69,engatusar,,,,,1031.966,1037.598,0,0,5.0744,,0,36,36,68,1,REAL,FAKE,,,,,,,,,,,,,,,,,
,,,,,,,,,67ad7554361978dd021a69d3,Mexican,13 or older,"yes, I am fluent in another language",yes,2025-08-13_17h52.23.141,empathy_intonation_perc,2024.2.4,Win32,29.94011976,67ad7554361978dd021a69d3,687ed1b7e638a4cbf2f02089,689d08d081dbc5d688c5d6d6,,,,,,,,,,,,,,1,,,,,,,,,,,,,,,,,,,,,,,,,,,,,,,,,,,,,,,,,,,,,,,,,,,,,,,,,62,flaco,,,,,1037.6001,1039.5978,1,1,1.4454,,0,37,37,61,1,REAL,FAKE,,,,,,,,,,,,,,,,,
,,,,,,,,,67ad7554361978dd021a69d3,Mexican,13 or older,"yes, I am fluent in another language",yes,2025-08-13_17h52.23.141,empathy_intonation_perc,2024.2.4,Win32,29.94011976,67ad7554361978dd021a69d3,687ed1b7e638a4cbf2f02089,689d08d081dbc5d688c5d6d6,,,,,,,,,,,,,,0,,,,,,,,,,,,,,,,,,,,,,,,,,,,,,,,,,,,,,,,,,,,,,,,,,,,,,,,,63,esposante,,,,,1039.5998,1043.5976,1,0,3.4416,,0,38,38,62,1,REAL,FAKE,,,,,,,,,,,,,,,,,
,,,,,,,,,67ad7554361978dd021a69d3,Mexican,13 or older,"yes, I am fluent in another language",yes,2025-08-13_17h52.23.141,empathy_intonation_perc,2024.2.4,Win32,29.94011976,67ad7554361978dd021a69d3,687ed1b7e638a4cbf2f02089,689d08d081dbc5d688c5d6d6,,,,,,,,,,,,,,0,,,,,,,,,,,,,,,,,,,,,,,,,,,,,,,,,,,,,,,,,,,,,,,,,,,,,,,,,27,acutación,,,,,1043.6012,1048.4972,1,0,4.3381,,0,39,39,26,1,REAL,FAKE,,,,,,,,,,,,,,,,,
,,,,,,,,,67ad7554361978dd021a69d3,Mexican,13 or older,"yes, I am fluent in another language",yes,2025-08-13_17h52.23.141,empathy_intonation_perc,2024.2.4,Win32,29.94011976,67ad7554361978dd021a69d3,687ed1b7e638a4cbf2f02089,689d08d081dbc5d688c5d6d6,,,,,,,,,,,,,,1,,,,,,,,,,,,,,,,,,,,,,,,,,,,,,,,,,,,,,,,,,,,,,,,,,,,,,,,,89,prisa,,,,,1048.4994,1050.464,0,0,1.3997,,0,40,40,88,1,REAL,FAKE,,,,,,,,,,,,,,,,,
,,,,,,,,,67ad7554361978dd021a69d3,Mexican,13 or older,"yes, I am fluent in another language",yes,2025-08-13_17h52.23.141,empathy_intonation_perc,2024.2.4,Win32,29.94011976,67ad7554361978dd021a69d3,687ed1b7e638a4cbf2f02089,689d08d081dbc5d688c5d6d6,,,,,,,,,,,,,,1,,,,,,,,,,,,,,,,,,,,,,,,,,,,,,,,,,,,,,,,,,,,,,,,,,,,,,,,,41,rebuscar,,,,,1050.467,1053.6644,1,1,2.6344,,0,41,41,40,1,REAL,FAKE,,,,,,,,,,,,,,,,,
,,,,,,,,,67ad7554361978dd021a69d3,Mexican,13 or older,"yes, I am fluent in another language",yes,2025-08-13_17h52.23.141,empathy_intonation_perc,2024.2.4,Win32,29.94011976,67ad7554361978dd021a69d3,687ed1b7e638a4cbf2f02089,689d08d081dbc5d688c5d6d6,,,,,,,,,,,,,,1,,,,,,,,,,,,,,,,,,,,,,,,,,,,,,,,,,,,,,,,,,,,,,,,,,,,,,,,,83,guante,,,,,1053.6669,1055.7304,1,1,1.511,,0,42,42,82,1,REAL,FAKE,,,,,,,,,,,,,,,,,
,,,,,,,,,67ad7554361978dd021a69d3,Mexican,13 or older,"yes, I am fluent in another language",yes,2025-08-13_17h52.23.141,empathy_intonation_perc,2024.2.4,Win32,29.94011976,67ad7554361978dd021a69d3,687ed1b7e638a4cbf2f02089,689d08d081dbc5d688c5d6d6,,,,,,,,,,,,,,0,,,,,,,,,,,,,,,,,,,,,,,,,,,,,,,,,,,,,,,,,,,,,,,,,,,,,,,,,4,batillón,,,,,1055.7321,1059.1637,1,0,2.8664,,0,43,43,3,1,REAL,FAKE,,,,,,,,,,,,,,,,,
,,,,,,,,,67ad7554361978dd021a69d3,Mexican,13 or older,"yes, I am fluent in another language",yes,2025-08-13_17h52.23.141,empathy_intonation_perc,2024.2.4,Win32,29.94011976,67ad7554361978dd021a69d3,687ed1b7e638a4cbf2f02089,689d08d081dbc5d688c5d6d6,,,,,,,,,,,,,,1,,,,,,,,,,,,,,,,,,,,,,,,,,,,,,,,,,,,,,,,,,,,,,,,,,,,,,,,,56,musgo,,,,,1059.1654,1061.9636,0,0,2.2379,,0,44,44,55,1,REAL,FAKE,,,,,,,,,,,,,,,,,
,,,,,,,,,67ad7554361978dd021a69d3,Mexican,13 or older,"yes, I am fluent in another language",yes,2025-08-13_17h52.23.141,empathy_intonation_perc,2024.2.4,Win32,29.94011976,67ad7554361978dd021a69d3,687ed1b7e638a4cbf2f02089,689d08d081dbc5d688c5d6d6,,,,,,,,,,,,,,0,,,,,,,,,,,,,,,,,,,,,,,,,,,,,,,,,,,,,,,,,,,,,,,,,,,,,,,,,35,rompido,,,,,1061.9651,1068.7638,1,0,6.2518,,0,45,45,34,1,REAL,FAKE,,,,,,,,,,,,,,,,,
,,,,,,,,,67ad7554361978dd021a69d3,Mexican,13 or older,"yes, I am fluent in another language",yes,2025-08-13_17h52.23.141,empathy_intonation_perc,2024.2.4,Win32,29.94011976,67ad7554361978dd021a69d3,687ed1b7e638a4cbf2f02089,689d08d081dbc5d688c5d6d6,,,,,,,,,,,,,,0,,,,,,,,,,,,,,,,,,,,,,,,,,,,,,,,,,,,,,,,,,,,,,,,,,,,,,,,,47,cartinar,,,,,1068.7653,1074.3633,1,0,5.0302,,0,46,46,46,1,REAL,FAKE,,,,,,,,,,,,,,,,,
,,,,,,,,,67ad7554361978dd021a69d3,Mexican,13 or older,"yes, I am fluent in another language",yes,2025-08-13_17h52.23.141,empathy_intonation_perc,2024.2.4,Win32,29.94011976,67ad7554361978dd021a69d3,687ed1b7e638a4cbf2f02089,689d08d081dbc5d688c5d6d6,,,,,,,,,,,,,,0,,,,,,,,,,,,,,,,,,,,,,,,,,,,,,,,,,,,,,,,,,,,,,,,,,,,,,,,,66,hacido,,,,,1074.3652,1076.7967,1,0,1.8638,,0,47,47,65,1,REAL,FAKE,,,,,,,,,,,,,,,,,
,,,,,,,,,67ad7554361978dd021a69d3,Mexican,13 or older,"yes, I am fluent in another language",yes,2025-08-13_17h52.23.141,empathy_intonation_perc,2024.2.4,Win32,29.94011976,67ad7554361978dd021a69d3,687ed1b7e638a4cbf2f02089,689d08d081dbc5d688c5d6d6,,,,,,,,,,,,,,1,,,,,,,,,,,,,,,,,,,,,,,,,,,,,,,,,,,,,,,,,,,,,,,,,,,,,,,,,40,alfombra,,,,,1076.7984,1079.363,0,0,1.9987,,0,48,48,39,1,REAL,FAKE,,,,,,,,,,,,,,,,,
,,,,,,,,,67ad7554361978dd021a69d3,Mexican,13 or older,"yes, I am fluent in another language",yes,2025-08-13_17h52.23.141,empathy_intonation_perc,2024.2.4,Win32,29.94011976,67ad7554361978dd021a69d3,687ed1b7e638a4cbf2f02089,689d08d081dbc5d688c5d6d6,,,,,,,,,,,,,,1,,,,,,,,,,,,,,,,,,,,,,,,,,,,,,,,,,,,,,,,,,,,,,,,,,,,,,,,,55,nevar,,,,,1079.3646,1083.9296,0,0,4.029,,0,49,49,54,1,REAL,FAKE,,,,,,,,,,,,,,,,,
,,,,,,,,,67ad7554361978dd021a69d3,Mexican,13 or older,"yes, I am fluent in another language",yes,2025-08-13_17h52.23.141,empathy_intonation_perc,2024.2.4,Win32,29.94011976,67ad7554361978dd021a69d3,687ed1b7e638a4cbf2f02089,689d08d081dbc5d688c5d6d6,,,,,,,,,,,,,,1,,,,,,,,,,,,,,,,,,,,,,,,,,,,,,,,,,,,,,,,,,,,,,,,,,,,,,,,,46,martillo,,,,,1083.9313,1088.3639,0,0,3.8629,,0,50,50,45,1,REAL,FAKE,,,,,,,,,,,,,,,,,
,,,,,,,,,67ad7554361978dd021a69d3,Mexican,13 or older,"yes, I am fluent in another language",yes,2025-08-13_17h52.23.141,empathy_intonation_perc,2024.2.4,Win32,29.94011976,67ad7554361978dd021a69d3,687ed1b7e638a4cbf2f02089,689d08d081dbc5d688c5d6d6,,,,,,,,,,,,,,1,,,,,,,,,,,,,,,,,,,,,,,,,,,,,,,,,,,,,,,,,,,,,,,,,,,,,,,,,81,pozo,,,,,1088.3655,1092.629,0,0,3.7137,,0,51,51,80,1,REAL,FAKE,,,,,,,,,,,,,,,,,
,,,,,,,,,67ad7554361978dd021a69d3,Mexican,13 or older,"yes, I am fluent in another language",yes,2025-08-13_17h52.23.141,empathy_intonation_perc,2024.2.4,Win32,29.94011976,67ad7554361978dd021a69d3,687ed1b7e638a4cbf2f02089,689d08d081dbc5d688c5d6d6,,,,,,,,,,,,,,1,,,,,,,,,,,,,,,,,,,,,,,,,,,,,,,,,,,,,,,,,,,,,,,,,,,,,,,,,86,barato,,,,,1092.6313,1095.9627,1,1,2.7748,,0,52,52,85,1,REAL,FAKE,,,,,,,,,,,,,,,,,
,,,,,,,,,67ad7554361978dd021a69d3,Mexican,13 or older,"yes, I am fluent in another language",yes,2025-08-13_17h52.23.141,empathy_intonation_perc,2024.2.4,Win32,29.94011976,67ad7554361978dd021a69d3,687ed1b7e638a4cbf2f02089,689d08d081dbc5d688c5d6d6,,,,,,,,,,,,,,0,,,,,,,,,,,,,,,,,,,,,,,,,,,,,,,,,,,,,,,,,,,,,,,,,,,,,,,,,74,cintro,,,,,1095.965,1101.229,1,0,4.7029,,0,53,53,73,1,REAL,FAKE,,,,,,,,,,,,,,,,,
,,,,,,,,,67ad7554361978dd021a69d3,Mexican,13 or older,"yes, I am fluent in another language",yes,2025-08-13_17h52.23.141,empathy_intonation_perc,2024.2.4,Win32,29.94011976,67ad7554361978dd021a69d3,687ed1b7e638a4cbf2f02089,689d08d081dbc5d688c5d6d6,,,,,,,,,,,,,,1,,,,,,,,,,,,,,,,,,,,,,,,,,,,,,,,,,,,,,,,,,,,,,,,,,,,,,,,,76,atar,,,,,1101.2307,1105.0627,0,0,3.2678,,0,54,54,75,1,REAL,FAKE,,,,,,,,,,,,,,,,,
,,,,,,,,,67ad7554361978dd021a69d3,Mexican,13 or older,"yes, I am fluent in another language",yes,2025-08-13_17h52.23.141,empathy_intonation_perc,2024.2.4,Win32,29.94011976,67ad7554361978dd021a69d3,687ed1b7e638a4cbf2f02089,689d08d081dbc5d688c5d6d6,,,,,,,,,,,,,,1,,,,,,,,,,,,,,,,,,,,,,,,,,,,,,,,,,,,,,,,,,,,,,,,,,,,,,,,,71,polvoriento,,,,,1105.0643,1109.2953,0,0,3.6631,,0,55,55,70,1,REAL,FAKE,,,,,,,,,,,,,,,,,
,,,,,,,,,67ad7554361978dd021a69d3,Mexican,13 or older,"yes, I am fluent in another language",yes,2025-08-13_17h52.23.141,empathy_intonation_perc,2024.2.4,Win32,29.94011976,67ad7554361978dd021a69d3,687ed1b7e638a4cbf2f02089,689d08d081dbc5d688c5d6d6,,,,,,,,,,,,,,1,,,,,,,,,,,,,,,,,,,,,,,,,,,,,,,,,,,,,,,,,,,,,,,,,,,,,,,,,80,hormiga,,,,,1109.2971,1113.2618,0,0,3.4034,,0,56,56,79,1,REAL,FAKE,,,,,,,,,,,,,,,,,
,,,,,,,,,67ad7554361978dd021a69d3,Mexican,13 or older,"yes, I am fluent in another language",yes,2025-08-13_17h52.23.141,empathy_intonation_perc,2024.2.4,Win32,29.94011976,67ad7554361978dd021a69d3,687ed1b7e638a4cbf2f02089,689d08d081dbc5d688c5d6d6,,,,,,,,,,,,,,0,,,,,,,,,,,,,,,,,,,,,,,,,,,,,,,,,,,,,,,,,,,,,,,,,,,,,,,,,18,arsa,,,,,1113.2635,1116.0279,0,1,2.2149,,0,57,57,17,1,REAL,FAKE,,,,,,,,,,,,,,,,,
,,,,,,,,,67ad7554361978dd021a69d3,Mexican,13 or older,"yes, I am fluent in another language",yes,2025-08-13_17h52.23.141,empathy_intonation_perc,2024.2.4,Win32,29.94011976,67ad7554361978dd021a69d3,687ed1b7e638a4cbf2f02089,689d08d081dbc5d688c5d6d6,,,,,,,,,,,,,,1,,,,,,,,,,,,,,,,,,,,,,,,,,,,,,,,,,,,,,,,,,,,,,,,,,,,,,,,,85,laúd,,,,,1116.0299,1118.5959,0,0,2.007,,0,58,58,84,1,REAL,FAKE,,,,,,,,,,,,,,,,,
,,,,,,,,,67ad7554361978dd021a69d3,Mexican,13 or older,"yes, I am fluent in another language",yes,2025-08-13_17h52.23.141,empathy_intonation_perc,2024.2.4,Win32,29.94011976,67ad7554361978dd021a69d3,687ed1b7e638a4cbf2f02089,689d08d081dbc5d688c5d6d6,,,,,,,,,,,,,,1,,,,,,,,,,,,,,,,,,,,,,,,,,,,,,,,,,,,,,,,,,,,,,,,,,,,,,,,,78,frondoso,,,,,1118.5985,1124.6618,0,0,5.4968,,0,59,59,77,1,REAL,FAKE,,,,,,,,,,,,,,,,,
,,,,,,,,,67ad7554361978dd021a69d3,Mexican,13 or older,"yes, I am fluent in another language",yes,2025-08-13_17h52.23.141,empathy_intonation_perc,2024.2.4,Win32,29.94011976,67ad7554361978dd021a69d3,687ed1b7e638a4cbf2f02089,689d08d081dbc5d688c5d6d6,,,,,,,,,,,,,,0,,,,,,,,,,,,,,,,,,,,,,,,,,,,,,,,,,,,,,,,,,,,,,,,,,,,,,,,,72,pemición,,,,,1124.6636,1130.7614,1,0,5.5308,,0,60,60,71,1,REAL,FAKE,,,,,,,,,,,,,,,,,
,,,,,,,,,67ad7554361978dd021a69d3,Mexican,13 or older,"yes, I am fluent in another language",yes,2025-08-13_17h52.23.141,empathy_intonation_perc,2024.2.4,Win32,29.94011976,67ad7554361978dd021a69d3,687ed1b7e638a4cbf2f02089,689d08d081dbc5d688c5d6d6,,,,,,,,,,,,,,0,,,,,,,,,,,,,,,,,,,,,,,,,,,,,,,,,,,,,,,,,,,,,,,,,,,,,,,,,16,abracer,,,,,1130.7634,1137.3287,1,0,5.9981,,0,61,61,15,1,REAL,FAKE,,,,,,,,,,,,,,,,,
,,,,,,,,,67ad7554361978dd021a69d3,Mexican,13 or older,"yes, I am fluent in another language",yes,2025-08-13_17h52.23.141,empathy_intonation_perc,2024.2.4,Win32,29.94011976,67ad7554361978dd021a69d3,687ed1b7e638a4cbf2f02089,689d08d081dbc5d688c5d6d6,,,,,,,,,,,,,,1,,,,,,,,,,,,,,,,,,,,,,,,,,,,,,,,,,,,,,,,,,,,,,,,,,,,,,,,,38,estornudar,,,,,1137.3311,1145.4277,0,0,7.5318,,0,62,62,37,1,REAL,FAKE,,,,,,,,,,,,,,,,,
,,,,,,,,,67ad7554361978dd021a69d3,Mexican,13 or older,"yes, I am fluent in another language",yes,2025-08-13_17h52.23.141,empathy_intonation_perc,2024.2.4,Win32,29.94011976,67ad7554361978dd021a69d3,687ed1b7e638a4cbf2f02089,689d08d081dbc5d688c5d6d6,,,,,,,,,,,,,,1,,,,,,,,,,,,,,,,,,,,,,,,,,,,,,,,,,,,,,,,,,,,,,,,,,,,,,,,,7,pésimo,,,,,1145.4298,1149.7278,1,1,3.7403,,0,63,63,6,1,REAL,FAKE,,,,,,,,,,,,,,,,,
,,,,,,,,,67ad7554361978dd021a69d3,Mexican,13 or older,"yes, I am fluent in another language",yes,2025-08-13_17h52.23.141,empathy_intonation_perc,2024.2.4,Win32,29.94011976,67ad7554361978dd021a69d3,687ed1b7e638a4cbf2f02089,689d08d081dbc5d688c5d6d6,,,,,,,,,,,,,,0,,,,,,,,,,,,,,,,,,,,,,,,,,,,,,,,,,,,,,,,,,,,,,,,,,,,,,,,,10,antar,,,,,1149.7298,1154.2934,1,0,4.0148,,0,64,64,9,1,REAL,FAKE,,,,,,,,,,,,,,,,,
,,,,,,,,,67ad7554361978dd021a69d3,Mexican,13 or older,"yes, I am fluent in another language",yes,2025-08-13_17h52.23.141,empathy_intonation_perc,2024.2.4,Win32,29.94011976,67ad7554361978dd021a69d3,687ed1b7e638a4cbf2f02089,689d08d081dbc5d688c5d6d6,,,,,,,,,,,,,,1,,,,,,,,,,,,,,,,,,,,,,,,,,,,,,,,,,,,,,,,,,,,,,,,,,,,,,,,,43,canela,,,,,1154.2951,1156.3275,1,1,1.4638,,0,65,65,42,1,REAL,FAKE,,,,,,,,,,,,,,,,,
,,,,,,,,,67ad7554361978dd021a69d3,Mexican,13 or older,"yes, I am fluent in another language",yes,2025-08-13_17h52.23.141,empathy_intonation_perc,2024.2.4,Win32,29.94011976,67ad7554361978dd021a69d3,687ed1b7e638a4cbf2f02089,689d08d081dbc5d688c5d6d6,,,,,,,,,,,,,,1,,,,,,,,,,,,,,,,,,,,,,,,,,,,,,,,,,,,,,,,,,,,,,,,,,,,,,,,,57,tacaño,,,,,1156.3297,1158.5268,1,1,1.6493,,0,66,66,56,1,REAL,FAKE,,,,,,,,,,,,,,,,,
,,,,,,,,,67ad7554361978dd021a69d3,Mexican,13 or older,"yes, I am fluent in another language",yes,2025-08-13_17h52.23.141,empathy_intonation_perc,2024.2.4,Win32,29.94011976,67ad7554361978dd021a69d3,687ed1b7e638a4cbf2f02089,689d08d081dbc5d688c5d6d6,,,,,,,,,,,,,,1,,,,,,,,,,,,,,,,,,,,,,,,,,,,,,,,,,,,,,,,,,,,,,,,,,,,,,,,,48,ladrón,,,,,1158.5289,1160.0604,1,1,0.9774,,0,67,67,47,1,REAL,FAKE,,,,,,,,,,,,,,,,,
,,,,,,,,,67ad7554361978dd021a69d3,Mexican,13 or older,"yes, I am fluent in another language",yes,2025-08-13_17h52.23.141,empathy_intonation_perc,2024.2.4,Win32,29.94011976,67ad7554361978dd021a69d3,687ed1b7e638a4cbf2f02089,689d08d081dbc5d688c5d6d6,,,,,,,,,,,,,,1,,,,,,,,,,,,,,,,,,,,,,,,,,,,,,,,,,,,,,,,,,,,,,,,,,,,,,,,,60,matar,,,,,1160.0626,1161.9272,0,0,1.2981,,0,68,68,59,1,REAL,FAKE,,,,,,,,,,,,,,,,,
,,,,,,,,,67ad7554361978dd021a69d3,Mexican,13 or older,"yes, I am fluent in another language",yes,2025-08-13_17h52.23.141,empathy_intonation_perc,2024.2.4,Win32,29.94011976,67ad7554361978dd021a69d3,687ed1b7e638a4cbf2f02089,689d08d081dbc5d688c5d6d6,,,,,,,,,,,,,,1,,,,,,,,,,,,,,,,,,,,,,,,,,,,,,,,,,,,,,,,,,,,,,,,,,,,,,,,,15,regar,,,,,1161.9293,1165.2267,0,0,2.7597,,0,69,69,14,1,REAL,FAKE,,,,,,,,,,,,,,,,,
,,,,,,,,,67ad7554361978dd021a69d3,Mexican,13 or older,"yes, I am fluent in another language",yes,2025-08-13_17h52.23.141,empathy_intonation_perc,2024.2.4,Win32,29.94011976,67ad7554361978dd021a69d3,687ed1b7e638a4cbf2f02089,689d08d081dbc5d688c5d6d6,,,,,,,,,,,,,,1,,,,,,,,,,,,,,,,,,,,,,,,,,,,,,,,,,,,,,,,,,,,,,,,,,,,,,,,,75,yacer,,,,,1165.2286,1167.1601,0,0,1.3653,,0,70,70,74,1,REAL,FAKE,,,,,,,,,,,,,,,,,
,,,,,,,,,67ad7554361978dd021a69d3,Mexican,13 or older,"yes, I am fluent in another language",yes,2025-08-13_17h52.23.141,empathy_intonation_perc,2024.2.4,Win32,29.94011976,67ad7554361978dd021a69d3,687ed1b7e638a4cbf2f02089,689d08d081dbc5d688c5d6d6,,,,,,,,,,,,,,0,,,,,,,,,,,,,,,,,,,,,,,,,,,,,,,,,,,,,,,,,,,,,,,,,,,,,,,,,32,fatacidad,,,,,1167.1618,1173.4933,0,1,5.7603,,0,71,71,31,1,REAL,FAKE,,,,,,,,,,,,,,,,,
,,,,,,,,,67ad7554361978dd021a69d3,Mexican,13 or older,"yes, I am fluent in another language",yes,2025-08-13_17h52.23.141,empathy_intonation_perc,2024.2.4,Win32,29.94011976,67ad7554361978dd021a69d3,687ed1b7e638a4cbf2f02089,689d08d081dbc5d688c5d6d6,,,,,,,,,,,,,,0,,,,,,,,,,,,,,,,,,,,,,,,,,,,,,,,,,,,,,,,,,,,,,,,,,,,,,,,,23,lampera,,,,,1173.4951,1175.2275,1,0,1.1862,,0,72,72,22,1,REAL,FAKE,,,,,,,,,,,,,,,,,
,,,,,,,,,67ad7554361978dd021a69d3,Mexican,13 or older,"yes, I am fluent in another language",yes,2025-08-13_17h52.23.141,empathy_intonation_perc,2024.2.4,Win32,29.94011976,67ad7554361978dd021a69d3,687ed1b7e638a4cbf2f02089,689d08d081dbc5d688c5d6d6,,,,,,,,,,,,,,1,,,,,,,,,,,,,,,,,,,,,,,,,,,,,,,,,,,,,,,,,,,,,,,,,,,,,,,,,73,hervidor,,,,,1175.2288,1180.8927,0,0,5.1001,,0,73,73,72,1,REAL,FAKE,,,,,,,,,,,,,,,,,
,,,,,,,,,67ad7554361978dd021a69d3,Mexican,13 or older,"yes, I am fluent in another language",yes,2025-08-13_17h52.23.141,empathy_intonation_perc,2024.2.4,Win32,29.94011976,67ad7554361978dd021a69d3,687ed1b7e638a4cbf2f02089,689d08d081dbc5d688c5d6d6,,,,,,,,,,,,,,0,,,,,,,,,,,,,,,,,,,,,,,,,,,,,,,,,,,,,,,,,,,,,,,,,,,,,,,,,1,terzo,,,,,1180.8957,1184.1263,0,1,2.6634,,0,74,74,0,1,REAL,FAKE,,,,,,,,,,,,,,,,,
,,,,,,,,,67ad7554361978dd021a69d3,Mexican,13 or older,"yes, I am fluent in another language",yes,2025-08-13_17h52.23.141,empathy_intonation_perc,2024.2.4,Win32,29.94011976,67ad7554361978dd021a69d3,687ed1b7e638a4cbf2f02089,689d08d081dbc5d688c5d6d6,,,,,,,,,,,,,,1,,,,,,,,,,,,,,,,,,,,,,,,,,,,,,,,,,,,,,,,,,,,,,,,,,,,,,,,,36,loro,,,,,1184.1285,1185.8596,1,1,1.1622,,0,75,75,35,1,REAL,FAKE,,,,,,,,,,,,,,,,,
,,,,,,,,,67ad7554361978dd021a69d3,Mexican,13 or older,"yes, I am fluent in another language",yes,2025-08-13_17h52.23.141,empathy_intonation_perc,2024.2.4,Win32,29.94011976,67ad7554361978dd021a69d3,687ed1b7e638a4cbf2f02089,689d08d081dbc5d688c5d6d6,,,,,,,,,,,,,,0,,,,,,,,,,,,,,,,,,,,,,,,,,,,,,,,,,,,,,,,,,,,,,,,,,,,,,,,,82,empirador,,,,,1185.8614,1189.4934,1,0,3.0642,,0,76,76,81,1,REAL,FAKE,,,,,,,,,,,,,,,,,
,,,,,,,,,67ad7554361978dd021a69d3,Mexican,13 or older,"yes, I am fluent in another language",yes,2025-08-13_17h52.23.141,empathy_intonation_perc,2024.2.4,Win32,29.94011976,67ad7554361978dd021a69d3,687ed1b7e638a4cbf2f02089,689d08d081dbc5d688c5d6d6,,,,,,,,,,,,,,0,,,,,,,,,,,,,,,,,,,,,,,,,,,,,,,,,,,,,,,,,,,,,,,,,,,,,,,,,42,cadallo,,,,,1189.4952,1193.0258,1,0,2.9826,,0,77,77,41,1,REAL,FAKE,,,,,,,,,,,,,,,,,
,,,,,,,,,67ad7554361978dd021a69d3,Mexican,13 or older,"yes, I am fluent in another language",yes,2025-08-13_17h52.23.141,empathy_intonation_perc,2024.2.4,Win32,29.94011976,67ad7554361978dd021a69d3,687ed1b7e638a4cbf2f02089,689d08d081dbc5d688c5d6d6,,,,,,,,,,,,,,0,,,,,,,,,,,,,,,,,,,,,,,,,,,,,,,,,,,,,,,,,,,,,,,,,,,,,,,,,87,grodo,,,,,1193.0273,1200.4254,1,0,6.8517,,0,78,78,86,1,REAL,FAKE,,,,,,,,,,,,,,,,,
,,,,,,,,,67ad7554361978dd021a69d3,Mexican,13 or older,"yes, I am fluent in another language",yes,2025-08-13_17h52.23.141,empathy_intonation_perc,2024.2.4,Win32,29.94011976,67ad7554361978dd021a69d3,687ed1b7e638a4cbf2f02089,689d08d081dbc5d688c5d6d6,,,,,,,,,,,,,,1,,,,,,,,,,,,,,,,,,,,,,,,,,,,,,,,,,,,,,,,,,,,,,,,,,,,,,,,,77,tiburón,,,,,1200.4268,1203.1595,1,1,2.1677,,0,79,79,76,1,REAL,FAKE,,,,,,,,,,,,,,,,,
,,,,,,,,,67ad7554361978dd021a69d3,Mexican,13 or older,"yes, I am fluent in another language",yes,2025-08-13_17h52.23.141,empathy_intonation_perc,2024.2.4,Win32,29.94011976,67ad7554361978dd021a69d3,687ed1b7e638a4cbf2f02089,689d08d081dbc5d688c5d6d6,,,,,,,,,,,,,,1,,,,,,,,,,,,,,,,,,,,,,,,,,,,,,,,,,,,,,,,,,,,,,,,,,,,,,,,,6,tergiversar,,,,,1203.1611,1207.8261,0,0,4.0975,,0,80,80,5,1,REAL,FAKE,,,,,,,,,,,,,,,,,
,,,,,,,,,67ad7554361978dd021a69d3,Mexican,13 or older,"yes, I am fluent in another language",yes,2025-08-13_17h52.23.141,empathy_intonation_perc,2024.2.4,Win32,29.94011976,67ad7554361978dd021a69d3,687ed1b7e638a4cbf2f02089,689d08d081dbc5d688c5d6d6,,,,,,,,,,,,,,0,,,,,,,,,,,,,,,,,,,,,,,,,,,,,,,,,,,,,,,,,,,,,,,,,,,,,,,,,30,alardio,,,,,1207.8286,1210.5925,1,0,2.2109,,0,81,81,29,1,REAL,FAKE,,,,,,,,,,,,,,,,,
,,,,,,,,,67ad7554361978dd021a69d3,Mexican,13 or older,"yes, I am fluent in another language",yes,2025-08-13_17h52.23.141,empathy_intonation_perc,2024.2.4,Win32,29.94011976,67ad7554361978dd021a69d3,687ed1b7e638a4cbf2f02089,689d08d081dbc5d688c5d6d6,,,,,,,,,,,,,,0,,,,,,,,,,,,,,,,,,,,,,,,,,,,,,,,,,,,,,,,,,,,,,,,,,,,,,,,,79,tropaje,,,,,1210.594,1219.5253,0,1,8.366,,0,82,82,78,1,REAL,FAKE,,,,,,,,,,,,,,,,,
,,,,,,,,,67ad7554361978dd021a69d3,Mexican,13 or older,"yes, I am fluent in another language",yes,2025-08-13_17h52.23.141,empathy_intonation_perc,2024.2.4,Win32,29.94011976,67ad7554361978dd021a69d3,687ed1b7e638a4cbf2f02089,689d08d081dbc5d688c5d6d6,,,,,,,,,,,,,,1,,,,,,,,,,,,,,,,,,,,,,,,,,,,,,,,,,,,,,,,,,,,,,,,,,,,,,,,,28,merodear,,,,,1219.5272,1226.7245,0,0,6.6455,,0,83,83,27,1,REAL,FAKE,,,,,,,,,,,,,,,,,
,,,,,,,,,67ad7554361978dd021a69d3,Mexican,13 or older,"yes, I am fluent in another language",yes,2025-08-13_17h52.23.141,empathy_intonation_perc,2024.2.4,Win32,29.94011976,67ad7554361978dd021a69d3,687ed1b7e638a4cbf2f02089,689d08d081dbc5d688c5d6d6,,,,,,,,,,,,,,1,,,,,,,,,,,,,,,,,,,,,,,,,,,,,,,,,,,,,,,,,,,,,,,,,,,,,,,,,65,bizcocho,,,,,1226.7262,1230.7256,1,1,3.4729,,0,84,84,64,1,REAL,FAKE,,,,,,,,,,,,,,,,,
,,,,,,,,,67ad7554361978dd021a69d3,Mexican,13 or older,"yes, I am fluent in another language",yes,2025-08-13_17h52.23.141,empathy_intonation_perc,2024.2.4,Win32,29.94011976,67ad7554361978dd021a69d3,687ed1b7e638a4cbf2f02089,689d08d081dbc5d688c5d6d6,,,,,,,,,,,,,,1,,,,,,,,,,,,,,,,,,,,,,,,,,,,,,,,,,,,,,,,,,,,,,,,,,,,,,,,,45,jilguero,,,,,1230.7284,1246.8577,0,0,15.5623,,0,85,85,44,1,REAL,FAKE,,,,,,,,,,,,,,,,,
,,,,,,,,,67ad7554361978dd021a69d3,Mexican,13 or older,"yes, I am fluent in another language",yes,2025-08-13_17h52.23.141,empathy_intonation_perc,2024.2.4,Win32,29.94011976,67ad7554361978dd021a69d3,687ed1b7e638a4cbf2f02089,689d08d081dbc5d688c5d6d6,,,,,,,,,,,,,,0,,,,,,,,,,,,,,,,,,,,,,,,,,,,,,,,,,,,,,,,,,,,,,,,,,,,,,,,,8,cadeña,,,,,1246.8603,1252.9571,1,0,5.5492,,0,86,86,7,1,REAL,FAKE,,,,,,,,,,,,,,,,,
,,,,,,,,,67ad7554361978dd021a69d3,Mexican,13 or older,"yes, I am fluent in another language",yes,2025-08-13_17h52.23.141,empathy_intonation_perc,2024.2.4,Win32,29.94011976,67ad7554361978dd021a69d3,687ed1b7e638a4cbf2f02089,689d08d081dbc5d688c5d6d6,,,,,,,,,,,,,,0,,,,,,,,,,,,,,,,,,,,,,,,,,,,,,,,,,,,,,,,,,,,,,,,,,,,,,,,,50,flamida,,,,,1252.959,1255.5247,0,1,2.0122,,0,87,87,49,1,REAL,FAKE,,,,,,,,,,,,,,,,,
,,,,,,,,,67ad7554361978dd021a69d3,Mexican,13 or older,"yes, I am fluent in another language",yes,2025-08-13_17h52.23.141,empathy_intonation_perc,2024.2.4,Win32,29.94011976,67ad7554361978dd021a69d3,687ed1b7e638a4cbf2f02089,689d08d081dbc5d688c5d6d6,,,,,,,,,,,,,,0,,,,,,,,,,,,,,,,,,,,,,,,,,,,,,,,,,,,,,,,,,,,,,,,,,,,,,,,,58,plaudir,,,,,1255.526,1257.3839,0,1,1.3166,,0,88,88,57,1,REAL,FAKE,,,,,,,,,,,,,,,,,
,,,,,,,,,67ad7554361978dd021a69d3,Mexican,13 or older,"yes, I am fluent in another language",yes,2025-08-13_17h52.23.141,empathy_intonation_perc,2024.2.4,Win32,29.94011976,67ad7554361978dd021a69d3,687ed1b7e638a4cbf2f02089,689d08d081dbc5d688c5d6d6,,,,,,,,,,,,,,1,,,,,,,,,,,,,,,,,,,,,,,,,,,,,,,,,,,,,,,,,,,,,,,,,,,,,,,,,14,yunque,,,,,1257.385,1258.5928,0,0,0.6688,,0,89,89,13,1,REAL,FAKE,,,,,,,,,,,,,,,,,
,,,,,,,,,67ad7554361978dd021a69d3,Mexican,13 or older,"yes, I am fluent in another language",yes,2025-08-13_17h52.23.141,empathy_intonation_perc,2024.2.4,Win32,29.94011976,67ad7554361978dd021a69d3,687ed1b7e638a4cbf2f02089,689d08d081dbc5d688c5d6d6,,,,,,,,,,,,,,1,,,,,,,,,,,,,,,,,,,,,,,,,,,,,,,,,,,,,,,,,,,,,,,,,,,,,,,,,67,cabello,,,,,1258.5938,1260.2406,1,1,1.1011,,0,90,90,66,1,REAL,FAKE,,,,,,,,,,,,,,,,,
,,,,,,,,,67ad7554361978dd021a69d3,Mexican,13 or older,"yes, I am fluent in another language",yes,2025-08-13_17h52.23.141,empathy_intonation_perc,2024.2.4,Win32,29.94011976,67ad7554361978dd021a69d3,687ed1b7e638a4cbf2f02089,689d08d081dbc5d688c5d6d6,,,,,,,,,,,,,,1,,,,,,,,,,,,,,,,,,,,,,,,,,,,,,,,,,,,,,,,,,,,,,,,,,,,,,,,,37,granuja,,,,,1260.2424,1263.4088,1,1,2.6259,,0,91,91,36,1,REAL,FAKE,,,,,,,,,,,,,,,,,
,,,,,,,,,67ad7554361978dd021a69d3,Mexican,13 or older,"yes, I am fluent in another language",yes,2025-08-13_17h52.23.141,empathy_intonation_perc,2024.2.4,Win32,29.94011976,67ad7554361978dd021a69d3,687ed1b7e638a4cbf2f02089,689d08d081dbc5d688c5d6d6,,,,,,,,,,,,,,,,,,,,,,,,,,,,,,,,,,,,,,,,,,,,,,,,,,,,,,,,,,,,,,,,,,,,,,,,,,,,,,,,,,,,,,,,,,1263.4092,1271.1407,,,,,,,,,,,,,,,
,,,,,,,,,67ad7554361978dd021a69d3,Mexican,13 or older,"yes, I am fluent in another language",yes,2025-08-13_17h52.23.141,empathy_intonation_perc,2024.2.4,Win32,29.94011976,67ad7554361978dd021a69d3,687ed1b7e638a4cbf2f02089,689d08d081dbc5d688c5d6d6,,,,,,,,,,,,,1,,,,,,,,,,,,,,,,,,,,,,,,,,,,,,,,,,,,,,,,,,,,,,,,,,,,,,,,,,,,,,,,,,,,,,,,,,,,,,,1271.1483,1283.7308,strongly agree,0,0,0,0,1,I can easily tell if someone else wants to enter a conversation.,1,0,1,0,,
,,,,,,,,,67ad7554361978dd021a69d3,Mexican,13 or older,"yes, I am fluent in another language",yes,2025-08-13_17h52.23.141,empathy_intonation_perc,2024.2.4,Win32,29.94011976,67ad7554361978dd021a69d3,687ed1b7e638a4cbf2f02089,689d08d081dbc5d688c5d6d6,,,,,,,,,,,,,2,,,,,,,,,,,,,,,,,,,,,,,,,,,,,,,,,,,,,,,,,,,,,,,,,,,,,,,,,,,,,,,,,,,,,,,,,,,,,,,1283.7337,1285.4524,strongly agree,0,1,1,1,1,I prefer animals to humans.,0,1,0,0,,
,,,,,,,,,67ad7554361978dd021a69d3,Mexican,13 or older,"yes, I am fluent in another language",yes,2025-08-13_17h52.23.141,empathy_intonation_perc,2024.2.4,Win32,29.94011976,67ad7554361978dd021a69d3,687ed1b7e638a4cbf2f02089,689d08d081dbc5d688c5d6d6,,,,,,,,,,,,,3,,,,,,,,,,,,,,,,,,,,,,,,,,,,,,,,,,,,,,,,,,,,,,,,,,,,,,,,,,,,,,,,,,,,,,,,,,,,,,,1285.4607,1289.9786,slightly agree,0,2,2,2,1,I try to keep up with the current trends and fashions.,0,1,0,0,,
,,,,,,,,,67ad7554361978dd021a69d3,Mexican,13 or older,"yes, I am fluent in another language",yes,2025-08-13_17h52.23.141,empathy_intonation_perc,2024.2.4,Win32,29.94011976,67ad7554361978dd021a69d3,687ed1b7e638a4cbf2f02089,689d08d081dbc5d688c5d6d6,,,,,,,,,,,,,4,,,,,,,,,,,,,,,,,,,,,,,,,,,,,,,,,,,,,,,,,,,,,,,,,,,,,,,,,,,,,,,,,,,,,,,,,,,,,,,1289.9874,1355.3791,slightly disagree,0,3,3,3,1,"I find it difficult to explain to others things that I understand easily,   when they don't understand it first time.",1,0,0,1,,
