instructions_exposure.started,instructions_exposure.stopped,instructions_exposure_loop.thisRepN,instructions_exposure_loop.thisTrialN,instructions_exposure_loop.thisN,instructions_exposure_loop.thisIndex,instructions_exposure_loop.ran,instructions_text,continue_text,participant_id,"What variety of Spanish are you most familiar with? (e.g., Peruvian, Spanish, Mexican)",At what age did you begin learning Spanish?,Are you proficient in any languages other than English/Spanish?,"Are you familiar with Caribbean (e.g., Caribbean, Puerto Rican) or Galician Spanish?",date,expName,psychopyVersion,OS,frameRate,id,study_id,session,trial_exposure.started,trial_exposure.stopped,key_resp_exposure.keys,key_resp_exposure.corr,key_resp_exposure.rt,key_resp_exposure.duration,key_resp.keys,exposure_loop.thisRepN,exposure_loop.thisTrialN,exposure_loop.thisN,exposure_loop.thisIndex,exposure_loop.ran,item_num,correct_response,question,path,duration,instructions_2afc.started,instructions_2afc.stopped,instructions_2afc_loop.thisRepN,instructions_2afc_loop.thisTrialN,instructions_2afc_loop.thisN,instructions_2afc_loop.thisIndex,instructions_2afc_loop.ran,practice_2afc.started,practice_2afc.stopped,key_resp_2afc_practice.keys,key_resp_2afc_practice.corr,key_resp_2afc_practice.rt,key_resp_2afc_practice.duration,trials_2afc_practice_loop.thisRepN,trials_2afc_practice_loop.thisTrialN,trials_2afc_practice_loop.thisN,trials_2afc_practice_loop.thisIndex,trials_2afc_practice_loop.ran,check_2afc.started,check_2afc.stopped,trial_2afc.started,trial_2afc.stopped,key_resp_2afc_trial.keys,key_resp_2afc_trial.corr,key_resp_2afc_trial.rt,key_resp_2afc_trial.duration,trials_2afc_loop.thisRepN,trials_2afc_loop.thisTrialN,trials_2afc_loop.thisN,trials_2afc_loop.thisIndex,trials_2afc_loop.ran,target,variety,instructions_lextale.started,instructions_lextale.stopped,instructions_lextale_loop.thisRepN,instructions_lextale_loop.thisTrialN,instructions_lextale_loop.thisN,instructions_lextale_loop.thisIndex,instructions_lextale_loop.ran,practice_lextale.started,practice_lextale.stopped,key_resp_lextale_practice.keys,key_resp_lextale_practice.corr,key_resp_lextale_practice.rt,key_resp_lextale_practice.duration,practice_feedback_lextale.started,practice_feedback_lextale.stopped,trials_lextale_practice_loop.thisRepN,trials_lextale_practice_loop.thisTrialN,trials_lextale_practice_loop.thisN,trials_lextale_practice_loop.thisIndex,trials_lextale_practice_loop.ran,stim,word,prac_button_real,prac_button_false,check_lextale.started,check_lextale.stopped,trial_lextale.started,trial_lextale.stopped,key_resp_lextale_trial.keys,key_resp_lextale_trial.corr,key_resp_lextale_trial.rt,key_resp_lextale_trial.duration,trials_lextale_loop.thisRepN,trials_lextale_loop.thisTrialN,trials_lextale_loop.thisN,trials_lextale_loop.thisIndex,trials_lextale_loop.ran,button_real,button_false,instructions_eq.started,instructions_eq.stopped,trial_eq.started,trial_eq.stopped,slider_eq_trial.response,trials_eq_loop.thisRepN,trials_eq_loop.thisTrialN,trials_eq_loop.thisN,trials_eq_loop.thisIndex,trials_eq_loop.ran,item,is_test_item,is_distractor,is_agree_score,is_disagree_score,end_exp.started,end_exp.stopped
0.0263,4.707,0,0,0,0,1,"In the following task, you are going to hear a series of conversations.", (press the space bar to continue),67c9e12970245699c2237d09,mexican,13 or older,"no, only English or Spanish",no,2025-07-23_02h37.28.146,empathy_intonation_perc,2024.2.4,Win32,60.24096386,67c9e12970245699c2237d09,687ed1b7e638a4cbf2f02089,68808287fe38476f55bfaf2d,,,,,,,,,,,,,,,,,,,,,,,,,,,,,,,,,,,,,,,,,,,,,,,,,,,,,,,,,,,,,,,,,,,,,,,,,,,,,,,,,,,,,,,,,,,,,,,,,,,,,,,,,,
4.7079,11.4134,0,1,1,1,1,It is okay if you don't not 100% understand them!, (press the space bar to continue),67c9e12970245699c2237d09,mexican,13 or older,"no, only English or Spanish",no,2025-07-23_02h37.28.146,empathy_intonation_perc,2024.2.4,Win32,60.24096386,67c9e12970245699c2237d09,687ed1b7e638a4cbf2f02089,68808287fe38476f55bfaf2d,,,,,,,,,,,,,,,,,,,,,,,,,,,,,,,,,,,,,,,,,,,,,,,,,,,,,,,,,,,,,,,,,,,,,,,,,,,,,,,,,,,,,,,,,,,,,,,,,,,,,,,,,,
11.4163,16.7032,0,2,2,2,1,"After, you will read a sentence about the conversation and decide if it's true or false.", (press the space bar to continue),67c9e12970245699c2237d09,mexican,13 or older,"no, only English or Spanish",no,2025-07-23_02h37.28.146,empathy_intonation_perc,2024.2.4,Win32,60.24096386,67c9e12970245699c2237d09,687ed1b7e638a4cbf2f02089,68808287fe38476f55bfaf2d,,,,,,,,,,,,,,,,,,,,,,,,,,,,,,,,,,,,,,,,,,,,,,,,,,,,,,,,,,,,,,,,,,,,,,,,,,,,,,,,,,,,,,,,,,,,,,,,,,,,,,,,,,
16.7094,28.7995,0,3,3,3,1,"If it's true, press '1' (True) and if it's false press '0' (False).", (press the space bar to continue),67c9e12970245699c2237d09,mexican,13 or older,"no, only English or Spanish",no,2025-07-23_02h37.28.146,empathy_intonation_perc,2024.2.4,Win32,60.24096386,67c9e12970245699c2237d09,687ed1b7e638a4cbf2f02089,68808287fe38476f55bfaf2d,,,,,,,,,,,,,,,,,,,,,,,,,,,,,,,,,,,,,,,,,,,,,,,,,,,,,,,,,,,,,,,,,,,,,,,,,,,,,,,,,,,,,,,,,,,,,,,,,,,,,,,,,,
,,,,,,,,,67c9e12970245699c2237d09,mexican,13 or older,"no, only English or Spanish",no,2025-07-23_02h37.28.146,empathy_intonation_perc,2024.2.4,Win32,60.24096386,67c9e12970245699c2237d09,687ed1b7e638a4cbf2f02089,68808287fe38476f55bfaf2d,28.8275,82.0022,1,1,6.0846,,,0,0,0,0,1,1,1,The son asked the mom if Aunt Marina is okay.,./stim/exposure_wavs/ga_stimuli_convo.wav,47,,,,,,,,,,,,,,,,,,,,,,,,,,,,,,,,,,,,,,,,,,,,,,,,,,,,,,,,,,,,,,,,,,,,,,,,,,,,,,,,,,,,,,,,,
,,,,,,,,,67c9e12970245699c2237d09,mexican,13 or older,"no, only English or Spanish",no,2025-07-23_02h37.28.146,empathy_intonation_perc,2024.2.4,Win32,60.24096386,67c9e12970245699c2237d09,687ed1b7e638a4cbf2f02089,68808287fe38476f55bfaf2d,82.0075,122.6409,1,0,4.591,,,0,1,1,2,1,3,0,The mom already has rice.,./stim/exposure_wavs/pr_stimuli_convo.wav,36,,,,,,,,,,,,,,,,,,,,,,,,,,,,,,,,,,,,,,,,,,,,,,,,,,,,,,,,,,,,,,,,,,,,,,,,,,,,,,,,,,,,,,,,,
,,,,,,,,,67c9e12970245699c2237d09,mexican,13 or older,"no, only English or Spanish",no,2025-07-23_02h37.28.146,empathy_intonation_perc,2024.2.4,Win32,60.24096386,67c9e12970245699c2237d09,687ed1b7e638a4cbf2f02089,68808287fe38476f55bfaf2d,122.6455,187.7931,0,0,5.1125,,,0,2,2,1,1,2,1,The mom asked the daughter if she already went to the supermarket.,./stim/exposure_wavs/dr_stimuli_convo.wav,60,,,,,,,,,,,,,,,,,,,,,,,,,,,,,,,,,,,,,,,,,,,,,,,,,,,,,,,,,,,,,,,,,,,,,,,,,,,,,,,,,,,,,,,,,
,,,,,,,"In the following task you are going to hear a series of utterances. 

  You will decide if the utterances sound like questions or not using your keyboard.", (press the spacebar to continue),67c9e12970245699c2237d09,mexican,13 or older,"no, only English or Spanish",no,2025-07-23_02h37.28.146,empathy_intonation_perc,2024.2.4,Win32,60.24096386,67c9e12970245699c2237d09,687ed1b7e638a4cbf2f02089,68808287fe38476f55bfaf2d,,,,,,,,,,,,,,,,,,187.8101,197.9501,0,0,0,0,1,,,,,,,,,,,,,,,,,,,,,,,,,,,,,,,,,,,,,,,,,,,,,,,,,,,,,,,,,,,,,,,,,,,,,,,,,,,,,,,,,,
,,,,,,,"If you believe the utterance is a question, type '1' (for 'yes') and if you do not 
  believe it is a question type '0' (for 'no').

  Let's practice a bit...", (press the spacebar to continue),67c9e12970245699c2237d09,mexican,13 or older,"no, only English or Spanish",no,2025-07-23_02h37.28.146,empathy_intonation_perc,2024.2.4,Win32,60.24096386,67c9e12970245699c2237d09,687ed1b7e638a4cbf2f02089,68808287fe38476f55bfaf2d,,,,,,,,,,,,,,,,,,197.954,209.3966,0,1,1,1,1,,,,,,,,,,,,,,,,,,,,,,,,,,,,,,,,,,,,,,,,,,,,,,,,,,,,,,,,,,,,,,,,,,,,,,,,,,,,,,,,,,
,,,,,,,,,67c9e12970245699c2237d09,mexican,13 or older,"no, only English or Spanish",no,2025-07-23_02h37.28.146,empathy_intonation_perc,2024.2.4,Win32,60.24096386,67c9e12970245699c2237d09,687ed1b7e638a4cbf2f02089,68808287fe38476f55bfaf2d,,,,,,,,,,,,,,0,,./stim/wavs/peruvian_statement_filler_El-nino-habla-con-su-madre.wav,,,,,,,,,209.4248,214.0157,1,0,4.0545,,0,0,0,6,1,,,,,,,,,,,,,,,,,,,,,,,,,,,,,,,,,,,,,,,,,,,,,,,,,,,,,,,,,,,,,,,,,,,,,,,
,,,,,,,,,67c9e12970245699c2237d09,mexican,13 or older,"no, only English or Spanish",no,2025-07-23_02h37.28.146,empathy_intonation_perc,2024.2.4,Win32,60.24096386,67c9e12970245699c2237d09,687ed1b7e638a4cbf2f02089,68808287fe38476f55bfaf2d,,,,,,,,,,,,,,0,,./stim/wavs/cuban_statement_filler_Cocinabas-por-la-noche.wav,,,,,,,,,214.0168,217.822,0,1,3.2774,,0,1,1,4,1,,,,,,,,,,,,,,,,,,,,,,,,,,,,,,,,,,,,,,,,,,,,,,,,,,,,,,,,,,,,,,,,,,,,,,,
,,,,,,,,,67c9e12970245699c2237d09,mexican,13 or older,"no, only English or Spanish",no,2025-07-23_02h37.28.146,empathy_intonation_perc,2024.2.4,Win32,60.24096386,67c9e12970245699c2237d09,687ed1b7e638a4cbf2f02089,68808287fe38476f55bfaf2d,,,,,,,,,,,,,,1,,./stim/wavs/castilian_question_filler_Mi-esposo-conoce-al-chico.wav,,,,,,,,,217.823,221.2067,1,1,2.8531,,0,2,2,0,1,,,,,,,,,,,,,,,,,,,,,,,,,,,,,,,,,,,,,,,,,,,,,,,,,,,,,,,,,,,,,,,,,,,,,,,
,,,,,,,,,67c9e12970245699c2237d09,mexican,13 or older,"no, only English or Spanish",no,2025-07-23_02h37.28.146,empathy_intonation_perc,2024.2.4,Win32,60.24096386,67c9e12970245699c2237d09,687ed1b7e638a4cbf2f02089,68808287fe38476f55bfaf2d,,,,,,,,,,,,,,1,,./stim/wavs/mexican_question_filler_Felipe-no-tiene-contrasena.wav,,,,,,,,,221.2083,224.0591,1,1,2.318,,0,3,3,3,1,,,,,,,,,,,,,,,,,,,,,,,,,,,,,,,,,,,,,,,,,,,,,,,,,,,,,,,,,,,,,,,,,,,,,,,
,,,,,,,,,67c9e12970245699c2237d09,mexican,13 or older,"no, only English or Spanish",no,2025-07-23_02h37.28.146,empathy_intonation_perc,2024.2.4,Win32,60.24096386,67c9e12970245699c2237d09,687ed1b7e638a4cbf2f02089,68808287fe38476f55bfaf2d,,,,,,,,,,,,,,1,,./stim/wavs/chilean_question_filler_Mi-padre-cantaba-bien.wav,,,,,,,,,224.0601,227.3642,0,0,2.7908,,0,4,4,2,1,,,,,,,,,,,,,,,,,,,,,,,,,,,,,,,,,,,,,,,,,,,,,,,,,,,,,,,,,,,,,,,,,,,,,,,
,,,,,,,,,67c9e12970245699c2237d09,mexican,13 or older,"no, only English or Spanish",no,2025-07-23_02h37.28.146,empathy_intonation_perc,2024.2.4,Win32,60.24096386,67c9e12970245699c2237d09,687ed1b7e638a4cbf2f02089,68808287fe38476f55bfaf2d,,,,,,,,,,,,,,0,,./stim/wavs/puertorican_statement_filler_La-nina-pinta-con-su-amiga.wav,,,,,,,,,227.3653,230.9654,0,1,3.0695,,0,5,5,7,1,,,,,,,,,,,,,,,,,,,,,,,,,,,,,,,,,,,,,,,,,,,,,,,,,,,,,,,,,,,,,,,,,,,,,,,
,,,,,,,,,67c9e12970245699c2237d09,mexican,13 or older,"no, only English or Spanish",no,2025-07-23_02h37.28.146,empathy_intonation_perc,2024.2.4,Win32,60.24096386,67c9e12970245699c2237d09,687ed1b7e638a4cbf2f02089,68808287fe38476f55bfaf2d,,,,,,,,,,,,,,0,,./stim/wavs/andalusian_statement_filler_Alberto-nunca-se-afeita.wav,,,,,,,,,230.9662,234.4864,0,1,2.991,,0,6,6,5,1,,,,,,,,,,,,,,,,,,,,,,,,,,,,,,,,,,,,,,,,,,,,,,,,,,,,,,,,,,,,,,,,,,,,,,,
,,,,,,,,,67c9e12970245699c2237d09,mexican,13 or older,"no, only English or Spanish",no,2025-07-23_02h37.28.146,empathy_intonation_perc,2024.2.4,Win32,60.24096386,67c9e12970245699c2237d09,687ed1b7e638a4cbf2f02089,68808287fe38476f55bfaf2d,,,,,,,,,,,,,,1,,./stim/wavs/argentine_question_filler_Mi-vecino-habla-mucho.wav,,,,,,,,,234.4877,237.3059,1,1,2.2868,,0,7,7,1,1,,,,,,,,,,,,,,,,,,,,,,,,,,,,,,,,,,,,,,,,,,,,,,,,,,,,,,,,,,,,,,,,,,,,,,,
,,,,,,,,,67c9e12970245699c2237d09,mexican,13 or older,"no, only English or Spanish",no,2025-07-23_02h37.28.146,empathy_intonation_perc,2024.2.4,Win32,60.24096386,67c9e12970245699c2237d09,687ed1b7e638a4cbf2f02089,68808287fe38476f55bfaf2d,,,,,,,,,,,,,,,,,,,,,,,,,,,,,,,,,,,,237.3067,244.9075,,,,,,,,,,,,,,,,,,,,,,,,,,,,,,,,,,,,,,,,,,,,,,,,,,,,,,,,,,,,,,,,,,,,,
,,,,,,,,,67c9e12970245699c2237d09,mexican,13 or older,"no, only English or Spanish",no,2025-07-23_02h37.28.146,empathy_intonation_perc,2024.2.4,Win32,60.24096386,67c9e12970245699c2237d09,687ed1b7e638a4cbf2f02089,68808287fe38476f55bfaf2d,,,,,,,,,,,,,39,1,,./stim/wavs/mexican_mismatch_interrogative-total-yn_Mi-tia-odia-la-lluvia.wav,,,,,,,,,,,,,,,,,,,,,,244.9177,247.5125,1,1,2.0707,,0,0,0,38,1,0,mexican,,,,,,,,,,,,,,,,,,,,,,,,,,,,,,,,,,,,,,,,,,,,,,,,,,,,,,,,
,,,,,,,,,67c9e12970245699c2237d09,mexican,13 or older,"no, only English or Spanish",no,2025-07-23_02h37.28.146,empathy_intonation_perc,2024.2.4,Win32,60.24096386,67c9e12970245699c2237d09,687ed1b7e638a4cbf2f02089,68808287fe38476f55bfaf2d,,,,,,,,,,,,,3,1,,./stim/wavs/castilian_match_interrogative-total-yn_Manuela-vende-el-carro.wav,,,,,,,,,,,,,,,,,,,,,,247.5139,250.1679,0,0,2.1349,,0,1,1,2,1,0,castilian,,,,,,,,,,,,,,,,,,,,,,,,,,,,,,,,,,,,,,,,,,,,,,,,,,,,,,,,
,,,,,,,,,67c9e12970245699c2237d09,mexican,13 or older,"no, only English or Spanish",no,2025-07-23_02h37.28.146,empathy_intonation_perc,2024.2.4,Win32,60.24096386,67c9e12970245699c2237d09,687ed1b7e638a4cbf2f02089,68808287fe38476f55bfaf2d,,,,,,,,,,,,,66,0,,./stim/wavs/puertorican_match_declarative-broad-focus_Emilio-ama-la-marcha.wav,,,,,,,,,,,,,,,,,,,,,,250.1693,252.7376,0,1,2.0376,,0,2,2,65,1,0,puertorican,,,,,,,,,,,,,,,,,,,,,,,,,,,,,,,,,,,,,,,,,,,,,,,,,,,,,,,,
,,,,,,,,,67c9e12970245699c2237d09,mexican,13 or older,"no, only English or Spanish",no,2025-07-23_02h37.28.146,empathy_intonation_perc,2024.2.4,Win32,60.24096386,67c9e12970245699c2237d09,687ed1b7e638a4cbf2f02089,68808287fe38476f55bfaf2d,,,,,,,,,,,,,23,1,,./stim/wavs/puertorican_match_interrogative-total-yn_Manuela-vende-el-carro.wav,,,,,,,,,,,,,,,,,,,,,,252.7404,255.2067,0,0,1.9403,,0,3,3,22,1,1,puertorican,,,,,,,,,,,,,,,,,,,,,,,,,,,,,,,,,,,,,,,,,,,,,,,,,,,,,,,,
,,,,,,,,,67c9e12970245699c2237d09,mexican,13 or older,"no, only English or Spanish",no,2025-07-23_02h37.28.146,empathy_intonation_perc,2024.2.4,Win32,60.24096386,67c9e12970245699c2237d09,687ed1b7e638a4cbf2f02089,68808287fe38476f55bfaf2d,,,,,,,,,,,,,56,0,,./stim/wavs/cuban_match_declarative-broad-focus_Marta-abre-el-regalo.wav,,,,,,,,,,,,,,,,,,,,,,255.2079,257.8094,0,1,2.0687,,0,4,4,55,1,0,cuban,,,,,,,,,,,,,,,,,,,,,,,,,,,,,,,,,,,,,,,,,,,,,,,,,,,,,,,,
,,,,,,,,,67c9e12970245699c2237d09,mexican,13 or older,"no, only English or Spanish",no,2025-07-23_02h37.28.146,empathy_intonation_perc,2024.2.4,Win32,60.24096386,67c9e12970245699c2237d09,687ed1b7e638a4cbf2f02089,68808287fe38476f55bfaf2d,,,,,,,,,,,,,84,0,,./stim/wavs/puertorican_mismatch_declarative-broad-focus_El-bebe-comia-muy-bien.wav,,,,,,,,,,,,,,,,,,,,,,257.8102,260.3957,0,1,2.0414,,0,5,5,83,1,0,puertorican,,,,,,,,,,,,,,,,,,,,,,,,,,,,,,,,,,,,,,,,,,,,,,,,,,,,,,,,
,,,,,,,,,67c9e12970245699c2237d09,mexican,13 or older,"no, only English or Spanish",no,2025-07-23_02h37.28.146,empathy_intonation_perc,2024.2.4,Win32,60.24096386,67c9e12970245699c2237d09,687ed1b7e638a4cbf2f02089,68808287fe38476f55bfaf2d,,,,,,,,,,,,,10,1,,./stim/wavs/cuban_match_interrogative-total-yn_Maria-bebe-el-vino.wav,,,,,,,,,,,,,,,,,,,,,,260.3972,263.0308,0,0,2.1073,,0,6,6,9,1,1,cuban,,,,,,,,,,,,,,,,,,,,,,,,,,,,,,,,,,,,,,,,,,,,,,,,,,,,,,,,
,,,,,,,,,67c9e12970245699c2237d09,mexican,13 or older,"no, only English or Spanish",no,2025-07-23_02h37.28.146,empathy_intonation_perc,2024.2.4,Win32,60.24096386,67c9e12970245699c2237d09,687ed1b7e638a4cbf2f02089,68808287fe38476f55bfaf2d,,,,,,,,,,,,,33,1,,./stim/wavs/cuban_mismatch_interrogative-total-yn_Mi-novio-viene-del-lago.wav,,,,,,,,,,,,,,,,,,,,,,263.0319,265.661,1,1,2.1179,,0,7,7,32,1,1,cuban,,,,,,,,,,,,,,,,,,,,,,,,,,,,,,,,,,,,,,,,,,,,,,,,,,,,,,,,
,,,,,,,,,67c9e12970245699c2237d09,mexican,13 or older,"no, only English or Spanish",no,2025-07-23_02h37.28.146,empathy_intonation_perc,2024.2.4,Win32,60.24096386,67c9e12970245699c2237d09,687ed1b7e638a4cbf2f02089,68808287fe38476f55bfaf2d,,,,,,,,,,,,,34,1,,./stim/wavs/cuban_mismatch_interrogative-total-yn_Mi-tia-odia-la-lluvia.wav,,,,,,,,,,,,,,,,,,,,,,265.6617,268.3812,0,0,2.2027,,0,8,8,33,1,1,cuban,,,,,,,,,,,,,,,,,,,,,,,,,,,,,,,,,,,,,,,,,,,,,,,,,,,,,,,,
,,,,,,,,,67c9e12970245699c2237d09,mexican,13 or older,"no, only English or Spanish",no,2025-07-23_02h37.28.146,empathy_intonation_perc,2024.2.4,Win32,60.24096386,67c9e12970245699c2237d09,687ed1b7e638a4cbf2f02089,68808287fe38476f55bfaf2d,,,,,,,,,,,,,65,0,,./stim/wavs/puertorican_match_declarative-broad-focus_David-leia-el-libro.wav,,,,,,,,,,,,,,,,,,,,,,268.3817,270.8661,0,1,1.9517,,0,9,9,64,1,0,puertorican,,,,,,,,,,,,,,,,,,,,,,,,,,,,,,,,,,,,,,,,,,,,,,,,,,,,,,,,
,,,,,,,,,67c9e12970245699c2237d09,mexican,13 or older,"no, only English or Spanish",no,2025-07-23_02h37.28.146,empathy_intonation_perc,2024.2.4,Win32,60.24096386,67c9e12970245699c2237d09,687ed1b7e638a4cbf2f02089,68808287fe38476f55bfaf2d,,,,,,,,,,,,,85,0,,./stim/wavs/puertorican_mismatch_declarative-broad-focus_El-hombre-mira-la-luna.wav,,,,,,,,,,,,,,,,,,,,,,270.8666,273.5526,1,0,2.1521,,0,10,10,84,1,0,puertorican,,,,,,,,,,,,,,,,,,,,,,,,,,,,,,,,,,,,,,,,,,,,,,,,,,,,,,,,
,,,,,,,,,67c9e12970245699c2237d09,mexican,13 or older,"no, only English or Spanish",no,2025-07-23_02h37.28.146,empathy_intonation_perc,2024.2.4,Win32,60.24096386,67c9e12970245699c2237d09,687ed1b7e638a4cbf2f02089,68808287fe38476f55bfaf2d,,,,,,,,,,,,,81,0,,./stim/wavs/mexican_mismatch_declarative-broad-focus_La-maestra-vive-en-Paris.wav,,,,,,,,,,,,,,,,,,,,,,273.5529,276.2726,0,1,2.1861,,0,11,11,80,1,0,mexican,,,,,,,,,,,,,,,,,,,,,,,,,,,,,,,,,,,,,,,,,,,,,,,,,,,,,,,,
,,,,,,,,,67c9e12970245699c2237d09,mexican,13 or older,"no, only English or Spanish",no,2025-07-23_02h37.28.146,empathy_intonation_perc,2024.2.4,Win32,60.24096386,67c9e12970245699c2237d09,687ed1b7e638a4cbf2f02089,68808287fe38476f55bfaf2d,,,,,,,,,,,,,60,0,,./stim/wavs/mexican_match_declarative-broad-focus_Emilio-ama-la-marcha.wav,,,,,,,,,,,,,,,,,,,,,,276.2729,278.974,0,1,2.1686,,0,12,12,59,1,0,mexican,,,,,,,,,,,,,,,,,,,,,,,,,,,,,,,,,,,,,,,,,,,,,,,,,,,,,,,,
,,,,,,,,,67c9e12970245699c2237d09,mexican,13 or older,"no, only English or Spanish",no,2025-07-23_02h37.28.146,empathy_intonation_perc,2024.2.4,Win32,60.24096386,67c9e12970245699c2237d09,687ed1b7e638a4cbf2f02089,68808287fe38476f55bfaf2d,,,,,,,,,,,,,1,1,,./stim/wavs/castilian_match_interrogative-total-yn_David-leia-el-libro.wav,,,,,,,,,,,,,,,,,,,,,,278.9745,281.5827,1,1,2.0857,,0,13,13,0,1,0,castilian,,,,,,,,,,,,,,,,,,,,,,,,,,,,,,,,,,,,,,,,,,,,,,,,,,,,,,,,
,,,,,,,,,67c9e12970245699c2237d09,mexican,13 or older,"no, only English or Spanish",no,2025-07-23_02h37.28.146,empathy_intonation_perc,2024.2.4,Win32,60.24096386,67c9e12970245699c2237d09,687ed1b7e638a4cbf2f02089,68808287fe38476f55bfaf2d,,,,,,,,,,,,,77,0,,./stim/wavs/cuban_mismatch_declarative-broad-focus_Mi-novio-viene-del-lago.wav,,,,,,,,,,,,,,,,,,,,,,281.5836,284.365,0,1,2.2542,,0,14,14,76,1,0,cuban,,,,,,,,,,,,,,,,,,,,,,,,,,,,,,,,,,,,,,,,,,,,,,,,,,,,,,,,
,,,,,,,,,67c9e12970245699c2237d09,mexican,13 or older,"no, only English or Spanish",no,2025-07-23_02h37.28.146,empathy_intonation_perc,2024.2.4,Win32,60.24096386,67c9e12970245699c2237d09,687ed1b7e638a4cbf2f02089,68808287fe38476f55bfaf2d,,,,,,,,,,,,,9,1,,./stim/wavs/cuban_match_interrogative-total-yn_Manuela-vende-el-carro.wav,,,,,,,,,,,,,,,,,,,,,,284.3666,287.1519,0,0,2.2543,,0,15,15,8,1,1,cuban,,,,,,,,,,,,,,,,,,,,,,,,,,,,,,,,,,,,,,,,,,,,,,,,,,,,,,,,
,,,,,,,,,67c9e12970245699c2237d09,mexican,13 or older,"no, only English or Spanish",no,2025-07-23_02h37.28.146,empathy_intonation_perc,2024.2.4,Win32,60.24096386,67c9e12970245699c2237d09,687ed1b7e638a4cbf2f02089,68808287fe38476f55bfaf2d,,,,,,,,,,,,,17,1,,./stim/wavs/mexican_match_interrogative-total-yn_Mariano-habla-del-tiempo.wav,,,,,,,,,,,,,,,,,,,,,,287.1533,289.8209,1,1,2.1373,,0,16,16,16,1,0,mexican,,,,,,,,,,,,,,,,,,,,,,,,,,,,,,,,,,,,,,,,,,,,,,,,,,,,,,,,
,,,,,,,,,67c9e12970245699c2237d09,mexican,13 or older,"no, only English or Spanish",no,2025-07-23_02h37.28.146,empathy_intonation_perc,2024.2.4,Win32,60.24096386,67c9e12970245699c2237d09,687ed1b7e638a4cbf2f02089,68808287fe38476f55bfaf2d,,,,,,,,,,,,,42,1,,./stim/wavs/puertorican_mismatch_interrogative-total-yn_La-maestra-vive-en-Paris.wav,,,,,,,,,,,,,,,,,,,,,,289.8219,292.5717,0,0,2.2195,,0,17,17,41,1,1,puertorican,,,,,,,,,,,,,,,,,,,,,,,,,,,,,,,,,,,,,,,,,,,,,,,,,,,,,,,,
,,,,,,,,,67c9e12970245699c2237d09,mexican,13 or older,"no, only English or Spanish",no,2025-07-23_02h37.28.146,empathy_intonation_perc,2024.2.4,Win32,60.24096386,67c9e12970245699c2237d09,687ed1b7e638a4cbf2f02089,68808287fe38476f55bfaf2d,,,,,,,,,,,,,74,0,,./stim/wavs/cuban_mismatch_declarative-broad-focus_El-bebe-comia-muy-bien.wav,,,,,,,,,,,,,,,,,,,,,,292.5721,295.0744,0,1,1.9695,,0,18,18,73,1,0,cuban,,,,,,,,,,,,,,,,,,,,,,,,,,,,,,,,,,,,,,,,,,,,,,,,,,,,,,,,
,,,,,,,,,67c9e12970245699c2237d09,mexican,13 or older,"no, only English or Spanish",no,2025-07-23_02h37.28.146,empathy_intonation_perc,2024.2.4,Win32,60.24096386,67c9e12970245699c2237d09,687ed1b7e638a4cbf2f02089,68808287fe38476f55bfaf2d,,,,,,,,,,,,,69,0,,./stim/wavs/castilian_mismatch_declarative-broad-focus_El-nino-oye-el-rio.wav,,,,,,,,,,,,,,,,,,,,,,295.0749,298.0288,0,1,2.4204,,0,19,19,68,1,0,castilian,,,,,,,,,,,,,,,,,,,,,,,,,,,,,,,,,,,,,,,,,,,,,,,,,,,,,,,,
,,,,,,,,,67c9e12970245699c2237d09,mexican,13 or older,"no, only English or Spanish",no,2025-07-23_02h37.28.146,empathy_intonation_perc,2024.2.4,Win32,60.24096386,67c9e12970245699c2237d09,687ed1b7e638a4cbf2f02089,68808287fe38476f55bfaf2d,,,,,,,,,,,,,52,0,,./stim/wavs/cuban_match_declarative-broad-focus_Daniel-iba-a-Bolivia.wav,,,,,,,,,,,,,,,,,,,,,,298.03,300.8194,0,1,2.2439,,0,20,20,51,1,0,cuban,,,,,,,,,,,,,,,,,,,,,,,,,,,,,,,,,,,,,,,,,,,,,,,,,,,,,,,,
,,,,,,,,,67c9e12970245699c2237d09,mexican,13 or older,"no, only English or Spanish",no,2025-07-23_02h37.28.146,empathy_intonation_perc,2024.2.4,Win32,60.24096386,67c9e12970245699c2237d09,687ed1b7e638a4cbf2f02089,68808287fe38476f55bfaf2d,,,,,,,,,,,,,19,1,,./stim/wavs/puertorican_match_interrogative-total-yn_Ana-lleva-el-abrigo.wav,,,,,,,,,,,,,,,,,,,,,,300.8211,303.3067,1,1,1.9584,,0,21,21,18,1,1,puertorican,,,,,,,,,,,,,,,,,,,,,,,,,,,,,,,,,,,,,,,,,,,,,,,,,,,,,,,,
,,,,,,,,,67c9e12970245699c2237d09,mexican,13 or older,"no, only English or Spanish",no,2025-07-23_02h37.28.146,empathy_intonation_perc,2024.2.4,Win32,60.24096386,67c9e12970245699c2237d09,687ed1b7e638a4cbf2f02089,68808287fe38476f55bfaf2d,,,,,,,,,,,,,58,0,,./stim/wavs/mexican_match_declarative-broad-focus_Daniel-iba-a-Bolivia.wav,,,,,,,,,,,,,,,,,,,,,,303.3086,305.8736,0,1,2.0351,,0,22,22,57,1,0,mexican,,,,,,,,,,,,,,,,,,,,,,,,,,,,,,,,,,,,,,,,,,,,,,,,,,,,,,,,
,,,,,,,,,67c9e12970245699c2237d09,mexican,13 or older,"no, only English or Spanish",no,2025-07-23_02h37.28.146,empathy_intonation_perc,2024.2.4,Win32,60.24096386,67c9e12970245699c2237d09,687ed1b7e638a4cbf2f02089,68808287fe38476f55bfaf2d,,,,,,,,,,,,,38,1,,./stim/wavs/mexican_mismatch_interrogative-total-yn_Mi-novio-viene-del-lago.wav,,,,,,,,,,,,,,,,,,,,,,305.8745,308.5429,1,1,2.1394,,0,23,23,37,1,0,mexican,,,,,,,,,,,,,,,,,,,,,,,,,,,,,,,,,,,,,,,,,,,,,,,,,,,,,,,,
,,,,,,,,,67c9e12970245699c2237d09,mexican,13 or older,"no, only English or Spanish",no,2025-07-23_02h37.28.146,empathy_intonation_perc,2024.2.4,Win32,60.24096386,67c9e12970245699c2237d09,687ed1b7e638a4cbf2f02089,68808287fe38476f55bfaf2d,,,,,,,,,,,,,80,0,,./stim/wavs/mexican_mismatch_declarative-broad-focus_El-hombre-mira-la-luna.wav,,,,,,,,,,,,,,,,,,,,,,308.544,311.0454,0,1,1.9694,,0,24,24,79,1,0,mexican,,,,,,,,,,,,,,,,,,,,,,,,,,,,,,,,,,,,,,,,,,,,,,,,,,,,,,,,
,,,,,,,,,67c9e12970245699c2237d09,mexican,13 or older,"no, only English or Spanish",no,2025-07-23_02h37.28.146,empathy_intonation_perc,2024.2.4,Win32,60.24096386,67c9e12970245699c2237d09,687ed1b7e638a4cbf2f02089,68808287fe38476f55bfaf2d,,,,,,,,,,,,,79,0,,./stim/wavs/mexican_mismatch_declarative-broad-focus_El-bebe-comia-muy-bien.wav,,,,,,,,,,,,,,,,,,,,,,311.0464,313.5096,0,1,1.9517,,0,25,25,78,1,0,mexican,,,,,,,,,,,,,,,,,,,,,,,,,,,,,,,,,,,,,,,,,,,,,,,,,,,,,,,,
,,,,,,,,,67c9e12970245699c2237d09,mexican,13 or older,"no, only English or Spanish",no,2025-07-23_02h37.28.146,empathy_intonation_perc,2024.2.4,Win32,60.24096386,67c9e12970245699c2237d09,687ed1b7e638a4cbf2f02089,68808287fe38476f55bfaf2d,,,,,,,,,,,,,14,1,,./stim/wavs/mexican_match_interrogative-total-yn_Daniel-iba-a-Bolivia.wav,,,,,,,,,,,,,,,,,,,,,,313.5101,316.1469,1,1,2.1036,,0,26,26,13,1,0,mexican,,,,,,,,,,,,,,,,,,,,,,,,,,,,,,,,,,,,,,,,,,,,,,,,,,,,,,,,
,,,,,,,,,67c9e12970245699c2237d09,mexican,13 or older,"no, only English or Spanish",no,2025-07-23_02h37.28.146,empathy_intonation_perc,2024.2.4,Win32,60.24096386,67c9e12970245699c2237d09,687ed1b7e638a4cbf2f02089,68808287fe38476f55bfaf2d,,,,,,,,,,,,,25,1,,./stim/wavs/castilian_mismatch_interrogative-total-yn_La-maestra-vive-en-Paris.wav,,,,,,,,,,,,,,,,,,,,,,316.1481,319.2875,1,1,2.6038,,0,27,27,24,1,0,castilian,,,,,,,,,,,,,,,,,,,,,,,,,,,,,,,,,,,,,,,,,,,,,,,,,,,,,,,,
,,,,,,,,,67c9e12970245699c2237d09,mexican,13 or older,"no, only English or Spanish",no,2025-07-23_02h37.28.146,empathy_intonation_perc,2024.2.4,Win32,60.24096386,67c9e12970245699c2237d09,687ed1b7e638a4cbf2f02089,68808287fe38476f55bfaf2d,,,,,,,,,,,,,51,0,,./stim/wavs/cuban_match_declarative-broad-focus_Ana-lleva-el-abrigo.wav,,,,,,,,,,,,,,,,,,,,,,319.2905,322.0398,0,1,2.2146,,0,28,28,50,1,0,cuban,,,,,,,,,,,,,,,,,,,,,,,,,,,,,,,,,,,,,,,,,,,,,,,,,,,,,,,,
,,,,,,,,,67c9e12970245699c2237d09,mexican,13 or older,"no, only English or Spanish",no,2025-07-23_02h37.28.146,empathy_intonation_perc,2024.2.4,Win32,60.24096386,67c9e12970245699c2237d09,687ed1b7e638a4cbf2f02089,68808287fe38476f55bfaf2d,,,,,,,,,,,,,82,0,,./stim/wavs/mexican_mismatch_declarative-broad-focus_Mi-novio-viene-del-lago.wav,,,,,,,,,,,,,,,,,,,,,,322.0407,324.5425,0,1,1.9703,,0,29,29,81,1,0,mexican,,,,,,,,,,,,,,,,,,,,,,,,,,,,,,,,,,,,,,,,,,,,,,,,,,,,,,,,
,,,,,,,,,67c9e12970245699c2237d09,mexican,13 or older,"no, only English or Spanish",no,2025-07-23_02h37.28.146,empathy_intonation_perc,2024.2.4,Win32,60.24096386,67c9e12970245699c2237d09,687ed1b7e638a4cbf2f02089,68808287fe38476f55bfaf2d,,,,,,,,,,,,,78,0,,./stim/wavs/cuban_mismatch_declarative-broad-focus_Mi-tia-odia-la-lluvia.wav,,,,,,,,,,,,,,,,,,,,,,324.5437,327.2395,0,1,2.1694,,0,30,30,77,1,0,cuban,,,,,,,,,,,,,,,,,,,,,,,,,,,,,,,,,,,,,,,,,,,,,,,,,,,,,,,,
,,,,,,,,,67c9e12970245699c2237d09,mexican,13 or older,"no, only English or Spanish",no,2025-07-23_02h37.28.146,empathy_intonation_perc,2024.2.4,Win32,60.24096386,67c9e12970245699c2237d09,687ed1b7e638a4cbf2f02089,68808287fe38476f55bfaf2d,,,,,,,,,,,,,62,0,,./stim/wavs/mexican_match_declarative-broad-focus_Marta-abre-el-regalo.wav,,,,,,,,,,,,,,,,,,,,,,327.24,329.6255,0,1,1.8696,,0,31,31,61,1,0,mexican,,,,,,,,,,,,,,,,,,,,,,,,,,,,,,,,,,,,,,,,,,,,,,,,,,,,,,,,
,,,,,,,,,67c9e12970245699c2237d09,mexican,13 or older,"no, only English or Spanish",no,2025-07-23_02h37.28.146,empathy_intonation_perc,2024.2.4,Win32,60.24096386,67c9e12970245699c2237d09,687ed1b7e638a4cbf2f02089,68808287fe38476f55bfaf2d,,,,,,,,,,,,,30,1,,./stim/wavs/cuban_mismatch_interrogative-total-yn_El-hombre-mira-la-luna.wav,,,,,,,,,,,,,,,,,,,,,,329.626,332.0108,1,1,1.8523,,0,32,32,29,1,1,cuban,,,,,,,,,,,,,,,,,,,,,,,,,,,,,,,,,,,,,,,,,,,,,,,,,,,,,,,,
,,,,,,,,,67c9e12970245699c2237d09,mexican,13 or older,"no, only English or Spanish",no,2025-07-23_02h37.28.146,empathy_intonation_perc,2024.2.4,Win32,60.24096386,67c9e12970245699c2237d09,687ed1b7e638a4cbf2f02089,68808287fe38476f55bfaf2d,,,,,,,,,,,,,15,1,,./stim/wavs/mexican_match_interrogative-total-yn_David-leia-el-libro.wav,,,,,,,,,,,,,,,,,,,,,,332.0113,334.4973,1,1,1.9528,,0,33,33,14,1,0,mexican,,,,,,,,,,,,,,,,,,,,,,,,,,,,,,,,,,,,,,,,,,,,,,,,,,,,,,,,
,,,,,,,,,67c9e12970245699c2237d09,mexican,13 or older,"no, only English or Spanish",no,2025-07-23_02h37.28.146,empathy_intonation_perc,2024.2.4,Win32,60.24096386,67c9e12970245699c2237d09,687ed1b7e638a4cbf2f02089,68808287fe38476f55bfaf2d,,,,,,,,,,,,,53,0,,./stim/wavs/cuban_match_declarative-broad-focus_Manuela-vende-el-carro.wav,,,,,,,,,,,,,,,,,,,,,,334.498,336.9388,0,1,1.9244,,0,34,34,52,1,0,cuban,,,,,,,,,,,,,,,,,,,,,,,,,,,,,,,,,,,,,,,,,,,,,,,,,,,,,,,,
,,,,,,,,,67c9e12970245699c2237d09,mexican,13 or older,"no, only English or Spanish",no,2025-07-23_02h37.28.146,empathy_intonation_perc,2024.2.4,Win32,60.24096386,67c9e12970245699c2237d09,687ed1b7e638a4cbf2f02089,68808287fe38476f55bfaf2d,,,,,,,,,,,,,54,0,,./stim/wavs/cuban_match_declarative-broad-focus_Maria-bebe-el-vino.wav,,,,,,,,,,,,,,,,,,,,,,336.9409,339.2402,0,1,1.7684,,0,35,35,53,1,0,cuban,,,,,,,,,,,,,,,,,,,,,,,,,,,,,,,,,,,,,,,,,,,,,,,,,,,,,,,,
,,,,,,,,,67c9e12970245699c2237d09,mexican,13 or older,"no, only English or Spanish",no,2025-07-23_02h37.28.146,empathy_intonation_perc,2024.2.4,Win32,60.24096386,67c9e12970245699c2237d09,687ed1b7e638a4cbf2f02089,68808287fe38476f55bfaf2d,,,,,,,,,,,,,2,1,,./stim/wavs/castilian_match_interrogative-total-yn_Emilio-ama-la-marcha.wav,,,,,,,,,,,,,,,,,,,,,,339.2411,341.8595,1,1,2.086,,0,36,36,1,1,0,castilian,,,,,,,,,,,,,,,,,,,,,,,,,,,,,,,,,,,,,,,,,,,,,,,,,,,,,,,,
,,,,,,,,,67c9e12970245699c2237d09,mexican,13 or older,"no, only English or Spanish",no,2025-07-23_02h37.28.146,empathy_intonation_perc,2024.2.4,Win32,60.24096386,67c9e12970245699c2237d09,687ed1b7e638a4cbf2f02089,68808287fe38476f55bfaf2d,,,,,,,,,,,,,40,1,,./stim/wavs/puertorican_mismatch_interrogative-total-yn_El-hombre-mira-la-luna.wav,,,,,,,,,,,,,,,,,,,,,,341.8603,344.3288,0,0,1.9357,,0,37,37,39,1,1,puertorican,,,,,,,,,,,,,,,,,,,,,,,,,,,,,,,,,,,,,,,,,,,,,,,,,,,,,,,,
,,,,,,,,,67c9e12970245699c2237d09,mexican,13 or older,"no, only English or Spanish",no,2025-07-23_02h37.28.146,empathy_intonation_perc,2024.2.4,Win32,60.24096386,67c9e12970245699c2237d09,687ed1b7e638a4cbf2f02089,68808287fe38476f55bfaf2d,,,,,,,,,,,,,46,0,,./stim/wavs/castilian_match_declarative-broad-focus_Emilio-ama-la-marcha.wav,,,,,,,,,,,,,,,,,,,,,,344.3298,347.1315,0,1,2.2693,,0,38,38,45,1,0,castilian,,,,,,,,,,,,,,,,,,,,,,,,,,,,,,,,,,,,,,,,,,,,,,,,,,,,,,,,
,,,,,,,,,67c9e12970245699c2237d09,mexican,13 or older,"no, only English or Spanish",no,2025-07-23_02h37.28.146,empathy_intonation_perc,2024.2.4,Win32,60.24096386,67c9e12970245699c2237d09,687ed1b7e638a4cbf2f02089,68808287fe38476f55bfaf2d,,,,,,,,,,,,,44,1,,./stim/wavs/puertorican_mismatch_interrogative-total-yn_Mi-madre-come-la-fruta.wav,,,,,,,,,,,,,,,,,,,,,,347.1323,349.6936,0,0,2.0484,,0,39,39,43,1,1,puertorican,,,,,,,,,,,,,,,,,,,,,,,,,,,,,,,,,,,,,,,,,,,,,,,,,,,,,,,,
,,,,,,,,,67c9e12970245699c2237d09,mexican,13 or older,"no, only English or Spanish",no,2025-07-23_02h37.28.146,empathy_intonation_perc,2024.2.4,Win32,60.24096386,67c9e12970245699c2237d09,687ed1b7e638a4cbf2f02089,68808287fe38476f55bfaf2d,,,,,,,,,,,,,57,0,,./stim/wavs/mexican_match_declarative-broad-focus_Ana-lleva-el-abrigo.wav,,,,,,,,,,,,,,,,,,,,,,349.695,352.0531,0,1,1.8197,,0,40,40,56,1,0,mexican,,,,,,,,,,,,,,,,,,,,,,,,,,,,,,,,,,,,,,,,,,,,,,,,,,,,,,,,
,,,,,,,,,67c9e12970245699c2237d09,mexican,13 or older,"no, only English or Spanish",no,2025-07-23_02h37.28.146,empathy_intonation_perc,2024.2.4,Win32,60.24096386,67c9e12970245699c2237d09,687ed1b7e638a4cbf2f02089,68808287fe38476f55bfaf2d,,,,,,,,,,,,,27,1,,./stim/wavs/castilian_mismatch_interrogative-total-yn_Mi-madre-come-la-fruta.wav,,,,,,,,,,,,,,,,,,,,,,352.054,354.773,1,1,2.1909,,0,41,41,26,1,0,castilian,,,,,,,,,,,,,,,,,,,,,,,,,,,,,,,,,,,,,,,,,,,,,,,,,,,,,,,,
,,,,,,,,,67c9e12970245699c2237d09,mexican,13 or older,"no, only English or Spanish",no,2025-07-23_02h37.28.146,empathy_intonation_perc,2024.2.4,Win32,60.24096386,67c9e12970245699c2237d09,687ed1b7e638a4cbf2f02089,68808287fe38476f55bfaf2d,,,,,,,,,,,,,11,1,,./stim/wavs/cuban_match_interrogative-total-yn_Mariano-habla-del-tiempo.wav,,,,,,,,,,,,,,,,,,,,,,354.7754,357.8091,0,0,2.5028,,0,42,42,10,1,1,cuban,,,,,,,,,,,,,,,,,,,,,,,,,,,,,,,,,,,,,,,,,,,,,,,,,,,,,,,,
,,,,,,,,,67c9e12970245699c2237d09,mexican,13 or older,"no, only English or Spanish",no,2025-07-23_02h37.28.146,empathy_intonation_perc,2024.2.4,Win32,60.24096386,67c9e12970245699c2237d09,687ed1b7e638a4cbf2f02089,68808287fe38476f55bfaf2d,,,,,,,,,,,,,24,1,,./stim/wavs/puertorican_match_interrogative-total-yn_Maria-bebe-el-vino.wav,,,,,,,,,,,,,,,,,,,,,,357.8098,360.6617,1,1,2.3357,,0,43,43,23,1,1,puertorican,,,,,,,,,,,,,,,,,,,,,,,,,,,,,,,,,,,,,,,,,,,,,,,,,,,,,,,,
,,,,,,,,,67c9e12970245699c2237d09,mexican,13 or older,"no, only English or Spanish",no,2025-07-23_02h37.28.146,empathy_intonation_perc,2024.2.4,Win32,60.24096386,67c9e12970245699c2237d09,687ed1b7e638a4cbf2f02089,68808287fe38476f55bfaf2d,,,,,,,,,,,,,12,1,,./stim/wavs/cuban_match_interrogative-total-yn_Marta-abre-el-regalo.wav,,,,,,,,,,,,,,,,,,,,,,360.6626,363.0808,0,0,1.8892,,0,44,44,11,1,1,cuban,,,,,,,,,,,,,,,,,,,,,,,,,,,,,,,,,,,,,,,,,,,,,,,,,,,,,,,,
,,,,,,,,,67c9e12970245699c2237d09,mexican,13 or older,"no, only English or Spanish",no,2025-07-23_02h37.28.146,empathy_intonation_perc,2024.2.4,Win32,60.24096386,67c9e12970245699c2237d09,687ed1b7e638a4cbf2f02089,68808287fe38476f55bfaf2d,,,,,,,,,,,,,7,1,,./stim/wavs/cuban_match_interrogative-total-yn_Ana-lleva-el-abrigo.wav,,,,,,,,,,,,,,,,,,,,,,363.0817,365.5107,0,0,1.902,,0,45,45,6,1,1,cuban,,,,,,,,,,,,,,,,,,,,,,,,,,,,,,,,,,,,,,,,,,,,,,,,,,,,,,,,
,,,,,,,,,67c9e12970245699c2237d09,mexican,13 or older,"no, only English or Spanish",no,2025-07-23_02h37.28.146,empathy_intonation_perc,2024.2.4,Win32,60.24096386,67c9e12970245699c2237d09,687ed1b7e638a4cbf2f02089,68808287fe38476f55bfaf2d,,,,,,,,,,,,,64,0,,./stim/wavs/puertorican_match_declarative-broad-focus_Daniel-iba-a-Bolivia.wav,,,,,,,,,,,,,,,,,,,,,,365.5113,367.9692,0,1,1.92,,0,46,46,63,1,0,puertorican,,,,,,,,,,,,,,,,,,,,,,,,,,,,,,,,,,,,,,,,,,,,,,,,,,,,,,,,
,,,,,,,,,67c9e12970245699c2237d09,mexican,13 or older,"no, only English or Spanish",no,2025-07-23_02h37.28.146,empathy_intonation_perc,2024.2.4,Win32,60.24096386,67c9e12970245699c2237d09,687ed1b7e638a4cbf2f02089,68808287fe38476f55bfaf2d,,,,,,,,,,,,,4,1,,./stim/wavs/castilian_match_interrogative-total-yn_Maria-bebe-el-vino.wav,,,,,,,,,,,,,,,,,,,,,,367.97,370.363,1,1,1.85,,0,47,47,3,1,0,castilian,,,,,,,,,,,,,,,,,,,,,,,,,,,,,,,,,,,,,,,,,,,,,,,,,,,,,,,,
,,,,,,,,,67c9e12970245699c2237d09,mexican,13 or older,"no, only English or Spanish",no,2025-07-23_02h37.28.146,empathy_intonation_perc,2024.2.4,Win32,60.24096386,67c9e12970245699c2237d09,687ed1b7e638a4cbf2f02089,68808287fe38476f55bfaf2d,,,,,,,,,,,,,63,0,,./stim/wavs/puertorican_match_declarative-broad-focus_Ana-lleva-el-abrigo.wav,,,,,,,,,,,,,,,,,,,,,,370.3637,372.8238,0,1,1.936,,0,48,48,62,1,0,puertorican,,,,,,,,,,,,,,,,,,,,,,,,,,,,,,,,,,,,,,,,,,,,,,,,,,,,,,,,
,,,,,,,,,67c9e12970245699c2237d09,mexican,13 or older,"no, only English or Spanish",no,2025-07-23_02h37.28.146,empathy_intonation_perc,2024.2.4,Win32,60.24096386,67c9e12970245699c2237d09,687ed1b7e638a4cbf2f02089,68808287fe38476f55bfaf2d,,,,,,,,,,,,,48,0,,./stim/wavs/castilian_match_declarative-broad-focus_Maria-bebe-el-vino.wav,,,,,,,,,,,,,,,,,,,,,,372.8247,375.3096,1,0,1.9525,,0,49,49,47,1,0,castilian,,,,,,,,,,,,,,,,,,,,,,,,,,,,,,,,,,,,,,,,,,,,,,,,,,,,,,,,
,,,,,,,,,67c9e12970245699c2237d09,mexican,13 or older,"no, only English or Spanish",no,2025-07-23_02h37.28.146,empathy_intonation_perc,2024.2.4,Win32,60.24096386,67c9e12970245699c2237d09,687ed1b7e638a4cbf2f02089,68808287fe38476f55bfaf2d,,,,,,,,,,,,,72,0,,./stim/wavs/castilian_mismatch_declarative-broad-focus_Mi-novio-viene-del-lago.wav,,,,,,,,,,,,,,,,,,,,,,375.3105,377.9963,0,1,2.1736,,0,50,50,71,1,0,castilian,,,,,,,,,,,,,,,,,,,,,,,,,,,,,,,,,,,,,,,,,,,,,,,,,,,,,,,,
,,,,,,,,,67c9e12970245699c2237d09,mexican,13 or older,"no, only English or Spanish",no,2025-07-23_02h37.28.146,empathy_intonation_perc,2024.2.4,Win32,60.24096386,67c9e12970245699c2237d09,687ed1b7e638a4cbf2f02089,68808287fe38476f55bfaf2d,,,,,,,,,,,,,22,1,,./stim/wavs/puertorican_match_interrogative-total-yn_Emilio-ama-la-marcha.wav,,,,,,,,,,,,,,,,,,,,,,377.997,380.9603,0,0,2.4361,,0,51,51,21,1,1,puertorican,,,,,,,,,,,,,,,,,,,,,,,,,,,,,,,,,,,,,,,,,,,,,,,,,,,,,,,,
,,,,,,,,,67c9e12970245699c2237d09,mexican,13 or older,"no, only English or Spanish",no,2025-07-23_02h37.28.146,empathy_intonation_perc,2024.2.4,Win32,60.24096386,67c9e12970245699c2237d09,687ed1b7e638a4cbf2f02089,68808287fe38476f55bfaf2d,,,,,,,,,,,,,18,1,,./stim/wavs/mexican_match_interrogative-total-yn_Marta-abre-el-regalo.wav,,,,,,,,,,,,,,,,,,,,,,380.9611,383.4845,1,1,2.0026,,0,52,52,17,1,0,mexican,,,,,,,,,,,,,,,,,,,,,,,,,,,,,,,,,,,,,,,,,,,,,,,,,,,,,,,,
,,,,,,,,,67c9e12970245699c2237d09,mexican,13 or older,"no, only English or Spanish",no,2025-07-23_02h37.28.146,empathy_intonation_perc,2024.2.4,Win32,60.24096386,67c9e12970245699c2237d09,687ed1b7e638a4cbf2f02089,68808287fe38476f55bfaf2d,,,,,,,,,,,,,16,1,,./stim/wavs/mexican_match_interrogative-total-yn_Emilio-ama-la-marcha.wav,,,,,,,,,,,,,,,,,,,,,,383.4854,386.0419,1,1,2.0459,,0,53,53,15,1,0,mexican,,,,,,,,,,,,,,,,,,,,,,,,,,,,,,,,,,,,,,,,,,,,,,,,,,,,,,,,
,,,,,,,,,67c9e12970245699c2237d09,mexican,13 or older,"no, only English or Spanish",no,2025-07-23_02h37.28.146,empathy_intonation_perc,2024.2.4,Win32,60.24096386,67c9e12970245699c2237d09,687ed1b7e638a4cbf2f02089,68808287fe38476f55bfaf2d,,,,,,,,,,,,,32,1,,./stim/wavs/cuban_mismatch_interrogative-total-yn_Mi-madre-come-la-fruta.wav,,,,,,,,,,,,,,,,,,,,,,386.0425,388.8402,0,0,2.2698,,0,54,54,31,1,1,cuban,,,,,,,,,,,,,,,,,,,,,,,,,,,,,,,,,,,,,,,,,,,,,,,,,,,,,,,,
,,,,,,,,,67c9e12970245699c2237d09,mexican,13 or older,"no, only English or Spanish",no,2025-07-23_02h37.28.146,empathy_intonation_perc,2024.2.4,Win32,60.24096386,67c9e12970245699c2237d09,687ed1b7e638a4cbf2f02089,68808287fe38476f55bfaf2d,,,,,,,,,,,,,21,1,,./stim/wavs/puertorican_match_interrogative-total-yn_David-leia-el-libro.wav,,,,,,,,,,,,,,,,,,,,,,388.8413,391.4259,0,0,2.0521,,0,55,55,20,1,1,puertorican,,,,,,,,,,,,,,,,,,,,,,,,,,,,,,,,,,,,,,,,,,,,,,,,,,,,,,,,
,,,,,,,,,67c9e12970245699c2237d09,mexican,13 or older,"no, only English or Spanish",no,2025-07-23_02h37.28.146,empathy_intonation_perc,2024.2.4,Win32,60.24096386,67c9e12970245699c2237d09,687ed1b7e638a4cbf2f02089,68808287fe38476f55bfaf2d,,,,,,,,,,,,,8,1,,./stim/wavs/cuban_match_interrogative-total-yn_Daniel-iba-a-Bolivia.wav,,,,,,,,,,,,,,,,,,,,,,391.4269,393.9958,1,1,2.0389,,0,56,56,7,1,1,cuban,,,,,,,,,,,,,,,,,,,,,,,,,,,,,,,,,,,,,,,,,,,,,,,,,,,,,,,,
,,,,,,,,,67c9e12970245699c2237d09,mexican,13 or older,"no, only English or Spanish",no,2025-07-23_02h37.28.146,empathy_intonation_perc,2024.2.4,Win32,60.24096386,67c9e12970245699c2237d09,687ed1b7e638a4cbf2f02089,68808287fe38476f55bfaf2d,,,,,,,,,,,,,28,1,,./stim/wavs/castilian_mismatch_interrogative-total-yn_Mi-novio-viene-del-lago.wav,,,,,,,,,,,,,,,,,,,,,,393.9974,396.6812,1,1,2.1521,,0,57,57,27,1,0,castilian,,,,,,,,,,,,,,,,,,,,,,,,,,,,,,,,,,,,,,,,,,,,,,,,,,,,,,,,
,,,,,,,,,67c9e12970245699c2237d09,mexican,13 or older,"no, only English or Spanish",no,2025-07-23_02h37.28.146,empathy_intonation_perc,2024.2.4,Win32,60.24096386,67c9e12970245699c2237d09,687ed1b7e638a4cbf2f02089,68808287fe38476f55bfaf2d,,,,,,,,,,,,,71,0,,./stim/wavs/castilian_mismatch_declarative-broad-focus_La-nina-lava-el-plato.wav,,,,,,,,,,,,,,,,,,,,,,396.6821,399.5172,0,1,2.3181,,0,58,58,70,1,0,castilian,,,,,,,,,,,,,,,,,,,,,,,,,,,,,,,,,,,,,,,,,,,,,,,,,,,,,,,,
,,,,,,,,,67c9e12970245699c2237d09,mexican,13 or older,"no, only English or Spanish",no,2025-07-23_02h37.28.146,empathy_intonation_perc,2024.2.4,Win32,60.24096386,67c9e12970245699c2237d09,687ed1b7e638a4cbf2f02089,68808287fe38476f55bfaf2d,,,,,,,,,,,,,73,0,,./stim/wavs/castilian_mismatch_declarative-broad-focus_Mi-tia-odia-la-lluvia.wav,,,,,,,,,,,,,,,,,,,,,,399.5181,402.1206,0,1,2.0701,,0,59,59,72,1,0,castilian,,,,,,,,,,,,,,,,,,,,,,,,,,,,,,,,,,,,,,,,,,,,,,,,,,,,,,,,
,,,,,,,,,67c9e12970245699c2237d09,mexican,13 or older,"no, only English or Spanish",no,2025-07-23_02h37.28.146,empathy_intonation_perc,2024.2.4,Win32,60.24096386,67c9e12970245699c2237d09,687ed1b7e638a4cbf2f02089,68808287fe38476f55bfaf2d,,,,,,,,,,,,,59,0,,./stim/wavs/mexican_match_declarative-broad-focus_David-leia-el-libro.wav,,,,,,,,,,,,,,,,,,,,,,402.1219,404.7899,0,1,2.1374,,0,60,60,58,1,0,mexican,,,,,,,,,,,,,,,,,,,,,,,,,,,,,,,,,,,,,,,,,,,,,,,,,,,,,,,,
,,,,,,,,,67c9e12970245699c2237d09,mexican,13 or older,"no, only English or Spanish",no,2025-07-23_02h37.28.146,empathy_intonation_perc,2024.2.4,Win32,60.24096386,67c9e12970245699c2237d09,687ed1b7e638a4cbf2f02089,68808287fe38476f55bfaf2d,,,,,,,,,,,,,75,0,,./stim/wavs/cuban_mismatch_declarative-broad-focus_El-hombre-mira-la-luna.wav,,,,,,,,,,,,,,,,,,,,,,404.7909,407.0415,0,1,1.7191,,0,61,61,74,1,0,cuban,,,,,,,,,,,,,,,,,,,,,,,,,,,,,,,,,,,,,,,,,,,,,,,,,,,,,,,,
,,,,,,,,,67c9e12970245699c2237d09,mexican,13 or older,"no, only English or Spanish",no,2025-07-23_02h37.28.146,empathy_intonation_perc,2024.2.4,Win32,60.24096386,67c9e12970245699c2237d09,687ed1b7e638a4cbf2f02089,68808287fe38476f55bfaf2d,,,,,,,,,,,,,6,1,,./stim/wavs/castilian_match_interrogative-total-yn_Marta-abre-el-regalo.wav,,,,,,,,,,,,,,,,,,,,,,407.0423,409.7107,1,1,2.1342,,0,62,62,5,1,0,castilian,,,,,,,,,,,,,,,,,,,,,,,,,,,,,,,,,,,,,,,,,,,,,,,,,,,,,,,,
,,,,,,,,,67c9e12970245699c2237d09,mexican,13 or older,"no, only English or Spanish",no,2025-07-23_02h37.28.146,empathy_intonation_perc,2024.2.4,Win32,60.24096386,67c9e12970245699c2237d09,687ed1b7e638a4cbf2f02089,68808287fe38476f55bfaf2d,,,,,,,,,,,,,49,0,,./stim/wavs/castilian_match_declarative-broad-focus_Mariano-habla-del-tiempo.wav,,,,,,,,,,,,,,,,,,,,,,409.7116,412.2807,0,1,2.0536,,0,63,63,48,1,0,castilian,,,,,,,,,,,,,,,,,,,,,,,,,,,,,,,,,,,,,,,,,,,,,,,,,,,,,,,,
,,,,,,,,,67c9e12970245699c2237d09,mexican,13 or older,"no, only English or Spanish",no,2025-07-23_02h37.28.146,empathy_intonation_perc,2024.2.4,Win32,60.24096386,67c9e12970245699c2237d09,687ed1b7e638a4cbf2f02089,68808287fe38476f55bfaf2d,,,,,,,,,,,,,45,0,,./stim/wavs/castilian_match_declarative-broad-focus_David-leia-el-libro.wav,,,,,,,,,,,,,,,,,,,,,,412.2821,414.9994,0,1,2.1853,,0,64,64,44,1,0,castilian,,,,,,,,,,,,,,,,,,,,,,,,,,,,,,,,,,,,,,,,,,,,,,,,,,,,,,,,
,,,,,,,,,67c9e12970245699c2237d09,mexican,13 or older,"no, only English or Spanish",no,2025-07-23_02h37.28.146,empathy_intonation_perc,2024.2.4,Win32,60.24096386,67c9e12970245699c2237d09,687ed1b7e638a4cbf2f02089,68808287fe38476f55bfaf2d,,,,,,,,,,,,,68,0,,./stim/wavs/puertorican_match_declarative-broad-focus_Maria-bebe-el-vino.wav,,,,,,,,,,,,,,,,,,,,,,415.0003,417.2516,0,1,1.7185,,0,65,65,67,1,0,puertorican,,,,,,,,,,,,,,,,,,,,,,,,,,,,,,,,,,,,,,,,,,,,,,,,,,,,,,,,
,,,,,,,,,67c9e12970245699c2237d09,mexican,13 or older,"no, only English or Spanish",no,2025-07-23_02h37.28.146,empathy_intonation_perc,2024.2.4,Win32,60.24096386,67c9e12970245699c2237d09,687ed1b7e638a4cbf2f02089,68808287fe38476f55bfaf2d,,,,,,,,,,,,,88,0,,./stim/wavs/puertorican_mismatch_declarative-broad-focus_La-nina-lava-el-plato.wav,,,,,,,,,,,,,,,,,,,,,,417.2527,419.5874,0,1,1.8184,,0,66,66,87,1,0,puertorican,,,,,,,,,,,,,,,,,,,,,,,,,,,,,,,,,,,,,,,,,,,,,,,,,,,,,,,,
,,,,,,,,,67c9e12970245699c2237d09,mexican,13 or older,"no, only English or Spanish",no,2025-07-23_02h37.28.146,empathy_intonation_perc,2024.2.4,Win32,60.24096386,67c9e12970245699c2237d09,687ed1b7e638a4cbf2f02089,68808287fe38476f55bfaf2d,,,,,,,,,,,,,67,0,,./stim/wavs/puertorican_match_declarative-broad-focus_Manuela-vende-el-carro.wav,,,,,,,,,,,,,,,,,,,,,,419.5888,422.0899,0,1,1.9689,,0,67,67,66,1,0,puertorican,,,,,,,,,,,,,,,,,,,,,,,,,,,,,,,,,,,,,,,,,,,,,,,,,,,,,,,,
,,,,,,,,,67c9e12970245699c2237d09,mexican,13 or older,"no, only English or Spanish",no,2025-07-23_02h37.28.146,empathy_intonation_perc,2024.2.4,Win32,60.24096386,67c9e12970245699c2237d09,687ed1b7e638a4cbf2f02089,68808287fe38476f55bfaf2d,,,,,,,,,,,,,50,0,,./stim/wavs/castilian_match_declarative-broad-focus_Marta-abre-el-regalo.wav,,,,,,,,,,,,,,,,,,,,,,422.0907,424.7596,0,1,2.1366,,0,68,68,49,1,0,castilian,,,,,,,,,,,,,,,,,,,,,,,,,,,,,,,,,,,,,,,,,,,,,,,,,,,,,,,,
,,,,,,,,,67c9e12970245699c2237d09,mexican,13 or older,"no, only English or Spanish",no,2025-07-23_02h37.28.146,empathy_intonation_perc,2024.2.4,Win32,60.24096386,67c9e12970245699c2237d09,687ed1b7e638a4cbf2f02089,68808287fe38476f55bfaf2d,,,,,,,,,,,,,61,0,,./stim/wavs/mexican_match_declarative-broad-focus_Mariano-habla-del-tiempo.wav,,,,,,,,,,,,,,,,,,,,,,424.7605,427.2456,0,1,1.9525,,0,69,69,60,1,0,mexican,,,,,,,,,,,,,,,,,,,,,,,,,,,,,,,,,,,,,,,,,,,,,,,,,,,,,,,,
,,,,,,,,,67c9e12970245699c2237d09,mexican,13 or older,"no, only English or Spanish",no,2025-07-23_02h37.28.146,empathy_intonation_perc,2024.2.4,Win32,60.24096386,67c9e12970245699c2237d09,687ed1b7e638a4cbf2f02089,68808287fe38476f55bfaf2d,,,,,,,,,,,,,83,0,,./stim/wavs/mexican_mismatch_declarative-broad-focus_Mi-tia-odia-la-lluvia.wav,,,,,,,,,,,,,,,,,,,,,,427.2469,429.7817,0,1,2.004,,0,70,70,82,1,0,mexican,,,,,,,,,,,,,,,,,,,,,,,,,,,,,,,,,,,,,,,,,,,,,,,,,,,,,,,,
,,,,,,,,,67c9e12970245699c2237d09,mexican,13 or older,"no, only English or Spanish",no,2025-07-23_02h37.28.146,empathy_intonation_perc,2024.2.4,Win32,60.24096386,67c9e12970245699c2237d09,687ed1b7e638a4cbf2f02089,68808287fe38476f55bfaf2d,,,,,,,,,,,,,31,1,,./stim/wavs/cuban_mismatch_interrogative-total-yn_El-nino-oye-el-rio.wav,,,,,,,,,,,,,,,,,,,,,,429.7831,432.3339,0,0,2.0197,,0,71,71,30,1,1,cuban,,,,,,,,,,,,,,,,,,,,,,,,,,,,,,,,,,,,,,,,,,,,,,,,,,,,,,,,
,,,,,,,,,67c9e12970245699c2237d09,mexican,13 or older,"no, only English or Spanish",no,2025-07-23_02h37.28.146,empathy_intonation_perc,2024.2.4,Win32,60.24096386,67c9e12970245699c2237d09,687ed1b7e638a4cbf2f02089,68808287fe38476f55bfaf2d,,,,,,,,,,,,,87,0,,./stim/wavs/puertorican_mismatch_declarative-broad-focus_La-maestra-vive-en-Paris.wav,,,,,,,,,,,,,,,,,,,,,,432.3356,435.1531,0,1,2.2856,,0,72,72,86,1,0,puertorican,,,,,,,,,,,,,,,,,,,,,,,,,,,,,,,,,,,,,,,,,,,,,,,,,,,,,,,,
,,,,,,,,,67c9e12970245699c2237d09,mexican,13 or older,"no, only English or Spanish",no,2025-07-23_02h37.28.146,empathy_intonation_perc,2024.2.4,Win32,60.24096386,67c9e12970245699c2237d09,687ed1b7e638a4cbf2f02089,68808287fe38476f55bfaf2d,,,,,,,,,,,,,86,0,,./stim/wavs/puertorican_mismatch_declarative-broad-focus_El-nino-oye-el-rio.wav,,,,,,,,,,,,,,,,,,,,,,435.154,437.6554,0,1,1.9686,,0,73,73,85,1,0,puertorican,,,,,,,,,,,,,,,,,,,,,,,,,,,,,,,,,,,,,,,,,,,,,,,,,,,,,,,,
,,,,,,,,,67c9e12970245699c2237d09,mexican,13 or older,"no, only English or Spanish",no,2025-07-23_02h37.28.146,empathy_intonation_perc,2024.2.4,Win32,60.24096386,67c9e12970245699c2237d09,687ed1b7e638a4cbf2f02089,68808287fe38476f55bfaf2d,,,,,,,,,,,,,36,1,,./stim/wavs/mexican_mismatch_interrogative-total-yn_El-nino-oye-el-rio.wav,,,,,,,,,,,,,,,,,,,,,,437.656,440.0744,0,0,1.9009,,0,74,74,35,1,0,mexican,,,,,,,,,,,,,,,,,,,,,,,,,,,,,,,,,,,,,,,,,,,,,,,,,,,,,,,,
,,,,,,,,,67c9e12970245699c2237d09,mexican,13 or older,"no, only English or Spanish",no,2025-07-23_02h37.28.146,empathy_intonation_perc,2024.2.4,Win32,60.24096386,67c9e12970245699c2237d09,687ed1b7e638a4cbf2f02089,68808287fe38476f55bfaf2d,,,,,,,,,,,,,70,0,,./stim/wavs/castilian_mismatch_declarative-broad-focus_La-maestra-vive-en-Paris.wav,,,,,,,,,,,,,,,,,,,,,,440.0751,442.8771,0,1,2.2849,,0,75,75,69,1,0,castilian,,,,,,,,,,,,,,,,,,,,,,,,,,,,,,,,,,,,,,,,,,,,,,,,,,,,,,,,
,,,,,,,,,67c9e12970245699c2237d09,mexican,13 or older,"no, only English or Spanish",no,2025-07-23_02h37.28.146,empathy_intonation_perc,2024.2.4,Win32,60.24096386,67c9e12970245699c2237d09,687ed1b7e638a4cbf2f02089,68808287fe38476f55bfaf2d,,,,,,,,,,,,,13,1,,./stim/wavs/mexican_match_interrogative-total-yn_Ana-lleva-el-abrigo.wav,,,,,,,,,,,,,,,,,,,,,,442.8779,445.347,0,0,1.9526,,0,76,76,12,1,0,mexican,,,,,,,,,,,,,,,,,,,,,,,,,,,,,,,,,,,,,,,,,,,,,,,,,,,,,,,,
,,,,,,,,,67c9e12970245699c2237d09,mexican,13 or older,"no, only English or Spanish",no,2025-07-23_02h37.28.146,empathy_intonation_perc,2024.2.4,Win32,60.24096386,67c9e12970245699c2237d09,687ed1b7e638a4cbf2f02089,68808287fe38476f55bfaf2d,,,,,,,,,,,,,43,1,,./stim/wavs/puertorican_mismatch_interrogative-total-yn_La-nina-lava-el-plato.wav,,,,,,,,,,,,,,,,,,,,,,445.3488,447.7655,1,1,1.8847,,0,77,77,42,1,1,puertorican,,,,,,,,,,,,,,,,,,,,,,,,,,,,,,,,,,,,,,,,,,,,,,,,,,,,,,,,
,,,,,,,,,67c9e12970245699c2237d09,mexican,13 or older,"no, only English or Spanish",no,2025-07-23_02h37.28.146,empathy_intonation_perc,2024.2.4,Win32,60.24096386,67c9e12970245699c2237d09,687ed1b7e638a4cbf2f02089,68808287fe38476f55bfaf2d,,,,,,,,,,,,,37,1,,./stim/wavs/mexican_mismatch_interrogative-total-yn_La-maestra-vive-en-Paris.wav,,,,,,,,,,,,,,,,,,,,,,447.7664,450.6195,1,1,2.3212,,0,78,78,36,1,0,mexican,,,,,,,,,,,,,,,,,,,,,,,,,,,,,,,,,,,,,,,,,,,,,,,,,,,,,,,,
,,,,,,,,,67c9e12970245699c2237d09,mexican,13 or older,"no, only English or Spanish",no,2025-07-23_02h37.28.146,empathy_intonation_perc,2024.2.4,Win32,60.24096386,67c9e12970245699c2237d09,687ed1b7e638a4cbf2f02089,68808287fe38476f55bfaf2d,,,,,,,,,,,,,41,1,,./stim/wavs/puertorican_mismatch_interrogative-total-yn_El-nino-oye-el-rio.wav,,,,,,,,,,,,,,,,,,,,,,450.6207,452.9707,0,0,1.8188,,0,79,79,40,1,1,puertorican,,,,,,,,,,,,,,,,,,,,,,,,,,,,,,,,,,,,,,,,,,,,,,,,,,,,,,,,
,,,,,,,,,67c9e12970245699c2237d09,mexican,13 or older,"no, only English or Spanish",no,2025-07-23_02h37.28.146,empathy_intonation_perc,2024.2.4,Win32,60.24096386,67c9e12970245699c2237d09,687ed1b7e638a4cbf2f02089,68808287fe38476f55bfaf2d,,,,,,,,,,,,,26,1,,./stim/wavs/castilian_mismatch_interrogative-total-yn_La-nina-lava-el-plato.wav,,,,,,,,,,,,,,,,,,,,,,452.9714,455.6573,1,1,2.1543,,0,80,80,25,1,0,castilian,,,,,,,,,,,,,,,,,,,,,,,,,,,,,,,,,,,,,,,,,,,,,,,,,,,,,,,,
,,,,,,,,,67c9e12970245699c2237d09,mexican,13 or older,"no, only English or Spanish",no,2025-07-23_02h37.28.146,empathy_intonation_perc,2024.2.4,Win32,60.24096386,67c9e12970245699c2237d09,687ed1b7e638a4cbf2f02089,68808287fe38476f55bfaf2d,,,,,,,,,,,,,55,0,,./stim/wavs/cuban_match_declarative-broad-focus_Mariano-habla-del-tiempo.wav,,,,,,,,,,,,,,,,,,,,,,455.6593,458.7103,0,1,2.5216,,0,81,81,54,1,0,cuban,,,,,,,,,,,,,,,,,,,,,,,,,,,,,,,,,,,,,,,,,,,,,,,,,,,,,,,,
,,,,,,,,,67c9e12970245699c2237d09,mexican,13 or older,"no, only English or Spanish",no,2025-07-23_02h37.28.146,empathy_intonation_perc,2024.2.4,Win32,60.24096386,67c9e12970245699c2237d09,687ed1b7e638a4cbf2f02089,68808287fe38476f55bfaf2d,,,,,,,,,,,,,20,1,,./stim/wavs/puertorican_match_interrogative-total-yn_Daniel-iba-a-Bolivia.wav,,,,,,,,,,,,,,,,,,,,,,458.7116,461.6128,1,1,2.3678,,0,82,82,19,1,1,puertorican,,,,,,,,,,,,,,,,,,,,,,,,,,,,,,,,,,,,,,,,,,,,,,,,,,,,,,,,
,,,,,,,,,67c9e12970245699c2237d09,mexican,13 or older,"no, only English or Spanish",no,2025-07-23_02h37.28.146,empathy_intonation_perc,2024.2.4,Win32,60.24096386,67c9e12970245699c2237d09,687ed1b7e638a4cbf2f02089,68808287fe38476f55bfaf2d,,,,,,,,,,,,,5,1,,./stim/wavs/castilian_match_interrogative-total-yn_Mariano-habla-del-tiempo.wav,,,,,,,,,,,,,,,,,,,,,,461.6138,464.2989,1,1,2.1504,,0,83,83,4,1,0,castilian,,,,,,,,,,,,,,,,,,,,,,,,,,,,,,,,,,,,,,,,,,,,,,,,,,,,,,,,
,,,,,,,,,67c9e12970245699c2237d09,mexican,13 or older,"no, only English or Spanish",no,2025-07-23_02h37.28.146,empathy_intonation_perc,2024.2.4,Win32,60.24096386,67c9e12970245699c2237d09,687ed1b7e638a4cbf2f02089,68808287fe38476f55bfaf2d,,,,,,,,,,,,,76,0,,./stim/wavs/cuban_mismatch_declarative-broad-focus_La-nina-lava-el-plato.wav,,,,,,,,,,,,,,,,,,,,,,464.2996,466.7509,0,1,1.9344,,0,84,84,75,1,0,cuban,,,,,,,,,,,,,,,,,,,,,,,,,,,,,,,,,,,,,,,,,,,,,,,,,,,,,,,,
,,,,,,,,,67c9e12970245699c2237d09,mexican,13 or older,"no, only English or Spanish",no,2025-07-23_02h37.28.146,empathy_intonation_perc,2024.2.4,Win32,60.24096386,67c9e12970245699c2237d09,687ed1b7e638a4cbf2f02089,68808287fe38476f55bfaf2d,,,,,,,,,,,,,29,1,,./stim/wavs/castilian_mismatch_interrogative-total-yn_Mi-tia-odia-la-lluvia.wav,,,,,,,,,,,,,,,,,,,,,,466.7518,469.4058,1,1,2.1246,,0,85,85,28,1,0,castilian,,,,,,,,,,,,,,,,,,,,,,,,,,,,,,,,,,,,,,,,,,,,,,,,,,,,,,,,
,,,,,,,,,67c9e12970245699c2237d09,mexican,13 or older,"no, only English or Spanish",no,2025-07-23_02h37.28.146,empathy_intonation_perc,2024.2.4,Win32,60.24096386,67c9e12970245699c2237d09,687ed1b7e638a4cbf2f02089,68808287fe38476f55bfaf2d,,,,,,,,,,,,,35,1,,./stim/wavs/mexican_mismatch_interrogative-total-yn_El-hombre-mira-la-luna.wav,,,,,,,,,,,,,,,,,,,,,,469.4067,471.8899,1,1,1.9512,,0,86,86,34,1,0,mexican,,,,,,,,,,,,,,,,,,,,,,,,,,,,,,,,,,,,,,,,,,,,,,,,,,,,,,,,
,,,,,,,,,67c9e12970245699c2237d09,mexican,13 or older,"no, only English or Spanish",no,2025-07-23_02h37.28.146,empathy_intonation_perc,2024.2.4,Win32,60.24096386,67c9e12970245699c2237d09,687ed1b7e638a4cbf2f02089,68808287fe38476f55bfaf2d,,,,,,,,,,,,,47,0,,./stim/wavs/castilian_match_declarative-broad-focus_Manuela-vende-el-carro.wav,,,,,,,,,,,,,,,,,,,,,,471.8908,474.5762,0,1,2.153,,0,87,87,46,1,0,castilian,,,,,,,,,,,,,,,,,,,,,,,,,,,,,,,,,,,,,,,,,,,,,,,,,,,,,,,,
,,,,,,,"Great! Now we will move on. The next task consists of about 60 trials, in each of which you will see a string of letters. 
  
  Your task is to decide whether this is a real Spanish word or not.", (press the spacebar to continue),67c9e12970245699c2237d09,mexican,13 or older,"no, only English or Spanish",no,2025-07-23_02h37.28.146,empathy_intonation_perc,2024.2.4,Win32,60.24096386,67c9e12970245699c2237d09,687ed1b7e638a4cbf2f02089,68808287fe38476f55bfaf2d,,,,,,,,,,,,,,,,,,,,,,,,,,,,,,,,,,,,,,,,,,,,,,,,,,,474.5976,488.2729,0,0,0,0,1,,,,,,,,,,,,,,,,,,,,,,,,,,,,,,,,,,,,,,,,,,,,,,,,,
,,,,,,,"If you think it is an existing Spanish word, you type '1' (for 'REAL'), and if you think it is not an existing Spanish word, you type '0' (for 'FAKE').", (press the spacebar to continue),67c9e12970245699c2237d09,mexican,13 or older,"no, only English or Spanish",no,2025-07-23_02h37.28.146,empathy_intonation_perc,2024.2.4,Win32,60.24096386,67c9e12970245699c2237d09,687ed1b7e638a4cbf2f02089,68808287fe38476f55bfaf2d,,,,,,,,,,,,,,,,,,,,,,,,,,,,,,,,,,,,,,,,,,,,,,,,,,,488.2761,497.7434,0,1,1,1,1,,,,,,,,,,,,,,,,,,,,,,,,,,,,,,,,,,,,,,,,,,,,,,,,,
,,,,,,,"If you are sure that the word exists, even though you don’t know its exact meaning, you may still respond '1' (REAL). 
  
  But if you are not sure if it is an existing word, you should respond '0' (FAKE).
  
  Let's do a practice round...", (press the spacebar to continue),67c9e12970245699c2237d09,mexican,13 or older,"no, only English or Spanish",no,2025-07-23_02h37.28.146,empathy_intonation_perc,2024.2.4,Win32,60.24096386,67c9e12970245699c2237d09,687ed1b7e638a4cbf2f02089,68808287fe38476f55bfaf2d,,,,,,,,,,,,,,,,,,,,,,,,,,,,,,,,,,,,,,,,,,,,,,,,,,,497.7451,504.9862,0,2,2,2,1,,,,,,,,,,,,,,,,,,,,,,,,,,,,,,,,,,,,,,,,,,,,,,,,,
,,,,,,,,,67c9e12970245699c2237d09,mexican,13 or older,"no, only English or Spanish",no,2025-07-23_02h37.28.146,empathy_intonation_perc,2024.2.4,Win32,60.24096386,67c9e12970245699c2237d09,687ed1b7e638a4cbf2f02089,68808287fe38476f55bfaf2d,,,,,,,,,,,,,,0,,,,,,,,,,,,,,,,,,,,,,,,,,,,,,,,,,,,,,,,,,,,505.0025,507.4095,1,0,1.8841,,507.4102,508.4102,0,0,0,0,1,0,depiste,REAL,FAKE,,,,,,,,,,,,,,,,,,,,,,,,,,,,,,,,
,,,,,,,,,67c9e12970245699c2237d09,mexican,13 or older,"no, only English or Spanish",no,2025-07-23_02h37.28.146,empathy_intonation_perc,2024.2.4,Win32,60.24096386,67c9e12970245699c2237d09,687ed1b7e638a4cbf2f02089,68808287fe38476f55bfaf2d,,,,,,,,,,,,,,1,,,,,,,,,,,,,,,,,,,,,,,,,,,,,,,,,,,,,,,,,,,,508.4234,510.8912,1,1,1.9253,,510.8926,511.8798,0,1,1,1,1,0,sí,REAL,FAKE,,,,,,,,,,,,,,,,,,,,,,,,,,,,,,,,
,,,,,,,,,67c9e12970245699c2237d09,mexican,13 or older,"no, only English or Spanish",no,2025-07-23_02h37.28.146,empathy_intonation_perc,2024.2.4,Win32,60.24096386,67c9e12970245699c2237d09,687ed1b7e638a4cbf2f02089,68808287fe38476f55bfaf2d,,,,,,,,,,,,,,0,,,,,,,,,,,,,,,,,,,,,,,,,,,,,,,,,,,,,,,,,,,,511.8842,513.1147,1,0,0.674,,513.1168,514.1109,0,2,2,2,1,0,coné,REAL,FAKE,,,,,,,,,,,,,,,,,,,,,,,,,,,,,,,,
,,,,,,,,,67c9e12970245699c2237d09,mexican,13 or older,"no, only English or Spanish",no,2025-07-23_02h37.28.146,empathy_intonation_perc,2024.2.4,Win32,60.24096386,67c9e12970245699c2237d09,687ed1b7e638a4cbf2f02089,68808287fe38476f55bfaf2d,,,,,,,,,,,,,,0,,,,,,,,,,,,,,,,,,,,,,,,,,,,,,,,,,,,,,,,,,,,514.1125,516.0278,0,1,1.3838,,516.0283,517.0303,0,3,3,3,1,0,calpar,REAL,FAKE,,,,,,,,,,,,,,,,,,,,,,,,,,,,,,,,
,,,,,,,,,67c9e12970245699c2237d09,mexican,13 or older,"no, only English or Spanish",no,2025-07-23_02h37.28.146,empathy_intonation_perc,2024.2.4,Win32,60.24096386,67c9e12970245699c2237d09,687ed1b7e638a4cbf2f02089,68808287fe38476f55bfaf2d,,,,,,,,,,,,,,0,,,,,,,,,,,,,,,,,,,,,,,,,,,,,,,,,,,,,,,,,,,,517.0327,518.7038,0,1,1.1286,,518.7039,519.7042,0,4,4,4,1,0,joten,REAL,FAKE,,,,,,,,,,,,,,,,,,,,,,,,,,,,,,,,
,,,,,,,,,67c9e12970245699c2237d09,mexican,13 or older,"no, only English or Spanish",no,2025-07-23_02h37.28.146,empathy_intonation_perc,2024.2.4,Win32,60.24096386,67c9e12970245699c2237d09,687ed1b7e638a4cbf2f02089,68808287fe38476f55bfaf2d,,,,,,,,,,,,,,1,,,,,,,,,,,,,,,,,,,,,,,,,,,,,,,,,,,,,,,,,,,,519.7064,521.2054,0,0,0.9514,,521.2065,522.2064,0,5,5,5,1,0,sacapuntas,REAL,FAKE,,,,,,,,,,,,,,,,,,,,,,,,,,,,,,,,
,,,,,,,,,67c9e12970245699c2237d09,mexican,13 or older,"no, only English or Spanish",no,2025-07-23_02h37.28.146,empathy_intonation_perc,2024.2.4,Win32,60.24096386,67c9e12970245699c2237d09,687ed1b7e638a4cbf2f02089,68808287fe38476f55bfaf2d,,,,,,,,,,,,,,0,,,,,,,,,,,,,,,,,,,,,,,,,,,,,,,,,,,,,,,,,,,,522.2084,523.7248,1,0,0.9775,,523.725,524.7257,0,6,6,6,1,0,priba,REAL,FAKE,,,,,,,,,,,,,,,,,,,,,,,,,,,,,,,,
,,,,,,,,,67c9e12970245699c2237d09,mexican,13 or older,"no, only English or Spanish",no,2025-07-23_02h37.28.146,empathy_intonation_perc,2024.2.4,Win32,60.24096386,67c9e12970245699c2237d09,687ed1b7e638a4cbf2f02089,68808287fe38476f55bfaf2d,,,,,,,,,,,,,,0,,,,,,,,,,,,,,,,,,,,,,,,,,,,,,,,,,,,,,,,,,,,524.7277,526.4939,0,1,1.2191,,526.495,527.4952,0,7,7,7,1,0,pelasula,REAL,FAKE,,,,,,,,,,,,,,,,,,,,,,,,,,,,,,,,
,,,,,,,,,67c9e12970245699c2237d09,mexican,13 or older,"no, only English or Spanish",no,2025-07-23_02h37.28.146,empathy_intonation_perc,2024.2.4,Win32,60.24096386,67c9e12970245699c2237d09,687ed1b7e638a4cbf2f02089,68808287fe38476f55bfaf2d,,,,,,,,,,,,,,1,,,,,,,,,,,,,,,,,,,,,,,,,,,,,,,,,,,,,,,,,,,,527.4964,528.9649,1,1,0.9301,,528.9652,529.9641,0,8,8,8,1,0,bien,REAL,FAKE,,,,,,,,,,,,,,,,,,,,,,,,,,,,,,,,
,,,,,,,,,67c9e12970245699c2237d09,mexican,13 or older,"no, only English or Spanish",no,2025-07-23_02h37.28.146,empathy_intonation_perc,2024.2.4,Win32,60.24096386,67c9e12970245699c2237d09,687ed1b7e638a4cbf2f02089,68808287fe38476f55bfaf2d,,,,,,,,,,,,,,1,,,,,,,,,,,,,,,,,,,,,,,,,,,,,,,,,,,,,,,,,,,,529.9655,531.5669,1,1,1.0676,,531.5671,532.5673,0,9,9,9,1,0,casa,REAL,FAKE,,,,,,,,,,,,,,,,,,,,,,,,,,,,,,,,
,,,,,,,,,67c9e12970245699c2237d09,mexican,13 or older,"no, only English or Spanish",no,2025-07-23_02h37.28.146,empathy_intonation_perc,2024.2.4,Win32,60.24096386,67c9e12970245699c2237d09,687ed1b7e638a4cbf2f02089,68808287fe38476f55bfaf2d,,,,,,,,,,,,,,0,,,,,,,,,,,,,,,,,,,,,,,,,,,,,,,,,,,,,,,,,,,,532.5694,533.7518,1,0,0.6413,,533.7538,534.7459,0,10,10,10,1,0,lejo,REAL,FAKE,,,,,,,,,,,,,,,,,,,,,,,,,,,,,,,,
,,,,,,,,,67c9e12970245699c2237d09,mexican,13 or older,"no, only English or Spanish",no,2025-07-23_02h37.28.146,empathy_intonation_perc,2024.2.4,Win32,60.24096386,67c9e12970245699c2237d09,687ed1b7e638a4cbf2f02089,68808287fe38476f55bfaf2d,,,,,,,,,,,,,,0,,,,,,,,,,,,,,,,,,,,,,,,,,,,,,,,,,,,,,,,,,,,534.7467,536.333,0,1,1.0525,,536.334,537.3218,0,11,11,11,1,0,pretantas,REAL,FAKE,,,,,,,,,,,,,,,,,,,,,,,,,,,,,,,,
,,,,,,,,,67c9e12970245699c2237d09,mexican,13 or older,"no, only English or Spanish",no,2025-07-23_02h37.28.146,empathy_intonation_perc,2024.2.4,Win32,60.24096386,67c9e12970245699c2237d09,687ed1b7e638a4cbf2f02089,68808287fe38476f55bfaf2d,,,,,,,,,,,,,,,,,,,,,,,,,,,,,,,,,,,,,,,,,,,,,,,,,,,,,,,,,,,,,,,,,,,,,,,,,,,537.3226,540.4758,,,,,,,,,,,,,,,,,,,,,,,,,,,,,,
,,,,,,,,,67c9e12970245699c2237d09,mexican,13 or older,"no, only English or Spanish",no,2025-07-23_02h37.28.146,empathy_intonation_perc,2024.2.4,Win32,60.24096386,67c9e12970245699c2237d09,687ed1b7e638a4cbf2f02089,68808287fe38476f55bfaf2d,,,,,,,,,,,,,,1,,,,,,,,,,,,,,,,,,,,,,,,,,,,,,,,,,,,,,,,,,,,,,,,,,,,,,,,,76,atar,,,,,540.5018,541.9274,1,1,0.8894,,0,0,0,75,1,REAL,FAKE,,,,,,,,,,,,,,,,,
,,,,,,,,,67c9e12970245699c2237d09,mexican,13 or older,"no, only English or Spanish",no,2025-07-23_02h37.28.146,empathy_intonation_perc,2024.2.4,Win32,60.24096386,67c9e12970245699c2237d09,687ed1b7e638a4cbf2f02089,68808287fe38476f55bfaf2d,,,,,,,,,,,,,,0,,,,,,,,,,,,,,,,,,,,,,,,,,,,,,,,,,,,,,,,,,,,,,,,,,,,,,,,,16,abracer,,,,,541.9306,543.2404,1,0,0.7688,,0,1,1,15,1,REAL,FAKE,,,,,,,,,,,,,,,,,
,,,,,,,,,67c9e12970245699c2237d09,mexican,13 or older,"no, only English or Spanish",no,2025-07-23_02h37.28.146,empathy_intonation_perc,2024.2.4,Win32,60.24096386,67c9e12970245699c2237d09,687ed1b7e638a4cbf2f02089,68808287fe38476f55bfaf2d,,,,,,,,,,,,,,1,,,,,,,,,,,,,,,,,,,,,,,,,,,,,,,,,,,,,,,,,,,,,,,,,,,,,,,,,71,polvoriento,,,,,543.2427,545.1752,1,1,1.4008,,0,2,2,70,1,REAL,FAKE,,,,,,,,,,,,,,,,,
,,,,,,,,,67c9e12970245699c2237d09,mexican,13 or older,"no, only English or Spanish",no,2025-07-23_02h37.28.146,empathy_intonation_perc,2024.2.4,Win32,60.24096386,67c9e12970245699c2237d09,687ed1b7e638a4cbf2f02089,68808287fe38476f55bfaf2d,,,,,,,,,,,,,,0,,,,,,,,,,,,,,,,,,,,,,,,,,,,,,,,,,,,,,,,,,,,,,,,,,,,,,,,,30,alardio,,,,,545.1768,547.2108,1,0,1.5032,,0,3,3,29,1,REAL,FAKE,,,,,,,,,,,,,,,,,
,,,,,,,,,67c9e12970245699c2237d09,mexican,13 or older,"no, only English or Spanish",no,2025-07-23_02h37.28.146,empathy_intonation_perc,2024.2.4,Win32,60.24096386,67c9e12970245699c2237d09,687ed1b7e638a4cbf2f02089,68808287fe38476f55bfaf2d,,,,,,,,,,,,,,0,,,,,,,,,,,,,,,,,,,,,,,,,,,,,,,,,,,,,,,,,,,,,,,,,,,,,,,,,4,batillón,,,,,547.2135,548.5953,1,0,0.8494,,0,4,4,3,1,REAL,FAKE,,,,,,,,,,,,,,,,,
,,,,,,,,,67c9e12970245699c2237d09,mexican,13 or older,"no, only English or Spanish",no,2025-07-23_02h37.28.146,empathy_intonation_perc,2024.2.4,Win32,60.24096386,67c9e12970245699c2237d09,687ed1b7e638a4cbf2f02089,68808287fe38476f55bfaf2d,,,,,,,,,,,,,,1,,,,,,,,,,,,,,,,,,,,,,,,,,,,,,,,,,,,,,,,,,,,,,,,,,,,,,,,,81,pozo,,,,,548.5977,549.8678,0,0,0.7246,,0,5,5,80,1,REAL,FAKE,,,,,,,,,,,,,,,,,
,,,,,,,,,67c9e12970245699c2237d09,mexican,13 or older,"no, only English or Spanish",no,2025-07-23_02h37.28.146,empathy_intonation_perc,2024.2.4,Win32,60.24096386,67c9e12970245699c2237d09,687ed1b7e638a4cbf2f02089,68808287fe38476f55bfaf2d,,,,,,,,,,,,,,1,,,,,,,,,,,,,,,,,,,,,,,,,,,,,,,,,,,,,,,,,,,,,,,,,,,,,,,,,28,merodear,,,,,549.8711,551.6364,0,0,1.209,,0,6,6,27,1,REAL,FAKE,,,,,,,,,,,,,,,,,
,,,,,,,,,67c9e12970245699c2237d09,mexican,13 or older,"no, only English or Spanish",no,2025-07-23_02h37.28.146,empathy_intonation_perc,2024.2.4,Win32,60.24096386,67c9e12970245699c2237d09,687ed1b7e638a4cbf2f02089,68808287fe38476f55bfaf2d,,,,,,,,,,,,,,1,,,,,,,,,,,,,,,,,,,,,,,,,,,,,,,,,,,,,,,,,,,,,,,,,,,,,,,,,49,ganar,,,,,551.6387,553.0042,0,0,0.8265,,0,7,7,48,1,REAL,FAKE,,,,,,,,,,,,,,,,,
,,,,,,,,,67c9e12970245699c2237d09,mexican,13 or older,"no, only English or Spanish",no,2025-07-23_02h37.28.146,empathy_intonation_perc,2024.2.4,Win32,60.24096386,67c9e12970245699c2237d09,687ed1b7e638a4cbf2f02089,68808287fe38476f55bfaf2d,,,,,,,,,,,,,,1,,,,,,,,,,,,,,,,,,,,,,,,,,,,,,,,,,,,,,,,,,,,,,,,,,,,,,,,,36,loro,,,,,553.0074,554.2887,1,1,0.7245,,0,8,8,35,1,REAL,FAKE,,,,,,,,,,,,,,,,,
,,,,,,,,,67c9e12970245699c2237d09,mexican,13 or older,"no, only English or Spanish",no,2025-07-23_02h37.28.146,empathy_intonation_perc,2024.2.4,Win32,60.24096386,67c9e12970245699c2237d09,687ed1b7e638a4cbf2f02089,68808287fe38476f55bfaf2d,,,,,,,,,,,,,,0,,,,,,,,,,,,,,,,,,,,,,,,,,,,,,,,,,,,,,,,,,,,,,,,,,,,,,,,,19,brecedad,,,,,554.2917,555.7583,0,1,0.9149,,0,9,9,18,1,REAL,FAKE,,,,,,,,,,,,,,,,,
,,,,,,,,,67c9e12970245699c2237d09,mexican,13 or older,"no, only English or Spanish",no,2025-07-23_02h37.28.146,empathy_intonation_perc,2024.2.4,Win32,60.24096386,67c9e12970245699c2237d09,687ed1b7e638a4cbf2f02089,68808287fe38476f55bfaf2d,,,,,,,,,,,,,,1,,,,,,,,,,,,,,,,,,,,,,,,,,,,,,,,,,,,,,,,,,,,,,,,,,,,,,,,,14,yunque,,,,,555.7606,557.2084,0,0,0.9018,,0,10,10,13,1,REAL,FAKE,,,,,,,,,,,,,,,,,
,,,,,,,,,67c9e12970245699c2237d09,mexican,13 or older,"no, only English or Spanish",no,2025-07-23_02h37.28.146,empathy_intonation_perc,2024.2.4,Win32,60.24096386,67c9e12970245699c2237d09,687ed1b7e638a4cbf2f02089,68808287fe38476f55bfaf2d,,,,,,,,,,,,,,1,,,,,,,,,,,,,,,,,,,,,,,,,,,,,,,,,,,,,,,,,,,,,,,,,,,,,,,,,83,guante,,,,,557.2116,558.3925,1,1,0.6246,,0,11,11,82,1,REAL,FAKE,,,,,,,,,,,,,,,,,
,,,,,,,,,67c9e12970245699c2237d09,mexican,13 or older,"no, only English or Spanish",no,2025-07-23_02h37.28.146,empathy_intonation_perc,2024.2.4,Win32,60.24096386,67c9e12970245699c2237d09,687ed1b7e638a4cbf2f02089,68808287fe38476f55bfaf2d,,,,,,,,,,,,,,0,,,,,,,,,,,,,,,,,,,,,,,,,,,,,,,,,,,,,,,,,,,,,,,,,,,,,,,,,18,arsa,,,,,558.3941,559.6776,1,0,0.7253,,0,12,12,17,1,REAL,FAKE,,,,,,,,,,,,,,,,,
,,,,,,,,,67c9e12970245699c2237d09,mexican,13 or older,"no, only English or Spanish",no,2025-07-23_02h37.28.146,empathy_intonation_perc,2024.2.4,Win32,60.24096386,67c9e12970245699c2237d09,687ed1b7e638a4cbf2f02089,68808287fe38476f55bfaf2d,,,,,,,,,,,,,,1,,,,,,,,,,,,,,,,,,,,,,,,,,,,,,,,,,,,,,,,,,,,,,,,,,,,,,,,,40,alfombra,,,,,559.6799,561.1123,0,0,0.8951,,0,13,13,39,1,REAL,FAKE,,,,,,,,,,,,,,,,,
,,,,,,,,,67c9e12970245699c2237d09,mexican,13 or older,"no, only English or Spanish",no,2025-07-23_02h37.28.146,empathy_intonation_perc,2024.2.4,Win32,60.24096386,67c9e12970245699c2237d09,687ed1b7e638a4cbf2f02089,68808287fe38476f55bfaf2d,,,,,,,,,,,,,,1,,,,,,,,,,,,,,,,,,,,,,,,,,,,,,,,,,,,,,,,,,,,,,,,,,,,,,,,,90,clavel,,,,,561.1147,562.4637,0,0,0.8103,,0,14,14,89,1,REAL,FAKE,,,,,,,,,,,,,,,,,
,,,,,,,,,67c9e12970245699c2237d09,mexican,13 or older,"no, only English or Spanish",no,2025-07-23_02h37.28.146,empathy_intonation_perc,2024.2.4,Win32,60.24096386,67c9e12970245699c2237d09,687ed1b7e638a4cbf2f02089,68808287fe38476f55bfaf2d,,,,,,,,,,,,,,1,,,,,,,,,,,,,,,,,,,,,,,,,,,,,,,,,,,,,,,,,,,,,,,,,,,,,,,,,45,jilguero,,,,,562.4667,563.7151,1,1,0.691,,0,15,15,44,1,REAL,FAKE,,,,,,,,,,,,,,,,,
,,,,,,,,,67c9e12970245699c2237d09,mexican,13 or older,"no, only English or Spanish",no,2025-07-23_02h37.28.146,empathy_intonation_perc,2024.2.4,Win32,60.24096386,67c9e12970245699c2237d09,687ed1b7e638a4cbf2f02089,68808287fe38476f55bfaf2d,,,,,,,,,,,,,,1,,,,,,,,,,,,,,,,,,,,,,,,,,,,,,,,,,,,,,,,,,,,,,,,,,,,,,,,,56,musgo,,,,,563.7192,565.3334,0,0,1.0582,,0,16,16,55,1,REAL,FAKE,,,,,,,,,,,,,,,,,
,,,,,,,,,67c9e12970245699c2237d09,mexican,13 or older,"no, only English or Spanish",no,2025-07-23_02h37.28.146,empathy_intonation_perc,2024.2.4,Win32,60.24096386,67c9e12970245699c2237d09,687ed1b7e638a4cbf2f02089,68808287fe38476f55bfaf2d,,,,,,,,,,,,,,1,,,,,,,,,,,,,,,,,,,,,,,,,,,,,,,,,,,,,,,,,,,,,,,,,,,,,,,,,80,hormiga,,,,,565.3365,566.918,1,1,1.0355,,0,17,17,79,1,REAL,FAKE,,,,,,,,,,,,,,,,,
,,,,,,,,,67c9e12970245699c2237d09,mexican,13 or older,"no, only English or Spanish",no,2025-07-23_02h37.28.146,empathy_intonation_perc,2024.2.4,Win32,60.24096386,67c9e12970245699c2237d09,687ed1b7e638a4cbf2f02089,68808287fe38476f55bfaf2d,,,,,,,,,,,,,,1,,,,,,,,,,,,,,,,,,,,,,,,,,,,,,,,,,,,,,,,,,,,,,,,,,,,,,,,,65,bizcocho,,,,,566.9211,568.7866,1,1,1.3097,,0,18,18,64,1,REAL,FAKE,,,,,,,,,,,,,,,,,
,,,,,,,,,67c9e12970245699c2237d09,mexican,13 or older,"no, only English or Spanish",no,2025-07-23_02h37.28.146,empathy_intonation_perc,2024.2.4,Win32,60.24096386,67c9e12970245699c2237d09,687ed1b7e638a4cbf2f02089,68808287fe38476f55bfaf2d,,,,,,,,,,,,,,0,,,,,,,,,,,,,,,,,,,,,,,,,,,,,,,,,,,,,,,,,,,,,,,,,,,,,,,,,74,cintro,,,,,568.7896,570.0045,1,0,0.6684,,0,19,19,73,1,REAL,FAKE,,,,,,,,,,,,,,,,,
,,,,,,,,,67c9e12970245699c2237d09,mexican,13 or older,"no, only English or Spanish",no,2025-07-23_02h37.28.146,empathy_intonation_perc,2024.2.4,Win32,60.24096386,67c9e12970245699c2237d09,687ed1b7e638a4cbf2f02089,68808287fe38476f55bfaf2d,,,,,,,,,,,,,,0,,,,,,,,,,,,,,,,,,,,,,,,,,,,,,,,,,,,,,,,,,,,,,,,,,,,,,,,,1,terzo,,,,,570.0073,571.4725,0,1,0.9064,,0,20,20,0,1,REAL,FAKE,,,,,,,,,,,,,,,,,
,,,,,,,,,67c9e12970245699c2237d09,mexican,13 or older,"no, only English or Spanish",no,2025-07-23_02h37.28.146,empathy_intonation_perc,2024.2.4,Win32,60.24096386,67c9e12970245699c2237d09,687ed1b7e638a4cbf2f02089,68808287fe38476f55bfaf2d,,,,,,,,,,,,,,1,,,,,,,,,,,,,,,,,,,,,,,,,,,,,,,,,,,,,,,,,,,,,,,,,,,,,,,,,6,tergiversar,,,,,571.4746,573.8746,0,0,1.8513,,0,21,21,5,1,REAL,FAKE,,,,,,,,,,,,,,,,,
,,,,,,,,,67c9e12970245699c2237d09,mexican,13 or older,"no, only English or Spanish",no,2025-07-23_02h37.28.146,empathy_intonation_perc,2024.2.4,Win32,60.24096386,67c9e12970245699c2237d09,687ed1b7e638a4cbf2f02089,68808287fe38476f55bfaf2d,,,,,,,,,,,,,,1,,,,,,,,,,,,,,,,,,,,,,,,,,,,,,,,,,,,,,,,,,,,,,,,,,,,,,,,,48,ladrón,,,,,573.8761,575.0091,1,1,0.5871,,0,22,22,47,1,REAL,FAKE,,,,,,,,,,,,,,,,,
,,,,,,,,,67c9e12970245699c2237d09,mexican,13 or older,"no, only English or Spanish",no,2025-07-23_02h37.28.146,empathy_intonation_perc,2024.2.4,Win32,60.24096386,67c9e12970245699c2237d09,687ed1b7e638a4cbf2f02089,68808287fe38476f55bfaf2d,,,,,,,,,,,,,,1,,,,,,,,,,,,,,,,,,,,,,,,,,,,,,,,,,,,,,,,,,,,,,,,,,,,,,,,,43,canela,,,,,575.0111,576.3773,1,1,0.8233,,0,23,23,42,1,REAL,FAKE,,,,,,,,,,,,,,,,,
,,,,,,,,,67c9e12970245699c2237d09,mexican,13 or older,"no, only English or Spanish",no,2025-07-23_02h37.28.146,empathy_intonation_perc,2024.2.4,Win32,60.24096386,67c9e12970245699c2237d09,687ed1b7e638a4cbf2f02089,68808287fe38476f55bfaf2d,,,,,,,,,,,,,,0,,,,,,,,,,,,,,,,,,,,,,,,,,,,,,,,,,,,,,,,,,,,,,,,,,,,,,,,,82,empirador,,,,,576.3787,578.1291,1,0,1.1922,,0,24,24,81,1,REAL,FAKE,,,,,,,,,,,,,,,,,
,,,,,,,,,67c9e12970245699c2237d09,mexican,13 or older,"no, only English or Spanish",no,2025-07-23_02h37.28.146,empathy_intonation_perc,2024.2.4,Win32,60.24096386,67c9e12970245699c2237d09,687ed1b7e638a4cbf2f02089,68808287fe38476f55bfaf2d,,,,,,,,,,,,,,1,,,,,,,,,,,,,,,,,,,,,,,,,,,,,,,,,,,,,,,,,,,,,,,,,,,,,,,,,57,tacaño,,,,,578.1319,579.4079,1,1,0.7514,,0,25,25,56,1,REAL,FAKE,,,,,,,,,,,,,,,,,
,,,,,,,,,67c9e12970245699c2237d09,mexican,13 or older,"no, only English or Spanish",no,2025-07-23_02h37.28.146,empathy_intonation_perc,2024.2.4,Win32,60.24096386,67c9e12970245699c2237d09,687ed1b7e638a4cbf2f02089,68808287fe38476f55bfaf2d,,,,,,,,,,,,,,0,,,,,,,,,,,,,,,,,,,,,,,,,,,,,,,,,,,,,,,,,,,,,,,,,,,,,,,,,10,antar,,,,,579.4087,580.8423,0,1,0.8911,,0,26,26,9,1,REAL,FAKE,,,,,,,,,,,,,,,,,
,,,,,,,,,67c9e12970245699c2237d09,mexican,13 or older,"no, only English or Spanish",no,2025-07-23_02h37.28.146,empathy_intonation_perc,2024.2.4,Win32,60.24096386,67c9e12970245699c2237d09,687ed1b7e638a4cbf2f02089,68808287fe38476f55bfaf2d,,,,,,,,,,,,,,0,,,,,,,,,,,,,,,,,,,,,,,,,,,,,,,,,,,,,,,,,,,,,,,,,,,,,,,,,33,pauca,,,,,580.8431,582.1222,1,0,0.735,,0,27,27,32,1,REAL,FAKE,,,,,,,,,,,,,,,,,
,,,,,,,,,67c9e12970245699c2237d09,mexican,13 or older,"no, only English or Spanish",no,2025-07-23_02h37.28.146,empathy_intonation_perc,2024.2.4,Win32,60.24096386,67c9e12970245699c2237d09,687ed1b7e638a4cbf2f02089,68808287fe38476f55bfaf2d,,,,,,,,,,,,,,1,,,,,,,,,,,,,,,,,,,,,,,,,,,,,,,,,,,,,,,,,,,,,,,,,,,,,,,,,61,seda,,,,,582.1228,583.351,1,1,0.688,,0,28,28,60,1,REAL,FAKE,,,,,,,,,,,,,,,,,
,,,,,,,,,67c9e12970245699c2237d09,mexican,13 or older,"no, only English or Spanish",no,2025-07-23_02h37.28.146,empathy_intonation_perc,2024.2.4,Win32,60.24096386,67c9e12970245699c2237d09,687ed1b7e638a4cbf2f02089,68808287fe38476f55bfaf2d,,,,,,,,,,,,,,1,,,,,,,,,,,,,,,,,,,,,,,,,,,,,,,,,,,,,,,,,,,,,,,,,,,,,,,,,9,hacha,,,,,583.3535,584.688,1,1,0.8067,,0,29,29,8,1,REAL,FAKE,,,,,,,,,,,,,,,,,
,,,,,,,,,67c9e12970245699c2237d09,mexican,13 or older,"no, only English or Spanish",no,2025-07-23_02h37.28.146,empathy_intonation_perc,2024.2.4,Win32,60.24096386,67c9e12970245699c2237d09,687ed1b7e638a4cbf2f02089,68808287fe38476f55bfaf2d,,,,,,,,,,,,,,1,,,,,,,,,,,,,,,,,,,,,,,,,,,,,,,,,,,,,,,,,,,,,,,,,,,,,,,,,85,laúd,,,,,584.6907,585.8366,1,1,0.595,,0,30,30,84,1,REAL,FAKE,,,,,,,,,,,,,,,,,
,,,,,,,,,67c9e12970245699c2237d09,mexican,13 or older,"no, only English or Spanish",no,2025-07-23_02h37.28.146,empathy_intonation_perc,2024.2.4,Win32,60.24096386,67c9e12970245699c2237d09,687ed1b7e638a4cbf2f02089,68808287fe38476f55bfaf2d,,,,,,,,,,,,,,1,,,,,,,,,,,,,,,,,,,,,,,,,,,,,,,,,,,,,,,,,,,,,,,,,,,,,,,,,11,cenefa,,,,,585.838,587.1616,0,0,0.7845,,0,31,31,10,1,REAL,FAKE,,,,,,,,,,,,,,,,,
,,,,,,,,,67c9e12970245699c2237d09,mexican,13 or older,"no, only English or Spanish",no,2025-07-23_02h37.28.146,empathy_intonation_perc,2024.2.4,Win32,60.24096386,67c9e12970245699c2237d09,687ed1b7e638a4cbf2f02089,68808287fe38476f55bfaf2d,,,,,,,,,,,,,,1,,,,,,,,,,,,,,,,,,,,,,,,,,,,,,,,,,,,,,,,,,,,,,,,,,,,,,,,,86,barato,,,,,587.1636,588.3896,0,0,0.685,,0,32,32,85,1,REAL,FAKE,,,,,,,,,,,,,,,,,
,,,,,,,,,67c9e12970245699c2237d09,mexican,13 or older,"no, only English or Spanish",no,2025-07-23_02h37.28.146,empathy_intonation_perc,2024.2.4,Win32,60.24096386,67c9e12970245699c2237d09,687ed1b7e638a4cbf2f02089,68808287fe38476f55bfaf2d,,,,,,,,,,,,,,1,,,,,,,,,,,,,,,,,,,,,,,,,,,,,,,,,,,,,,,,,,,,,,,,,,,,,,,,,88,acantilado,,,,,588.3927,589.8245,0,0,0.8885,,0,33,33,87,1,REAL,FAKE,,,,,,,,,,,,,,,,,
,,,,,,,,,67c9e12970245699c2237d09,mexican,13 or older,"no, only English or Spanish",no,2025-07-23_02h37.28.146,empathy_intonation_perc,2024.2.4,Win32,60.24096386,67c9e12970245699c2237d09,687ed1b7e638a4cbf2f02089,68808287fe38476f55bfaf2d,,,,,,,,,,,,,,0,,,,,,,,,,,,,,,,,,,,,,,,,,,,,,,,,,,,,,,,,,,,,,,,,,,,,,,,,17,floroso,,,,,589.8278,591.4093,1,0,1.0438,,0,34,34,16,1,REAL,FAKE,,,,,,,,,,,,,,,,,
,,,,,,,,,67c9e12970245699c2237d09,mexican,13 or older,"no, only English or Spanish",no,2025-07-23_02h37.28.146,empathy_intonation_perc,2024.2.4,Win32,60.24096386,67c9e12970245699c2237d09,687ed1b7e638a4cbf2f02089,68808287fe38476f55bfaf2d,,,,,,,,,,,,,,0,,,,,,,,,,,,,,,,,,,,,,,,,,,,,,,,,,,,,,,,,,,,,,,,,,,,,,,,,8,cadeña,,,,,591.4122,592.9608,0,1,1.0022,,0,35,35,7,1,REAL,FAKE,,,,,,,,,,,,,,,,,
,,,,,,,,,67c9e12970245699c2237d09,mexican,13 or older,"no, only English or Spanish",no,2025-07-23_02h37.28.146,empathy_intonation_perc,2024.2.4,Win32,60.24096386,67c9e12970245699c2237d09,687ed1b7e638a4cbf2f02089,68808287fe38476f55bfaf2d,,,,,,,,,,,,,,1,,,,,,,,,,,,,,,,,,,,,,,,,,,,,,,,,,,,,,,,,,,,,,,,,,,,,,,,,68,alegre,,,,,592.9636,594.3117,0,0,0.8063,,0,36,36,67,1,REAL,FAKE,,,,,,,,,,,,,,,,,
,,,,,,,,,67c9e12970245699c2237d09,mexican,13 or older,"no, only English or Spanish",no,2025-07-23_02h37.28.146,empathy_intonation_perc,2024.2.4,Win32,60.24096386,67c9e12970245699c2237d09,687ed1b7e638a4cbf2f02089,68808287fe38476f55bfaf2d,,,,,,,,,,,,,,1,,,,,,,,,,,,,,,,,,,,,,,,,,,,,,,,,,,,,,,,,,,,,,,,,,,,,,,,,25,bisagra,,,,,594.313,595.8301,1,1,0.9578,,0,37,37,24,1,REAL,FAKE,,,,,,,,,,,,,,,,,
,,,,,,,,,67c9e12970245699c2237d09,mexican,13 or older,"no, only English or Spanish",no,2025-07-23_02h37.28.146,empathy_intonation_perc,2024.2.4,Win32,60.24096386,67c9e12970245699c2237d09,687ed1b7e638a4cbf2f02089,68808287fe38476f55bfaf2d,,,,,,,,,,,,,,1,,,,,,,,,,,,,,,,,,,,,,,,,,,,,,,,,,,,,,,,,,,,,,,,,,,,,,,,,37,granuja,,,,,595.8312,597.1647,1,1,0.7986,,0,38,38,36,1,REAL,FAKE,,,,,,,,,,,,,,,,,
,,,,,,,,,67c9e12970245699c2237d09,mexican,13 or older,"no, only English or Spanish",no,2025-07-23_02h37.28.146,empathy_intonation_perc,2024.2.4,Win32,60.24096386,67c9e12970245699c2237d09,687ed1b7e638a4cbf2f02089,68808287fe38476f55bfaf2d,,,,,,,,,,,,,,0,,,,,,,,,,,,,,,,,,,,,,,,,,,,,,,,,,,,,,,,,,,,,,,,,,,,,,,,,58,plaudir,,,,,597.1671,598.4995,0,1,0.7855,,0,39,39,57,1,REAL,FAKE,,,,,,,,,,,,,,,,,
,,,,,,,,,67c9e12970245699c2237d09,mexican,13 or older,"no, only English or Spanish",no,2025-07-23_02h37.28.146,empathy_intonation_perc,2024.2.4,Win32,60.24096386,67c9e12970245699c2237d09,687ed1b7e638a4cbf2f02089,68808287fe38476f55bfaf2d,,,,,,,,,,,,,,1,,,,,,,,,,,,,,,,,,,,,,,,,,,,,,,,,,,,,,,,,,,,,,,,,,,,,,,,,3,pulmones,,,,,598.5032,600.1845,0,0,1.1298,,0,40,40,2,1,REAL,FAKE,,,,,,,,,,,,,,,,,
,,,,,,,,,67c9e12970245699c2237d09,mexican,13 or older,"no, only English or Spanish",no,2025-07-23_02h37.28.146,empathy_intonation_perc,2024.2.4,Win32,60.24096386,67c9e12970245699c2237d09,687ed1b7e638a4cbf2f02089,68808287fe38476f55bfaf2d,,,,,,,,,,,,,,1,,,,,,,,,,,,,,,,,,,,,,,,,,,,,,,,,,,,,,,,,,,,,,,,,,,,,,,,,73,hervidor,,,,,600.1868,601.803,1,1,1.0793,,0,41,41,72,1,REAL,FAKE,,,,,,,,,,,,,,,,,
,,,,,,,,,67c9e12970245699c2237d09,mexican,13 or older,"no, only English or Spanish",no,2025-07-23_02h37.28.146,empathy_intonation_perc,2024.2.4,Win32,60.24096386,67c9e12970245699c2237d09,687ed1b7e638a4cbf2f02089,68808287fe38476f55bfaf2d,,,,,,,,,,,,,,0,,,,,,,,,,,,,,,,,,,,,,,,,,,,,,,,,,,,,,,,,,,,,,,,,,,,,,,,,53,vegada,,,,,601.8052,603.187,0,1,0.8438,,0,42,42,52,1,REAL,FAKE,,,,,,,,,,,,,,,,,
,,,,,,,,,67c9e12970245699c2237d09,mexican,13 or older,"no, only English or Spanish",no,2025-07-23_02h37.28.146,empathy_intonation_perc,2024.2.4,Win32,60.24096386,67c9e12970245699c2237d09,687ed1b7e638a4cbf2f02089,68808287fe38476f55bfaf2d,,,,,,,,,,,,,,1,,,,,,,,,,,,,,,,,,,,,,,,,,,,,,,,,,,,,,,,,,,,,,,,,,,,,,,,,44,cuchara,,,,,603.188,605.2226,1,1,1.5074,,0,43,43,43,1,REAL,FAKE,,,,,,,,,,,,,,,,,
,,,,,,,,,67c9e12970245699c2237d09,mexican,13 or older,"no, only English or Spanish",no,2025-07-23_02h37.28.146,empathy_intonation_perc,2024.2.4,Win32,60.24096386,67c9e12970245699c2237d09,687ed1b7e638a4cbf2f02089,68808287fe38476f55bfaf2d,,,,,,,,,,,,,,1,,,,,,,,,,,,,,,,,,,,,,,,,,,,,,,,,,,,,,,,,,,,,,,,,,,,,,,,,55,nevar,,,,,605.2236,606.457,0,0,0.7106,,0,44,44,54,1,REAL,FAKE,,,,,,,,,,,,,,,,,
,,,,,,,,,67c9e12970245699c2237d09,mexican,13 or older,"no, only English or Spanish",no,2025-07-23_02h37.28.146,empathy_intonation_perc,2024.2.4,Win32,60.24096386,67c9e12970245699c2237d09,687ed1b7e638a4cbf2f02089,68808287fe38476f55bfaf2d,,,,,,,,,,,,,,1,,,,,,,,,,,,,,,,,,,,,,,,,,,,,,,,,,,,,,,,,,,,,,,,,,,,,,,,,7,pésimo,,,,,606.4582,607.6751,1,1,0.6848,,0,45,45,6,1,REAL,FAKE,,,,,,,,,,,,,,,,,
,,,,,,,,,67c9e12970245699c2237d09,mexican,13 or older,"no, only English or Spanish",no,2025-07-23_02h37.28.146,empathy_intonation_perc,2024.2.4,Win32,60.24096386,67c9e12970245699c2237d09,687ed1b7e638a4cbf2f02089,68808287fe38476f55bfaf2d,,,,,,,,,,,,,,0,,,,,,,,,,,,,,,,,,,,,,,,,,,,,,,,,,,,,,,,,,,,,,,,,,,,,,,,,70,temblo,,,,,607.6763,608.9762,0,1,0.7459,,0,46,46,69,1,REAL,FAKE,,,,,,,,,,,,,,,,,
,,,,,,,,,67c9e12970245699c2237d09,mexican,13 or older,"no, only English or Spanish",no,2025-07-23_02h37.28.146,empathy_intonation_perc,2024.2.4,Win32,60.24096386,67c9e12970245699c2237d09,687ed1b7e638a4cbf2f02089,68808287fe38476f55bfaf2d,,,,,,,,,,,,,,1,,,,,,,,,,,,,,,,,,,,,,,,,,,,,,,,,,,,,,,,,,,,,,,,,,,,,,,,,39,torpe,,,,,608.9774,610.0605,0,0,0.5636,,0,47,47,38,1,REAL,FAKE,,,,,,,,,,,,,,,,,
,,,,,,,,,67c9e12970245699c2237d09,mexican,13 or older,"no, only English or Spanish",no,2025-07-23_02h37.28.146,empathy_intonation_perc,2024.2.4,Win32,60.24096386,67c9e12970245699c2237d09,687ed1b7e638a4cbf2f02089,68808287fe38476f55bfaf2d,,,,,,,,,,,,,,1,,,,,,,,,,,,,,,,,,,,,,,,,,,,,,,,,,,,,,,,,,,,,,,,,,,,,,,,,60,matar,,,,,610.0617,611.6456,0,0,1.0511,,0,48,48,59,1,REAL,FAKE,,,,,,,,,,,,,,,,,
,,,,,,,,,67c9e12970245699c2237d09,mexican,13 or older,"no, only English or Spanish",no,2025-07-23_02h37.28.146,empathy_intonation_perc,2024.2.4,Win32,60.24096386,67c9e12970245699c2237d09,687ed1b7e638a4cbf2f02089,68808287fe38476f55bfaf2d,,,,,,,,,,,,,,0,,,,,,,,,,,,,,,,,,,,,,,,,,,,,,,,,,,,,,,,,,,,,,,,,,,,,,,,,66,hacido,,,,,611.6474,613.0804,1,0,0.8848,,0,49,49,65,1,REAL,FAKE,,,,,,,,,,,,,,,,,
,,,,,,,,,67c9e12970245699c2237d09,mexican,13 or older,"no, only English or Spanish",no,2025-07-23_02h37.28.146,empathy_intonation_perc,2024.2.4,Win32,60.24096386,67c9e12970245699c2237d09,687ed1b7e638a4cbf2f02089,68808287fe38476f55bfaf2d,,,,,,,,,,,,,,0,,,,,,,,,,,,,,,,,,,,,,,,,,,,,,,,,,,,,,,,,,,,,,,,,,,,,,,,,32,fatacidad,,,,,613.0819,614.5984,1,0,0.9629,,0,50,50,31,1,REAL,FAKE,,,,,,,,,,,,,,,,,
,,,,,,,,,67c9e12970245699c2237d09,mexican,13 or older,"no, only English or Spanish",no,2025-07-23_02h37.28.146,empathy_intonation_perc,2024.2.4,Win32,60.24096386,67c9e12970245699c2237d09,687ed1b7e638a4cbf2f02089,68808287fe38476f55bfaf2d,,,,,,,,,,,,,,1,,,,,,,,,,,,,,,,,,,,,,,,,,,,,,,,,,,,,,,,,,,,,,,,,,,,,,,,,41,rebuscar,,,,,614.5994,615.8831,0,0,0.7548,,0,51,51,40,1,REAL,FAKE,,,,,,,,,,,,,,,,,
,,,,,,,,,67c9e12970245699c2237d09,mexican,13 or older,"no, only English or Spanish",no,2025-07-23_02h37.28.146,empathy_intonation_perc,2024.2.4,Win32,60.24096386,67c9e12970245699c2237d09,687ed1b7e638a4cbf2f02089,68808287fe38476f55bfaf2d,,,,,,,,,,,,,,1,,,,,,,,,,,,,,,,,,,,,,,,,,,,,,,,,,,,,,,,,,,,,,,,,,,,,,,,,75,yacer,,,,,615.8847,617.2011,0,0,0.7743,,0,52,52,74,1,REAL,FAKE,,,,,,,,,,,,,,,,,
,,,,,,,,,67c9e12970245699c2237d09,mexican,13 or older,"no, only English or Spanish",no,2025-07-23_02h37.28.146,empathy_intonation_perc,2024.2.4,Win32,60.24096386,67c9e12970245699c2237d09,687ed1b7e638a4cbf2f02089,68808287fe38476f55bfaf2d,,,,,,,,,,,,,,1,,,,,,,,,,,,,,,,,,,,,,,,,,,,,,,,,,,,,,,,,,,,,,,,,,,,,,,,,12,asesinato,,,,,617.2023,618.5358,1,1,0.7936,,0,53,53,11,1,REAL,FAKE,,,,,,,,,,,,,,,,,
,,,,,,,,,67c9e12970245699c2237d09,mexican,13 or older,"no, only English or Spanish",no,2025-07-23_02h37.28.146,empathy_intonation_perc,2024.2.4,Win32,60.24096386,67c9e12970245699c2237d09,687ed1b7e638a4cbf2f02089,68808287fe38476f55bfaf2d,,,,,,,,,,,,,,1,,,,,,,,,,,,,,,,,,,,,,,,,,,,,,,,,,,,,,,,,,,,,,,,,,,,,,,,,77,tiburón,,,,,618.5374,619.9206,1,1,0.8266,,0,54,54,76,1,REAL,FAKE,,,,,,,,,,,,,,,,,
,,,,,,,,,67c9e12970245699c2237d09,mexican,13 or older,"no, only English or Spanish",no,2025-07-23_02h37.28.146,empathy_intonation_perc,2024.2.4,Win32,60.24096386,67c9e12970245699c2237d09,687ed1b7e638a4cbf2f02089,68808287fe38476f55bfaf2d,,,,,,,,,,,,,,1,,,,,,,,,,,,,,,,,,,,,,,,,,,,,,,,,,,,,,,,,,,,,,,,,,,,,,,,,91,click the 1 key.,,,,,619.9224,622.0059,1,1,1.5488,,0,55,55,90,1,REAL,FAKE,,,,,,,,,,,,,,,,,
,,,,,,,,,67c9e12970245699c2237d09,mexican,13 or older,"no, only English or Spanish",no,2025-07-23_02h37.28.146,empathy_intonation_perc,2024.2.4,Win32,60.24096386,67c9e12970245699c2237d09,687ed1b7e638a4cbf2f02089,68808287fe38476f55bfaf2d,,,,,,,,,,,,,,0,,,,,,,,,,,,,,,,,,,,,,,,,,,,,,,,,,,,,,,,,,,,,,,,,,,,,,,,,79,tropaje,,,,,622.0073,623.7873,0,1,1.2362,,0,56,56,78,1,REAL,FAKE,,,,,,,,,,,,,,,,,
,,,,,,,,,67c9e12970245699c2237d09,mexican,13 or older,"no, only English or Spanish",no,2025-07-23_02h37.28.146,empathy_intonation_perc,2024.2.4,Win32,60.24096386,67c9e12970245699c2237d09,687ed1b7e638a4cbf2f02089,68808287fe38476f55bfaf2d,,,,,,,,,,,,,,1,,,,,,,,,,,,,,,,,,,,,,,,,,,,,,,,,,,,,,,,,,,,,,,,,,,,,,,,,34,aviso,,,,,623.7892,625.0422,1,1,0.7112,,0,57,57,33,1,REAL,FAKE,,,,,,,,,,,,,,,,,
,,,,,,,,,67c9e12970245699c2237d09,mexican,13 or older,"no, only English or Spanish",no,2025-07-23_02h37.28.146,empathy_intonation_perc,2024.2.4,Win32,60.24096386,67c9e12970245699c2237d09,687ed1b7e638a4cbf2f02089,68808287fe38476f55bfaf2d,,,,,,,,,,,,,,1,,,,,,,,,,,,,,,,,,,,,,,,,,,,,,,,,,,,,,,,,,,,,,,,,,,,,,,,,52,camisa,,,,,625.0433,626.3936,1,1,0.8292,,0,58,58,51,1,REAL,FAKE,,,,,,,,,,,,,,,,,
,,,,,,,,,67c9e12970245699c2237d09,mexican,13 or older,"no, only English or Spanish",no,2025-07-23_02h37.28.146,empathy_intonation_perc,2024.2.4,Win32,60.24096386,67c9e12970245699c2237d09,687ed1b7e638a4cbf2f02089,68808287fe38476f55bfaf2d,,,,,,,,,,,,,,1,,,,,,,,,,,,,,,,,,,,,,,,,,,,,,,,,,,,,,,,,,,,,,,,,,,,,,,,,2,pellizcar,,,,,626.3949,627.6784,1,1,0.7533,,0,59,59,1,1,REAL,FAKE,,,,,,,,,,,,,,,,,
,,,,,,,,,67c9e12970245699c2237d09,mexican,13 or older,"no, only English or Spanish",no,2025-07-23_02h37.28.146,empathy_intonation_perc,2024.2.4,Win32,60.24096386,67c9e12970245699c2237d09,687ed1b7e638a4cbf2f02089,68808287fe38476f55bfaf2d,,,,,,,,,,,,,,1,,,,,,,,,,,,,,,,,,,,,,,,,,,,,,,,,,,,,,,,,,,,,,,,,,,,,,,,,22,lacayo,,,,,627.6801,628.8461,0,0,0.6108,,0,60,60,21,1,REAL,FAKE,,,,,,,,,,,,,,,,,
,,,,,,,,,67c9e12970245699c2237d09,mexican,13 or older,"no, only English or Spanish",no,2025-07-23_02h37.28.146,empathy_intonation_perc,2024.2.4,Win32,60.24096386,67c9e12970245699c2237d09,687ed1b7e638a4cbf2f02089,68808287fe38476f55bfaf2d,,,,,,,,,,,,,,1,,,,,,,,,,,,,,,,,,,,,,,,,,,,,,,,,,,,,,,,,,,,,,,,,,,,,,,,,64,orgulloso,,,,,628.8473,630.2642,0,0,0.8814,,0,61,61,63,1,REAL,FAKE,,,,,,,,,,,,,,,,,
,,,,,,,,,67c9e12970245699c2237d09,mexican,13 or older,"no, only English or Spanish",no,2025-07-23_02h37.28.146,empathy_intonation_perc,2024.2.4,Win32,60.24096386,67c9e12970245699c2237d09,687ed1b7e638a4cbf2f02089,68808287fe38476f55bfaf2d,,,,,,,,,,,,,,0,,,,,,,,,,,,,,,,,,,,,,,,,,,,,,,,,,,,,,,,,,,,,,,,,,,,,,,,,27,acutación,,,,,630.2655,631.749,0,1,0.9485,,0,62,62,26,1,REAL,FAKE,,,,,,,,,,,,,,,,,
,,,,,,,,,67c9e12970245699c2237d09,mexican,13 or older,"no, only English or Spanish",no,2025-07-23_02h37.28.146,empathy_intonation_perc,2024.2.4,Win32,60.24096386,67c9e12970245699c2237d09,687ed1b7e638a4cbf2f02089,68808287fe38476f55bfaf2d,,,,,,,,,,,,,,0,,,,,,,,,,,,,,,,,,,,,,,,,,,,,,,,,,,,,,,,,,,,,,,,,,,,,,,,,84,escuto,,,,,631.7503,633.2672,0,1,0.974,,0,63,63,83,1,REAL,FAKE,,,,,,,,,,,,,,,,,
,,,,,,,,,67c9e12970245699c2237d09,mexican,13 or older,"no, only English or Spanish",no,2025-07-23_02h37.28.146,empathy_intonation_perc,2024.2.4,Win32,60.24096386,67c9e12970245699c2237d09,687ed1b7e638a4cbf2f02089,68808287fe38476f55bfaf2d,,,,,,,,,,,,,,0,,,,,,,,,,,,,,,,,,,,,,,,,,,,,,,,,,,,,,,,,,,,,,,,,,,,,,,,,72,pemición,,,,,633.2685,634.4853,1,0,0.6678,,0,64,64,71,1,REAL,FAKE,,,,,,,,,,,,,,,,,
,,,,,,,,,67c9e12970245699c2237d09,mexican,13 or older,"no, only English or Spanish",no,2025-07-23_02h37.28.146,empathy_intonation_perc,2024.2.4,Win32,60.24096386,67c9e12970245699c2237d09,687ed1b7e638a4cbf2f02089,68808287fe38476f55bfaf2d,,,,,,,,,,,,,,1,,,,,,,,,,,,,,,,,,,,,,,,,,,,,,,,,,,,,,,,,,,,,,,,,,,,,,,,,20,ávido,,,,,634.4874,635.5695,1,1,0.5243,,0,65,65,19,1,REAL,FAKE,,,,,,,,,,,,,,,,,
,,,,,,,,,67c9e12970245699c2237d09,mexican,13 or older,"no, only English or Spanish",no,2025-07-23_02h37.28.146,empathy_intonation_perc,2024.2.4,Win32,60.24096386,67c9e12970245699c2237d09,687ed1b7e638a4cbf2f02089,68808287fe38476f55bfaf2d,,,,,,,,,,,,,,1,,,,,,,,,,,,,,,,,,,,,,,,,,,,,,,,,,,,,,,,,,,,,,,,,,,,,,,,,38,estornudar,,,,,635.5707,636.7045,0,0,0.5915,,0,66,66,37,1,REAL,FAKE,,,,,,,,,,,,,,,,,
,,,,,,,,,67c9e12970245699c2237d09,mexican,13 or older,"no, only English or Spanish",no,2025-07-23_02h37.28.146,empathy_intonation_perc,2024.2.4,Win32,60.24096386,67c9e12970245699c2237d09,687ed1b7e638a4cbf2f02089,68808287fe38476f55bfaf2d,,,,,,,,,,,,,,0,,,,,,,,,,,,,,,,,,,,,,,,,,,,,,,,,,,,,,,,,,,,,,,,,,,,,,,,,21,capillo,,,,,636.708,637.872,0,1,0.6178,,0,67,67,20,1,REAL,FAKE,,,,,,,,,,,,,,,,,
,,,,,,,,,67c9e12970245699c2237d09,mexican,13 or older,"no, only English or Spanish",no,2025-07-23_02h37.28.146,empathy_intonation_perc,2024.2.4,Win32,60.24096386,67c9e12970245699c2237d09,687ed1b7e638a4cbf2f02089,68808287fe38476f55bfaf2d,,,,,,,,,,,,,,1,,,,,,,,,,,,,,,,,,,,,,,,,,,,,,,,,,,,,,,,,,,,,,,,,,,,,,,,,13,helar,,,,,637.8734,639.1583,1,1,0.7422,,0,68,68,12,1,REAL,FAKE,,,,,,,,,,,,,,,,,
,,,,,,,,,67c9e12970245699c2237d09,mexican,13 or older,"no, only English or Spanish",no,2025-07-23_02h37.28.146,empathy_intonation_perc,2024.2.4,Win32,60.24096386,67c9e12970245699c2237d09,687ed1b7e638a4cbf2f02089,68808287fe38476f55bfaf2d,,,,,,,,,,,,,,1,,,,,,,,,,,,,,,,,,,,,,,,,,,,,,,,,,,,,,,,,,,,,,,,,,,,,,,,,89,prisa,,,,,639.1594,640.5912,0,0,0.8844,,0,69,69,88,1,REAL,FAKE,,,,,,,,,,,,,,,,,
,,,,,,,,,67c9e12970245699c2237d09,mexican,13 or older,"no, only English or Spanish",no,2025-07-23_02h37.28.146,empathy_intonation_perc,2024.2.4,Win32,60.24096386,67c9e12970245699c2237d09,687ed1b7e638a4cbf2f02089,68808287fe38476f55bfaf2d,,,,,,,,,,,,,,0,,,,,,,,,,,,,,,,,,,,,,,,,,,,,,,,,,,,,,,,,,,,,,,,,,,,,,,,,50,flamida,,,,,640.5926,641.7786,0,1,0.658,,0,70,70,49,1,REAL,FAKE,,,,,,,,,,,,,,,,,
,,,,,,,,,67c9e12970245699c2237d09,mexican,13 or older,"no, only English or Spanish",no,2025-07-23_02h37.28.146,empathy_intonation_perc,2024.2.4,Win32,60.24096386,67c9e12970245699c2237d09,687ed1b7e638a4cbf2f02089,68808287fe38476f55bfaf2d,,,,,,,,,,,,,,1,,,,,,,,,,,,,,,,,,,,,,,,,,,,,,,,,,,,,,,,,,,,,,,,,,,,,,,,,15,regar,,,,,641.781,643.3772,1,1,1.0436,,0,71,71,14,1,REAL,FAKE,,,,,,,,,,,,,,,,,
,,,,,,,,,67c9e12970245699c2237d09,mexican,13 or older,"no, only English or Spanish",no,2025-07-23_02h37.28.146,empathy_intonation_perc,2024.2.4,Win32,60.24096386,67c9e12970245699c2237d09,687ed1b7e638a4cbf2f02089,68808287fe38476f55bfaf2d,,,,,,,,,,,,,,1,,,,,,,,,,,,,,,,,,,,,,,,,,,,,,,,,,,,,,,,,,,,,,,,,,,,,,,,,59,besar,,,,,643.3786,644.9789,0,0,1.0777,,0,72,72,58,1,REAL,FAKE,,,,,,,,,,,,,,,,,
,,,,,,,,,67c9e12970245699c2237d09,mexican,13 or older,"no, only English or Spanish",no,2025-07-23_02h37.28.146,empathy_intonation_perc,2024.2.4,Win32,60.24096386,67c9e12970245699c2237d09,687ed1b7e638a4cbf2f02089,68808287fe38476f55bfaf2d,,,,,,,,,,,,,,1,,,,,,,,,,,,,,,,,,,,,,,,,,,,,,,,,,,,,,,,,,,,,,,,,,,,,,,,,31,pandilla,,,,,644.98,646.2136,1,1,0.7014,,0,73,73,30,1,REAL,FAKE,,,,,,,,,,,,,,,,,
,,,,,,,,,67c9e12970245699c2237d09,mexican,13 or older,"no, only English or Spanish",no,2025-07-23_02h37.28.146,empathy_intonation_perc,2024.2.4,Win32,60.24096386,67c9e12970245699c2237d09,687ed1b7e638a4cbf2f02089,68808287fe38476f55bfaf2d,,,,,,,,,,,,,,1,,,,,,,,,,,,,,,,,,,,,,,,,,,,,,,,,,,,,,,,,,,,,,,,,,,,,,,,,54,fomentar,,,,,646.215,647.6316,1,1,0.8621,,0,74,74,53,1,REAL,FAKE,,,,,,,,,,,,,,,,,
,,,,,,,,,67c9e12970245699c2237d09,mexican,13 or older,"no, only English or Spanish",no,2025-07-23_02h37.28.146,empathy_intonation_perc,2024.2.4,Win32,60.24096386,67c9e12970245699c2237d09,687ed1b7e638a4cbf2f02089,68808287fe38476f55bfaf2d,,,,,,,,,,,,,,1,,,,,,,,,,,,,,,,,,,,,,,,,,,,,,,,,,,,,,,,,,,,,,,,,,,,,,,,,26,secuestro,,,,,647.6327,649.0001,1,1,0.8304,,0,75,75,25,1,REAL,FAKE,,,,,,,,,,,,,,,,,
,,,,,,,,,67c9e12970245699c2237d09,mexican,13 or older,"no, only English or Spanish",no,2025-07-23_02h37.28.146,empathy_intonation_perc,2024.2.4,Win32,60.24096386,67c9e12970245699c2237d09,687ed1b7e638a4cbf2f02089,68808287fe38476f55bfaf2d,,,,,,,,,,,,,,0,,,,,,,,,,,,,,,,,,,,,,,,,,,,,,,,,,,,,,,,,,,,,,,,,,,,,,,,,47,cartinar,,,,,649.0017,650.2007,0,1,0.6639,,0,76,76,46,1,REAL,FAKE,,,,,,,,,,,,,,,,,
,,,,,,,,,67c9e12970245699c2237d09,mexican,13 or older,"no, only English or Spanish",no,2025-07-23_02h37.28.146,empathy_intonation_perc,2024.2.4,Win32,60.24096386,67c9e12970245699c2237d09,687ed1b7e638a4cbf2f02089,68808287fe38476f55bfaf2d,,,,,,,,,,,,,,0,,,,,,,,,,,,,,,,,,,,,,,,,,,,,,,,,,,,,,,,,,,,,,,,,,,,,,,,,63,esposante,,,,,650.202,651.5522,1,0,0.8238,,0,77,77,62,1,REAL,FAKE,,,,,,,,,,,,,,,,,
,,,,,,,,,67c9e12970245699c2237d09,mexican,13 or older,"no, only English or Spanish",no,2025-07-23_02h37.28.146,empathy_intonation_perc,2024.2.4,Win32,60.24096386,67c9e12970245699c2237d09,687ed1b7e638a4cbf2f02089,68808287fe38476f55bfaf2d,,,,,,,,,,,,,,1,,,,,,,,,,,,,,,,,,,,,,,,,,,,,,,,,,,,,,,,,,,,,,,,,,,,,,,,,67,cabello,,,,,651.5536,652.9201,1,1,0.8101,,0,78,78,66,1,REAL,FAKE,,,,,,,,,,,,,,,,,
,,,,,,,,,67c9e12970245699c2237d09,mexican,13 or older,"no, only English or Spanish",no,2025-07-23_02h37.28.146,empathy_intonation_perc,2024.2.4,Win32,60.24096386,67c9e12970245699c2237d09,687ed1b7e638a4cbf2f02089,68808287fe38476f55bfaf2d,,,,,,,,,,,,,,1,,,,,,,,,,,,,,,,,,,,,,,,,,,,,,,,,,,,,,,,,,,,,,,,,,,,,,,,,78,frondoso,,,,,652.9212,654.1554,0,0,0.7156,,0,79,79,77,1,REAL,FAKE,,,,,,,,,,,,,,,,,
,,,,,,,,,67c9e12970245699c2237d09,mexican,13 or older,"no, only English or Spanish",no,2025-07-23_02h37.28.146,empathy_intonation_perc,2024.2.4,Win32,60.24096386,67c9e12970245699c2237d09,687ed1b7e638a4cbf2f02089,68808287fe38476f55bfaf2d,,,,,,,,,,,,,,0,,,,,,,,,,,,,,,,,,,,,,,,,,,,,,,,,,,,,,,,,,,,,,,,,,,,,,,,,29,decar,,,,,654.1575,655.5561,0,1,0.8655,,0,80,80,28,1,REAL,FAKE,,,,,,,,,,,,,,,,,
,,,,,,,,,67c9e12970245699c2237d09,mexican,13 or older,"no, only English or Spanish",no,2025-07-23_02h37.28.146,empathy_intonation_perc,2024.2.4,Win32,60.24096386,67c9e12970245699c2237d09,687ed1b7e638a4cbf2f02089,68808287fe38476f55bfaf2d,,,,,,,,,,,,,,1,,,,,,,,,,,,,,,,,,,,,,,,,,,,,,,,,,,,,,,,,,,,,,,,,,,,,,,,,51,candado,,,,,655.5573,656.9578,0,0,0.8556,,0,81,81,50,1,REAL,FAKE,,,,,,,,,,,,,,,,,
,,,,,,,,,67c9e12970245699c2237d09,mexican,13 or older,"no, only English or Spanish",no,2025-07-23_02h37.28.146,empathy_intonation_perc,2024.2.4,Win32,60.24096386,67c9e12970245699c2237d09,687ed1b7e638a4cbf2f02089,68808287fe38476f55bfaf2d,,,,,,,,,,,,,,0,,,,,,,,,,,,,,,,,,,,,,,,,,,,,,,,,,,,,,,,,,,,,,,,,,,,,,,,,87,grodo,,,,,656.9594,658.3426,1,0,0.8366,,0,82,82,86,1,REAL,FAKE,,,,,,,,,,,,,,,,,
,,,,,,,,,67c9e12970245699c2237d09,mexican,13 or older,"no, only English or Spanish",no,2025-07-23_02h37.28.146,empathy_intonation_perc,2024.2.4,Win32,60.24096386,67c9e12970245699c2237d09,687ed1b7e638a4cbf2f02089,68808287fe38476f55bfaf2d,,,,,,,,,,,,,,0,,,,,,,,,,,,,,,,,,,,,,,,,,,,,,,,,,,,,,,,,,,,,,,,,,,,,,,,,42,cadallo,,,,,658.3443,659.6104,0,1,0.7201,,0,83,83,41,1,REAL,FAKE,,,,,,,,,,,,,,,,,
,,,,,,,,,67c9e12970245699c2237d09,mexican,13 or older,"no, only English or Spanish",no,2025-07-23_02h37.28.146,empathy_intonation_perc,2024.2.4,Win32,60.24096386,67c9e12970245699c2237d09,687ed1b7e638a4cbf2f02089,68808287fe38476f55bfaf2d,,,,,,,,,,,,,,1,,,,,,,,,,,,,,,,,,,,,,,,,,,,,,,,,,,,,,,,,,,,,,,,,,,,,,,,,46,martillo,,,,,659.6121,660.862,0,0,0.6909,,0,84,84,45,1,REAL,FAKE,,,,,,,,,,,,,,,,,
,,,,,,,,,67c9e12970245699c2237d09,mexican,13 or older,"no, only English or Spanish",no,2025-07-23_02h37.28.146,empathy_intonation_perc,2024.2.4,Win32,60.24096386,67c9e12970245699c2237d09,687ed1b7e638a4cbf2f02089,68808287fe38476f55bfaf2d,,,,,,,,,,,,,,1,,,,,,,,,,,,,,,,,,,,,,,,,,,,,,,,,,,,,,,,,,,,,,,,,,,,,,,,,24,látigo,,,,,660.8651,662.2088,1,1,0.7912,,0,85,85,23,1,REAL,FAKE,,,,,,,,,,,,,,,,,
,,,,,,,,,67c9e12970245699c2237d09,mexican,13 or older,"no, only English or Spanish",no,2025-07-23_02h37.28.146,empathy_intonation_perc,2024.2.4,Win32,60.24096386,67c9e12970245699c2237d09,687ed1b7e638a4cbf2f02089,68808287fe38476f55bfaf2d,,,,,,,,,,,,,,0,,,,,,,,,,,,,,,,,,,,,,,,,,,,,,,,,,,,,,,,,,,,,,,,,,,,,,,,,23,lampera,,,,,662.2106,663.2601,0,1,0.5186,,0,86,86,22,1,REAL,FAKE,,,,,,,,,,,,,,,,,
,,,,,,,,,67c9e12970245699c2237d09,mexican,13 or older,"no, only English or Spanish",no,2025-07-23_02h37.28.146,empathy_intonation_perc,2024.2.4,Win32,60.24096386,67c9e12970245699c2237d09,687ed1b7e638a4cbf2f02089,68808287fe38476f55bfaf2d,,,,,,,,,,,,,,1,,,,,,,,,,,,,,,,,,,,,,,,,,,,,,,,,,,,,,,,,,,,,,,,,,,,,,,,,5,zapato,,,,,663.2623,664.5451,1,1,0.7533,,0,87,87,4,1,REAL,FAKE,,,,,,,,,,,,,,,,,
,,,,,,,,,67c9e12970245699c2237d09,mexican,13 or older,"no, only English or Spanish",no,2025-07-23_02h37.28.146,empathy_intonation_perc,2024.2.4,Win32,60.24096386,67c9e12970245699c2237d09,687ed1b7e638a4cbf2f02089,68808287fe38476f55bfaf2d,,,,,,,,,,,,,,1,,,,,,,,,,,,,,,,,,,,,,,,,,,,,,,,,,,,,,,,,,,,,,,,,,,,,,,,,69,engatusar,,,,,664.5466,665.9002,0,0,0.8173,,0,88,88,68,1,REAL,FAKE,,,,,,,,,,,,,,,,,
,,,,,,,,,67c9e12970245699c2237d09,mexican,13 or older,"no, only English or Spanish",no,2025-07-23_02h37.28.146,empathy_intonation_perc,2024.2.4,Win32,60.24096386,67c9e12970245699c2237d09,687ed1b7e638a4cbf2f02089,68808287fe38476f55bfaf2d,,,,,,,,,,,,,,0,,,,,,,,,,,,,,,,,,,,,,,,,,,,,,,,,,,,,,,,,,,,,,,,,,,,,,,,,92,click the 0 key.,,,,,665.9032,667.7205,0,1,1.2635,,0,89,89,91,1,REAL,FAKE,,,,,,,,,,,,,,,,,
,,,,,,,,,67c9e12970245699c2237d09,mexican,13 or older,"no, only English or Spanish",no,2025-07-23_02h37.28.146,empathy_intonation_perc,2024.2.4,Win32,60.24096386,67c9e12970245699c2237d09,687ed1b7e638a4cbf2f02089,68808287fe38476f55bfaf2d,,,,,,,,,,,,,,1,,,,,,,,,,,,,,,,,,,,,,,,,,,,,,,,,,,,,,,,,,,,,,,,,,,,,,,,,62,flaco,,,,,667.7229,669.1535,1,1,0.8861,,0,90,90,61,1,REAL,FAKE,,,,,,,,,,,,,,,,,
,,,,,,,,,67c9e12970245699c2237d09,mexican,13 or older,"no, only English or Spanish",no,2025-07-23_02h37.28.146,empathy_intonation_perc,2024.2.4,Win32,60.24096386,67c9e12970245699c2237d09,687ed1b7e638a4cbf2f02089,68808287fe38476f55bfaf2d,,,,,,,,,,,,,,0,,,,,,,,,,,,,,,,,,,,,,,,,,,,,,,,,,,,,,,,,,,,,,,,,,,,,,,,,35,rompido,,,,,669.1564,670.2714,0,1,0.5585,,0,91,91,34,1,REAL,FAKE,,,,,,,,,,,,,,,,,
,,,,,,,,,67c9e12970245699c2237d09,mexican,13 or older,"no, only English or Spanish",no,2025-07-23_02h37.28.146,empathy_intonation_perc,2024.2.4,Win32,60.24096386,67c9e12970245699c2237d09,687ed1b7e638a4cbf2f02089,68808287fe38476f55bfaf2d,,,,,,,,,,,,,,,,,,,,,,,,,,,,,,,,,,,,,,,,,,,,,,,,,,,,,,,,,,,,,,,,,,,,,,,,,,,,,,,,,,,,,,,,,,670.2728,712.8278,,,,,,,,,,,,,,,
,,,,,,,,,67c9e12970245699c2237d09,mexican,13 or older,"no, only English or Spanish",no,2025-07-23_02h37.28.146,empathy_intonation_perc,2024.2.4,Win32,60.24096386,67c9e12970245699c2237d09,687ed1b7e638a4cbf2f02089,68808287fe38476f55bfaf2d,,,,,,,,,,,,,1,,,,,,,,,,,,,,,,,,,,,,,,,,,,,,,,,,,,,,,,,,,,,,,,,,,,,,,,,,,,,,,,,,,,,,,,,,,,,,,712.8615,719.9042,strongly agree,0,0,0,0,1,I can easily tell if someone else wants to enter a conversation.,1,0,1,0,,
,,,,,,,,,67c9e12970245699c2237d09,mexican,13 or older,"no, only English or Spanish",no,2025-07-23_02h37.28.146,empathy_intonation_perc,2024.2.4,Win32,60.24096386,67c9e12970245699c2237d09,687ed1b7e638a4cbf2f02089,68808287fe38476f55bfaf2d,,,,,,,,,,,,,2,,,,,,,,,,,,,,,,,,,,,,,,,,,,,,,,,,,,,,,,,,,,,,,,,,,,,,,,,,,,,,,,,,,,,,,,,,,,,,,719.9066,723.2773,slightly disagree,0,1,1,1,1,I prefer animals to humans.,0,1,0,0,,
,,,,,,,,,67c9e12970245699c2237d09,mexican,13 or older,"no, only English or Spanish",no,2025-07-23_02h37.28.146,empathy_intonation_perc,2024.2.4,Win32,60.24096386,67c9e12970245699c2237d09,687ed1b7e638a4cbf2f02089,68808287fe38476f55bfaf2d,,,,,,,,,,,,,3,,,,,,,,,,,,,,,,,,,,,,,,,,,,,,,,,,,,,,,,,,,,,,,,,,,,,,,,,,,,,,,,,,,,,,,,,,,,,,,723.2793,727.3447,strongly agree,0,2,2,2,1,I try to keep up with the current trends and fashions.,0,1,0,0,,
,,,,,,,,,67c9e12970245699c2237d09,mexican,13 or older,"no, only English or Spanish",no,2025-07-23_02h37.28.146,empathy_intonation_perc,2024.2.4,Win32,60.24096386,67c9e12970245699c2237d09,687ed1b7e638a4cbf2f02089,68808287fe38476f55bfaf2d,,,,,,,,,,,,,4,,,,,,,,,,,,,,,,,,,,,,,,,,,,,,,,,,,,,,,,,,,,,,,,,,,,,,,,,,,,,,,,,,,,,,,,,,,,,,,727.3473,734.8467,strongly disagree,0,3,3,3,1,"I find it difficult to explain to others things that I understand easily,   when they don't understand it first time.",1,0,0,1,,
,,,,,,,,,67c9e12970245699c2237d09,mexican,13 or older,"no, only English or Spanish",no,2025-07-23_02h37.28.146,empathy_intonation_perc,2024.2.4,Win32,60.24096386,67c9e12970245699c2237d09,687ed1b7e638a4cbf2f02089,68808287fe38476f55bfaf2d,,,,,,,,,,,,,5,,,,,,,,,,,,,,,,,,,,,,,,,,,,,,,,,,,,,,,,,,,,,,,,,,,,,,,,,,,,,,,,,,,,,,,,,,,,,,,734.8476,738.2221,slightly agree,0,4,4,4,1,I dream most nights.,0,1,0,0,,
,,,,,,,,,67c9e12970245699c2237d09,mexican,13 or older,"no, only English or Spanish",no,2025-07-23_02h37.28.146,empathy_intonation_perc,2024.2.4,Win32,60.24096386,67c9e12970245699c2237d09,687ed1b7e638a4cbf2f02089,68808287fe38476f55bfaf2d,,,,,,,,,,,,,6,,,,,,,,,,,,,,,,,,,,,,,,,,,,,,,,,,,,,,,,,,,,,,,,,,,,,,,,,,,,,,,,,,,,,,,,,,,,,,,738.2243,741.8257,strongly agree,0,5,5,5,1,I really enjoy caring for other people.,1,0,1,0,,
,,,,,,,,,67c9e12970245699c2237d09,mexican,13 or older,"no, only English or Spanish",no,2025-07-23_02h37.28.146,empathy_intonation_perc,2024.2.4,Win32,60.24096386,67c9e12970245699c2237d09,687ed1b7e638a4cbf2f02089,68808287fe38476f55bfaf2d,,,,,,,,,,,,,7,,,,,,,,,,,,,,,,,,,,,,,,,,,,,,,,,,,,,,,,,,,,,,,,,,,,,,,,,,,,,,,,,,,,,,,,,,,,,,,741.828,747.8869,slightly agree,0,6,6,6,1,I try to solve my own problems rather than discussing them with others.,0,1,0,0,,
,,,,,,,,,67c9e12970245699c2237d09,mexican,13 or older,"no, only English or Spanish",no,2025-07-23_02h37.28.146,empathy_intonation_perc,2024.2.4,Win32,60.24096386,67c9e12970245699c2237d09,687ed1b7e638a4cbf2f02089,68808287fe38476f55bfaf2d,,,,,,,,,,,,,8,,,,,,,,,,,,,,,,,,,,,,,,,,,,,,,,,,,,,,,,,,,,,,,,,,,,,,,,,,,,,,,,,,,,,,,,,,,,,,,747.8889,752.1415,slightly disagree,0,7,7,7,1,I find it hard to know what to do in a social situation.,1,0,0,1,,
,,,,,,,,,67c9e12970245699c2237d09,mexican,13 or older,"no, only English or Spanish",no,2025-07-23_02h37.28.146,empathy_intonation_perc,2024.2.4,Win32,60.24096386,67c9e12970245699c2237d09,687ed1b7e638a4cbf2f02089,68808287fe38476f55bfaf2d,,,,,,,,,,,,,9,,,,,,,,,,,,,,,,,,,,,,,,,,,,,,,,,,,,,,,,,,,,,,,,,,,,,,,,,,,,,,,,,,,,,,,,,,,,,,,752.144,755.6062,strongly agree,0,8,8,8,1,I am at my best first thing in the morning.,0,1,0,0,,
,,,,,,,,,67c9e12970245699c2237d09,mexican,13 or older,"no, only English or Spanish",no,2025-07-23_02h37.28.146,empathy_intonation_perc,2024.2.4,Win32,60.24096386,67c9e12970245699c2237d09,687ed1b7e638a4cbf2f02089,68808287fe38476f55bfaf2d,,,,,,,,,,,,,10,,,,,,,,,,,,,,,,,,,,,,,,,,,,,,,,,,,,,,,,,,,,,,,,,,,,,,,,,,,,,,,,,,,,,,,,,,,,,,,755.6085,761.8288,slightly disagree,0,9,9,9,1,People often tell me that I went too far in driving my point home in a discussion.,1,0,0,1,,
