instructions_exposure.started,instructions_exposure.stopped,instructions_exposure_loop.thisRepN,instructions_exposure_loop.thisTrialN,instructions_exposure_loop.thisN,instructions_exposure_loop.thisIndex,instructions_exposure_loop.ran,instructions_text,continue_text,participant_id,"What variety of Spanish are you most familiar with? (e.g., Peruvian, Spanish, Mexican)",At what age did you begin learning Spanish?,Are you proficient in any languages other than English/Spanish?,"Are you familiar with Caribbean (e.g., Caribbean, Puerto Rican) or Galician Spanish?",date,expName,psychopyVersion,OS,frameRate,id,study_id,session,trial_exposure.started,trial_exposure.stopped,key_resp_exposure.keys,key_resp_exposure.corr,key_resp_exposure.rt,key_resp_exposure.duration,key_resp.keys,exposure_loop.thisRepN,exposure_loop.thisTrialN,exposure_loop.thisN,exposure_loop.thisIndex,exposure_loop.ran,item_num,correct_response,question,path,duration,instructions_2afc.started,instructions_2afc.stopped,instructions_2afc_loop.thisRepN,instructions_2afc_loop.thisTrialN,instructions_2afc_loop.thisN,instructions_2afc_loop.thisIndex,instructions_2afc_loop.ran,practice_2afc.started,practice_2afc.stopped,key_resp_2afc_practice.keys,key_resp_2afc_practice.corr,key_resp_2afc_practice.rt,key_resp_2afc_practice.duration,trials_2afc_practice_loop.thisRepN,trials_2afc_practice_loop.thisTrialN,trials_2afc_practice_loop.thisN,trials_2afc_practice_loop.thisIndex,trials_2afc_practice_loop.ran,check_2afc.started,check_2afc.stopped,trial_2afc.started,trial_2afc.stopped,key_resp_2afc_trial.keys,key_resp_2afc_trial.corr,key_resp_2afc_trial.rt,key_resp_2afc_trial.duration,trials_2afc_loop.thisRepN,trials_2afc_loop.thisTrialN,trials_2afc_loop.thisN,trials_2afc_loop.thisIndex,trials_2afc_loop.ran,target,variety,instructions_lextale.started,instructions_lextale.stopped,instructions_lextale_loop.thisRepN,instructions_lextale_loop.thisTrialN,instructions_lextale_loop.thisN,instructions_lextale_loop.thisIndex,instructions_lextale_loop.ran,practice_lextale.started,practice_lextale.stopped,key_resp_lextale_practice.keys,key_resp_lextale_practice.corr,key_resp_lextale_practice.rt,key_resp_lextale_practice.duration,practice_feedback_lextale.started,practice_feedback_lextale.stopped,trials_lextale_practice_loop.thisRepN,trials_lextale_practice_loop.thisTrialN,trials_lextale_practice_loop.thisN,trials_lextale_practice_loop.thisIndex,trials_lextale_practice_loop.ran,stim,word,prac_button_real,prac_button_false,check_lextale.started,check_lextale.stopped,trial_lextale.started,trial_lextale.stopped,key_resp_lextale_trial.keys,key_resp_lextale_trial.corr,key_resp_lextale_trial.rt,key_resp_lextale_trial.duration,trials_lextale_loop.thisRepN,trials_lextale_loop.thisTrialN,trials_lextale_loop.thisN,trials_lextale_loop.thisIndex,trials_lextale_loop.ran,button_real,button_false,instructions_eq.started,instructions_eq.stopped,trial_eq.started,trial_eq.stopped,slider_eq_trial.response,trials_eq_loop.thisRepN,trials_eq_loop.thisTrialN,trials_eq_loop.thisN,trials_eq_loop.thisIndex,trials_eq_loop.ran,item,is_test_item,is_distractor,is_agree_score,is_disagree_score,end_exp.started,end_exp.stopped
0.0592,4.1459,0,0,0,0,1,"In the following task, you are going to hear a series of conversations.", (press the space bar to continue),67d5f6c42a9c97450f6bbcd5,spanish,13 or older,"no, only English or Spanish",no,2025-07-23_02h56.16.342,empathy_intonation_perc,2024.2.4,Win32,61.72839506,67d5f6c42a9c97450f6bbcd5,687ed1b7e638a4cbf2f02089,6880bf1a60db0a9d0ba5eea0,,,,,,,,,,,,,,,,,,,,,,,,,,,,,,,,,,,,,,,,,,,,,,,,,,,,,,,,,,,,,,,,,,,,,,,,,,,,,,,,,,,,,,,,,,,,,,,,,,,,,,,,,,
4.1474,10.202,0,1,1,1,1,It is okay if you don't not 100% understand them!, (press the space bar to continue),67d5f6c42a9c97450f6bbcd5,spanish,13 or older,"no, only English or Spanish",no,2025-07-23_02h56.16.342,empathy_intonation_perc,2024.2.4,Win32,61.72839506,67d5f6c42a9c97450f6bbcd5,687ed1b7e638a4cbf2f02089,6880bf1a60db0a9d0ba5eea0,,,,,,,,,,,,,,,,,,,,,,,,,,,,,,,,,,,,,,,,,,,,,,,,,,,,,,,,,,,,,,,,,,,,,,,,,,,,,,,,,,,,,,,,,,,,,,,,,,,,,,,,,,
10.2078,43.4845,0,2,2,2,1,"After, you will read a sentence about the conversation and decide if it's true or false.", (press the space bar to continue),67d5f6c42a9c97450f6bbcd5,spanish,13 or older,"no, only English or Spanish",no,2025-07-23_02h56.16.342,empathy_intonation_perc,2024.2.4,Win32,61.72839506,67d5f6c42a9c97450f6bbcd5,687ed1b7e638a4cbf2f02089,6880bf1a60db0a9d0ba5eea0,,,,,,,,,,,,,,,,,,,,,,,,,,,,,,,,,,,,,,,,,,,,,,,,,,,,,,,,,,,,,,,,,,,,,,,,,,,,,,,,,,,,,,,,,,,,,,,,,,,,,,,,,,
43.4921,52.8667,0,3,3,3,1,"If it's true, press '1' (True) and if it's false press '0' (False).", (press the space bar to continue),67d5f6c42a9c97450f6bbcd5,spanish,13 or older,"no, only English or Spanish",no,2025-07-23_02h56.16.342,empathy_intonation_perc,2024.2.4,Win32,61.72839506,67d5f6c42a9c97450f6bbcd5,687ed1b7e638a4cbf2f02089,6880bf1a60db0a9d0ba5eea0,,,,,,,,,,,,,,,,,,,,,,,,,,,,,,,,,,,,,,,,,,,,,,,,,,,,,,,,,,,,,,,,,,,,,,,,,,,,,,,,,,,,,,,,,,,,,,,,,,,,,,,,,,
,,,,,,,,,67d5f6c42a9c97450f6bbcd5,spanish,13 or older,"no, only English or Spanish",no,2025-07-23_02h56.16.342,empathy_intonation_perc,2024.2.4,Win32,61.72839506,67d5f6c42a9c97450f6bbcd5,687ed1b7e638a4cbf2f02089,6880bf1a60db0a9d0ba5eea0,52.9001,111.0647,1,1,11.0187,,,0,0,0,0,1,1,1,The son asked the mom if Aunt Marina is okay.,./stim/exposure_wavs/ga_stimuli_convo.wav,47,,,,,,,,,,,,,,,,,,,,,,,,,,,,,,,,,,,,,,,,,,,,,,,,,,,,,,,,,,,,,,,,,,,,,,,,,,,,,,,,,,,,,,,,,
,,,,,,,,,67d5f6c42a9c97450f6bbcd5,spanish,13 or older,"no, only English or Spanish",no,2025-07-23_02h56.16.342,empathy_intonation_perc,2024.2.4,Win32,61.72839506,67d5f6c42a9c97450f6bbcd5,687ed1b7e638a4cbf2f02089,6880bf1a60db0a9d0ba5eea0,111.073,176.8926,1,1,5.78,,,0,1,1,1,1,2,1,The mom asked the daughter if she already went to the supermarket.,./stim/exposure_wavs/dr_stimuli_convo.wav,60,,,,,,,,,,,,,,,,,,,,,,,,,,,,,,,,,,,,,,,,,,,,,,,,,,,,,,,,,,,,,,,,,,,,,,,,,,,,,,,,,,,,,,,,,
,,,,,,,,,67d5f6c42a9c97450f6bbcd5,spanish,13 or older,"no, only English or Spanish",no,2025-07-23_02h56.16.342,empathy_intonation_perc,2024.2.4,Win32,61.72839506,67d5f6c42a9c97450f6bbcd5,687ed1b7e638a4cbf2f02089,6880bf1a60db0a9d0ba5eea0,176.8996,224.4792,1,0,11.5383,,,0,2,2,2,1,3,0,The mom already has rice.,./stim/exposure_wavs/pr_stimuli_convo.wav,36,,,,,,,,,,,,,,,,,,,,,,,,,,,,,,,,,,,,,,,,,,,,,,,,,,,,,,,,,,,,,,,,,,,,,,,,,,,,,,,,,,,,,,,,,
,,,,,,,"In the following task you are going to hear a series of utterances. 

  You will decide if the utterances sound like questions or not using your keyboard.", (press the spacebar to continue),67d5f6c42a9c97450f6bbcd5,spanish,13 or older,"no, only English or Spanish",no,2025-07-23_02h56.16.342,empathy_intonation_perc,2024.2.4,Win32,61.72839506,67d5f6c42a9c97450f6bbcd5,687ed1b7e638a4cbf2f02089,6880bf1a60db0a9d0ba5eea0,,,,,,,,,,,,,,,,,,224.4962,231.0073,0,0,0,0,1,,,,,,,,,,,,,,,,,,,,,,,,,,,,,,,,,,,,,,,,,,,,,,,,,,,,,,,,,,,,,,,,,,,,,,,,,,,,,,,,,,
,,,,,,,"If you believe the utterance is a question, type '1' (for 'yes') and if you do not 
  believe it is a question type '0' (for 'no').

  Let's practice a bit...", (press the spacebar to continue),67d5f6c42a9c97450f6bbcd5,spanish,13 or older,"no, only English or Spanish",no,2025-07-23_02h56.16.342,empathy_intonation_perc,2024.2.4,Win32,61.72839506,67d5f6c42a9c97450f6bbcd5,687ed1b7e638a4cbf2f02089,6880bf1a60db0a9d0ba5eea0,,,,,,,,,,,,,,,,,,231.0129,236.1731,0,1,1,1,1,,,,,,,,,,,,,,,,,,,,,,,,,,,,,,,,,,,,,,,,,,,,,,,,,,,,,,,,,,,,,,,,,,,,,,,,,,,,,,,,,,
,,,,,,,,,67d5f6c42a9c97450f6bbcd5,spanish,13 or older,"no, only English or Spanish",no,2025-07-23_02h56.16.342,empathy_intonation_perc,2024.2.4,Win32,61.72839506,67d5f6c42a9c97450f6bbcd5,687ed1b7e638a4cbf2f02089,6880bf1a60db0a9d0ba5eea0,,,,,,,,,,,,,,0,,./stim/wavs/andalusian_statement_filler_Alberto-nunca-se-afeita.wav,,,,,,,,,236.1939,248.0077,1,0,11.2937,,0,0,0,5,1,,,,,,,,,,,,,,,,,,,,,,,,,,,,,,,,,,,,,,,,,,,,,,,,,,,,,,,,,,,,,,,,,,,,,,,
,,,,,,,,,67d5f6c42a9c97450f6bbcd5,spanish,13 or older,"no, only English or Spanish",no,2025-07-23_02h56.16.342,empathy_intonation_perc,2024.2.4,Win32,61.72839506,67d5f6c42a9c97450f6bbcd5,687ed1b7e638a4cbf2f02089,6880bf1a60db0a9d0ba5eea0,,,,,,,,,,,,,,1,,./stim/wavs/chilean_question_filler_Mi-padre-cantaba-bien.wav,,,,,,,,,248.01,250.5389,1,1,2.0028,,0,1,1,2,1,,,,,,,,,,,,,,,,,,,,,,,,,,,,,,,,,,,,,,,,,,,,,,,,,,,,,,,,,,,,,,,,,,,,,,,
,,,,,,,,,67d5f6c42a9c97450f6bbcd5,spanish,13 or older,"no, only English or Spanish",no,2025-07-23_02h56.16.342,empathy_intonation_perc,2024.2.4,Win32,61.72839506,67d5f6c42a9c97450f6bbcd5,687ed1b7e638a4cbf2f02089,6880bf1a60db0a9d0ba5eea0,,,,,,,,,,,,,,1,,./stim/wavs/castilian_question_filler_Mi-esposo-conoce-al-chico.wav,,,,,,,,,250.5406,253.1551,1,1,2.0837,,0,2,2,0,1,,,,,,,,,,,,,,,,,,,,,,,,,,,,,,,,,,,,,,,,,,,,,,,,,,,,,,,,,,,,,,,,,,,,,,,
,,,,,,,,,67d5f6c42a9c97450f6bbcd5,spanish,13 or older,"no, only English or Spanish",no,2025-07-23_02h56.16.342,empathy_intonation_perc,2024.2.4,Win32,61.72839506,67d5f6c42a9c97450f6bbcd5,687ed1b7e638a4cbf2f02089,6880bf1a60db0a9d0ba5eea0,,,,,,,,,,,,,,1,,./stim/wavs/argentine_question_filler_Mi-vecino-habla-mucho.wav,,,,,,,,,253.1568,255.2548,1,1,1.5706,,0,3,3,1,1,,,,,,,,,,,,,,,,,,,,,,,,,,,,,,,,,,,,,,,,,,,,,,,,,,,,,,,,,,,,,,,,,,,,,,,
,,,,,,,,,67d5f6c42a9c97450f6bbcd5,spanish,13 or older,"no, only English or Spanish",no,2025-07-23_02h56.16.342,empathy_intonation_perc,2024.2.4,Win32,61.72839506,67d5f6c42a9c97450f6bbcd5,687ed1b7e638a4cbf2f02089,6880bf1a60db0a9d0ba5eea0,,,,,,,,,,,,,,1,,./stim/wavs/mexican_question_filler_Felipe-no-tiene-contrasena.wav,,,,,,,,,255.2562,257.6385,1,1,1.8537,,0,4,4,3,1,,,,,,,,,,,,,,,,,,,,,,,,,,,,,,,,,,,,,,,,,,,,,,,,,,,,,,,,,,,,,,,,,,,,,,,
,,,,,,,,,67d5f6c42a9c97450f6bbcd5,spanish,13 or older,"no, only English or Spanish",no,2025-07-23_02h56.16.342,empathy_intonation_perc,2024.2.4,Win32,61.72839506,67d5f6c42a9c97450f6bbcd5,687ed1b7e638a4cbf2f02089,6880bf1a60db0a9d0ba5eea0,,,,,,,,,,,,,,0,,./stim/wavs/cuban_statement_filler_Cocinabas-por-la-noche.wav,,,,,,,,,257.6403,262.3881,1,0,4.2216,,0,5,5,4,1,,,,,,,,,,,,,,,,,,,,,,,,,,,,,,,,,,,,,,,,,,,,,,,,,,,,,,,,,,,,,,,,,,,,,,,
,,,,,,,,,67d5f6c42a9c97450f6bbcd5,spanish,13 or older,"no, only English or Spanish",no,2025-07-23_02h56.16.342,empathy_intonation_perc,2024.2.4,Win32,61.72839506,67d5f6c42a9c97450f6bbcd5,687ed1b7e638a4cbf2f02089,6880bf1a60db0a9d0ba5eea0,,,,,,,,,,,,,,0,,./stim/wavs/peruvian_statement_filler_El-nino-habla-con-su-madre.wav,,,,,,,,,262.3895,268.3208,1,0,5.404,,0,6,6,6,1,,,,,,,,,,,,,,,,,,,,,,,,,,,,,,,,,,,,,,,,,,,,,,,,,,,,,,,,,,,,,,,,,,,,,,,
,,,,,,,,,67d5f6c42a9c97450f6bbcd5,spanish,13 or older,"no, only English or Spanish",no,2025-07-23_02h56.16.342,empathy_intonation_perc,2024.2.4,Win32,61.72839506,67d5f6c42a9c97450f6bbcd5,687ed1b7e638a4cbf2f02089,6880bf1a60db0a9d0ba5eea0,,,,,,,,,,,,,,0,,./stim/wavs/puertorican_statement_filler_La-nina-pinta-con-su-amiga.wav,,,,,,,,,268.3226,270.2208,1,0,1.3677,,0,7,7,7,1,,,,,,,,,,,,,,,,,,,,,,,,,,,,,,,,,,,,,,,,,,,,,,,,,,,,,,,,,,,,,,,,,,,,,,,
,,,,,,,,,67d5f6c42a9c97450f6bbcd5,spanish,13 or older,"no, only English or Spanish",no,2025-07-23_02h56.16.342,empathy_intonation_perc,2024.2.4,Win32,61.72839506,67d5f6c42a9c97450f6bbcd5,687ed1b7e638a4cbf2f02089,6880bf1a60db0a9d0ba5eea0,,,,,,,,,,,,,,,,,,,,,,,,,,,,,,,,,,,,270.2216,272.9212,,,,,,,,,,,,,,,,,,,,,,,,,,,,,,,,,,,,,,,,,,,,,,,,,,,,,,,,,,,,,,,,,,,,,
,,,,,,,,,67d5f6c42a9c97450f6bbcd5,spanish,13 or older,"no, only English or Spanish",no,2025-07-23_02h56.16.342,empathy_intonation_perc,2024.2.4,Win32,61.72839506,67d5f6c42a9c97450f6bbcd5,687ed1b7e638a4cbf2f02089,6880bf1a60db0a9d0ba5eea0,,,,,,,,,,,,,21,1,,./stim/wavs/puertorican_match_interrogative-total-yn_David-leia-el-libro.wav,,,,,,,,,,,,,,,,,,,,,,272.965,275.004,1,1,1.5211,,0,0,0,20,1,1,puertorican,,,,,,,,,,,,,,,,,,,,,,,,,,,,,,,,,,,,,,,,,,,,,,,,,,,,,,,,
,,,,,,,,,67d5f6c42a9c97450f6bbcd5,spanish,13 or older,"no, only English or Spanish",no,2025-07-23_02h56.16.342,empathy_intonation_perc,2024.2.4,Win32,61.72839506,67d5f6c42a9c97450f6bbcd5,687ed1b7e638a4cbf2f02089,6880bf1a60db0a9d0ba5eea0,,,,,,,,,,,,,24,1,,./stim/wavs/puertorican_match_interrogative-total-yn_Maria-bebe-el-vino.wav,,,,,,,,,,,,,,,,,,,,,,275.0063,279.6037,1,1,4.0748,,0,1,1,23,1,1,puertorican,,,,,,,,,,,,,,,,,,,,,,,,,,,,,,,,,,,,,,,,,,,,,,,,,,,,,,,,
,,,,,,,,,67d5f6c42a9c97450f6bbcd5,spanish,13 or older,"no, only English or Spanish",no,2025-07-23_02h56.16.342,empathy_intonation_perc,2024.2.4,Win32,61.72839506,67d5f6c42a9c97450f6bbcd5,687ed1b7e638a4cbf2f02089,6880bf1a60db0a9d0ba5eea0,,,,,,,,,,,,,9,1,,./stim/wavs/cuban_match_interrogative-total-yn_Manuela-vende-el-carro.wav,,,,,,,,,,,,,,,,,,,,,,279.6051,285.2361,0,0,5.1054,,0,2,2,8,1,1,cuban,,,,,,,,,,,,,,,,,,,,,,,,,,,,,,,,,,,,,,,,,,,,,,,,,,,,,,,,
,,,,,,,,,67d5f6c42a9c97450f6bbcd5,spanish,13 or older,"no, only English or Spanish",no,2025-07-23_02h56.16.342,empathy_intonation_perc,2024.2.4,Win32,61.72839506,67d5f6c42a9c97450f6bbcd5,687ed1b7e638a4cbf2f02089,6880bf1a60db0a9d0ba5eea0,,,,,,,,,,,,,79,0,,./stim/wavs/mexican_mismatch_declarative-broad-focus_El-bebe-comia-muy-bien.wav,,,,,,,,,,,,,,,,,,,,,,285.2373,288.9696,0,1,3.1975,,0,3,3,78,1,0,mexican,,,,,,,,,,,,,,,,,,,,,,,,,,,,,,,,,,,,,,,,,,,,,,,,,,,,,,,,
,,,,,,,,,67d5f6c42a9c97450f6bbcd5,spanish,13 or older,"no, only English or Spanish",no,2025-07-23_02h56.16.342,empathy_intonation_perc,2024.2.4,Win32,61.72839506,67d5f6c42a9c97450f6bbcd5,687ed1b7e638a4cbf2f02089,6880bf1a60db0a9d0ba5eea0,,,,,,,,,,,,,76,0,,./stim/wavs/cuban_mismatch_declarative-broad-focus_La-nina-lava-el-plato.wav,,,,,,,,,,,,,,,,,,,,,,288.971,291.4028,1,0,1.9027,,0,4,4,75,1,0,cuban,,,,,,,,,,,,,,,,,,,,,,,,,,,,,,,,,,,,,,,,,,,,,,,,,,,,,,,,
,,,,,,,,,67d5f6c42a9c97450f6bbcd5,spanish,13 or older,"no, only English or Spanish",no,2025-07-23_02h56.16.342,empathy_intonation_perc,2024.2.4,Win32,61.72839506,67d5f6c42a9c97450f6bbcd5,687ed1b7e638a4cbf2f02089,6880bf1a60db0a9d0ba5eea0,,,,,,,,,,,,,87,0,,./stim/wavs/puertorican_mismatch_declarative-broad-focus_La-maestra-vive-en-Paris.wav,,,,,,,,,,,,,,,,,,,,,,291.406,294.9859,0,1,3.0549,,0,5,5,86,1,0,puertorican,,,,,,,,,,,,,,,,,,,,,,,,,,,,,,,,,,,,,,,,,,,,,,,,,,,,,,,,
,,,,,,,,,67d5f6c42a9c97450f6bbcd5,spanish,13 or older,"no, only English or Spanish",no,2025-07-23_02h56.16.342,empathy_intonation_perc,2024.2.4,Win32,61.72839506,67d5f6c42a9c97450f6bbcd5,687ed1b7e638a4cbf2f02089,6880bf1a60db0a9d0ba5eea0,,,,,,,,,,,,,61,0,,./stim/wavs/mexican_match_declarative-broad-focus_Mariano-habla-del-tiempo.wav,,,,,,,,,,,,,,,,,,,,,,294.9887,298.4873,1,0,2.9678,,0,6,6,60,1,0,mexican,,,,,,,,,,,,,,,,,,,,,,,,,,,,,,,,,,,,,,,,,,,,,,,,,,,,,,,,
,,,,,,,,,67d5f6c42a9c97450f6bbcd5,spanish,13 or older,"no, only English or Spanish",no,2025-07-23_02h56.16.342,empathy_intonation_perc,2024.2.4,Win32,61.72839506,67d5f6c42a9c97450f6bbcd5,687ed1b7e638a4cbf2f02089,6880bf1a60db0a9d0ba5eea0,,,,,,,,,,,,,34,1,,./stim/wavs/cuban_mismatch_interrogative-total-yn_Mi-tia-odia-la-lluvia.wav,,,,,,,,,,,,,,,,,,,,,,298.4897,300.6524,1,1,1.6368,,0,7,7,33,1,1,cuban,,,,,,,,,,,,,,,,,,,,,,,,,,,,,,,,,,,,,,,,,,,,,,,,,,,,,,,,
,,,,,,,,,67d5f6c42a9c97450f6bbcd5,spanish,13 or older,"no, only English or Spanish",no,2025-07-23_02h56.16.342,empathy_intonation_perc,2024.2.4,Win32,61.72839506,67d5f6c42a9c97450f6bbcd5,687ed1b7e638a4cbf2f02089,6880bf1a60db0a9d0ba5eea0,,,,,,,,,,,,,47,0,,./stim/wavs/castilian_match_declarative-broad-focus_Manuela-vende-el-carro.wav,,,,,,,,,,,,,,,,,,,,,,300.6555,303.6523,0,1,2.4682,,0,8,8,46,1,0,castilian,,,,,,,,,,,,,,,,,,,,,,,,,,,,,,,,,,,,,,,,,,,,,,,,,,,,,,,,
,,,,,,,,,67d5f6c42a9c97450f6bbcd5,spanish,13 or older,"no, only English or Spanish",no,2025-07-23_02h56.16.342,empathy_intonation_perc,2024.2.4,Win32,61.72839506,67d5f6c42a9c97450f6bbcd5,687ed1b7e638a4cbf2f02089,6880bf1a60db0a9d0ba5eea0,,,,,,,,,,,,,11,1,,./stim/wavs/cuban_match_interrogative-total-yn_Mariano-habla-del-tiempo.wav,,,,,,,,,,,,,,,,,,,,,,303.6552,306.769,1,1,2.5854,,0,9,9,10,1,1,cuban,,,,,,,,,,,,,,,,,,,,,,,,,,,,,,,,,,,,,,,,,,,,,,,,,,,,,,,,
,,,,,,,,,67d5f6c42a9c97450f6bbcd5,spanish,13 or older,"no, only English or Spanish",no,2025-07-23_02h56.16.342,empathy_intonation_perc,2024.2.4,Win32,61.72839506,67d5f6c42a9c97450f6bbcd5,687ed1b7e638a4cbf2f02089,6880bf1a60db0a9d0ba5eea0,,,,,,,,,,,,,52,0,,./stim/wavs/cuban_match_declarative-broad-focus_Daniel-iba-a-Bolivia.wav,,,,,,,,,,,,,,,,,,,,,,306.7715,309.119,1,0,1.8173,,0,10,10,51,1,0,cuban,,,,,,,,,,,,,,,,,,,,,,,,,,,,,,,,,,,,,,,,,,,,,,,,,,,,,,,,
,,,,,,,,,67d5f6c42a9c97450f6bbcd5,spanish,13 or older,"no, only English or Spanish",no,2025-07-23_02h56.16.342,empathy_intonation_perc,2024.2.4,Win32,61.72839506,67d5f6c42a9c97450f6bbcd5,687ed1b7e638a4cbf2f02089,6880bf1a60db0a9d0ba5eea0,,,,,,,,,,,,,84,0,,./stim/wavs/puertorican_mismatch_declarative-broad-focus_El-bebe-comia-muy-bien.wav,,,,,,,,,,,,,,,,,,,,,,309.122,312.7277,1,0,3.0827,,0,11,11,83,1,0,puertorican,,,,,,,,,,,,,,,,,,,,,,,,,,,,,,,,,,,,,,,,,,,,,,,,,,,,,,,,
,,,,,,,,,67d5f6c42a9c97450f6bbcd5,spanish,13 or older,"no, only English or Spanish",no,2025-07-23_02h56.16.342,empathy_intonation_perc,2024.2.4,Win32,61.72839506,67d5f6c42a9c97450f6bbcd5,687ed1b7e638a4cbf2f02089,6880bf1a60db0a9d0ba5eea0,,,,,,,,,,,,,73,0,,./stim/wavs/castilian_mismatch_declarative-broad-focus_Mi-tia-odia-la-lluvia.wav,,,,,,,,,,,,,,,,,,,,,,312.7288,317.3519,1,0,4.1013,,0,12,12,72,1,0,castilian,,,,,,,,,,,,,,,,,,,,,,,,,,,,,,,,,,,,,,,,,,,,,,,,,,,,,,,,
,,,,,,,,,67d5f6c42a9c97450f6bbcd5,spanish,13 or older,"no, only English or Spanish",no,2025-07-23_02h56.16.342,empathy_intonation_perc,2024.2.4,Win32,61.72839506,67d5f6c42a9c97450f6bbcd5,687ed1b7e638a4cbf2f02089,6880bf1a60db0a9d0ba5eea0,,,,,,,,,,,,,35,1,,./stim/wavs/mexican_mismatch_interrogative-total-yn_El-hombre-mira-la-luna.wav,,,,,,,,,,,,,,,,,,,,,,317.3553,319.7514,1,1,1.8661,,0,13,13,34,1,0,mexican,,,,,,,,,,,,,,,,,,,,,,,,,,,,,,,,,,,,,,,,,,,,,,,,,,,,,,,,
,,,,,,,,,67d5f6c42a9c97450f6bbcd5,spanish,13 or older,"no, only English or Spanish",no,2025-07-23_02h56.16.342,empathy_intonation_perc,2024.2.4,Win32,61.72839506,67d5f6c42a9c97450f6bbcd5,687ed1b7e638a4cbf2f02089,6880bf1a60db0a9d0ba5eea0,,,,,,,,,,,,,29,1,,./stim/wavs/castilian_mismatch_interrogative-total-yn_Mi-tia-odia-la-lluvia.wav,,,,,,,,,,,,,,,,,,,,,,319.754,322.3272,1,1,2.0496,,0,14,14,28,1,0,castilian,,,,,,,,,,,,,,,,,,,,,,,,,,,,,,,,,,,,,,,,,,,,,,,,,,,,,,,,
,,,,,,,,,67d5f6c42a9c97450f6bbcd5,spanish,13 or older,"no, only English or Spanish",no,2025-07-23_02h56.16.342,empathy_intonation_perc,2024.2.4,Win32,61.72839506,67d5f6c42a9c97450f6bbcd5,687ed1b7e638a4cbf2f02089,6880bf1a60db0a9d0ba5eea0,,,,,,,,,,,,,40,1,,./stim/wavs/puertorican_mismatch_interrogative-total-yn_El-hombre-mira-la-luna.wav,,,,,,,,,,,,,,,,,,,,,,322.3284,324.8679,0,0,2.0221,,0,15,15,39,1,1,puertorican,,,,,,,,,,,,,,,,,,,,,,,,,,,,,,,,,,,,,,,,,,,,,,,,,,,,,,,,
,,,,,,,,,67d5f6c42a9c97450f6bbcd5,spanish,13 or older,"no, only English or Spanish",no,2025-07-23_02h56.16.342,empathy_intonation_perc,2024.2.4,Win32,61.72839506,67d5f6c42a9c97450f6bbcd5,687ed1b7e638a4cbf2f02089,6880bf1a60db0a9d0ba5eea0,,,,,,,,,,,,,50,0,,./stim/wavs/castilian_match_declarative-broad-focus_Marta-abre-el-regalo.wav,,,,,,,,,,,,,,,,,,,,,,324.8717,327.7009,1,0,2.3048,,0,16,16,49,1,0,castilian,,,,,,,,,,,,,,,,,,,,,,,,,,,,,,,,,,,,,,,,,,,,,,,,,,,,,,,,
,,,,,,,,,67d5f6c42a9c97450f6bbcd5,spanish,13 or older,"no, only English or Spanish",no,2025-07-23_02h56.16.342,empathy_intonation_perc,2024.2.4,Win32,61.72839506,67d5f6c42a9c97450f6bbcd5,687ed1b7e638a4cbf2f02089,6880bf1a60db0a9d0ba5eea0,,,,,,,,,,,,,37,1,,./stim/wavs/mexican_mismatch_interrogative-total-yn_La-maestra-vive-en-Paris.wav,,,,,,,,,,,,,,,,,,,,,,327.7035,330.0353,1,1,1.8002,,0,17,17,36,1,0,mexican,,,,,,,,,,,,,,,,,,,,,,,,,,,,,,,,,,,,,,,,,,,,,,,,,,,,,,,,
,,,,,,,,,67d5f6c42a9c97450f6bbcd5,spanish,13 or older,"no, only English or Spanish",no,2025-07-23_02h56.16.342,empathy_intonation_perc,2024.2.4,Win32,61.72839506,67d5f6c42a9c97450f6bbcd5,687ed1b7e638a4cbf2f02089,6880bf1a60db0a9d0ba5eea0,,,,,,,,,,,,,65,0,,./stim/wavs/puertorican_match_declarative-broad-focus_David-leia-el-libro.wav,,,,,,,,,,,,,,,,,,,,,,330.0376,333.2673,0,1,2.7023,,0,18,18,64,1,0,puertorican,,,,,,,,,,,,,,,,,,,,,,,,,,,,,,,,,,,,,,,,,,,,,,,,,,,,,,,,
,,,,,,,,,67d5f6c42a9c97450f6bbcd5,spanish,13 or older,"no, only English or Spanish",no,2025-07-23_02h56.16.342,empathy_intonation_perc,2024.2.4,Win32,61.72839506,67d5f6c42a9c97450f6bbcd5,687ed1b7e638a4cbf2f02089,6880bf1a60db0a9d0ba5eea0,,,,,,,,,,,,,46,0,,./stim/wavs/castilian_match_declarative-broad-focus_Emilio-ama-la-marcha.wav,,,,,,,,,,,,,,,,,,,,,,333.2696,335.9339,1,0,2.1338,,0,19,19,45,1,0,castilian,,,,,,,,,,,,,,,,,,,,,,,,,,,,,,,,,,,,,,,,,,,,,,,,,,,,,,,,
,,,,,,,,,67d5f6c42a9c97450f6bbcd5,spanish,13 or older,"no, only English or Spanish",no,2025-07-23_02h56.16.342,empathy_intonation_perc,2024.2.4,Win32,61.72839506,67d5f6c42a9c97450f6bbcd5,687ed1b7e638a4cbf2f02089,6880bf1a60db0a9d0ba5eea0,,,,,,,,,,,,,3,1,,./stim/wavs/castilian_match_interrogative-total-yn_Manuela-vende-el-carro.wav,,,,,,,,,,,,,,,,,,,,,,335.9368,338.467,1,1,2.0014,,0,20,20,2,1,0,castilian,,,,,,,,,,,,,,,,,,,,,,,,,,,,,,,,,,,,,,,,,,,,,,,,,,,,,,,,
,,,,,,,,,67d5f6c42a9c97450f6bbcd5,spanish,13 or older,"no, only English or Spanish",no,2025-07-23_02h56.16.342,empathy_intonation_perc,2024.2.4,Win32,61.72839506,67d5f6c42a9c97450f6bbcd5,687ed1b7e638a4cbf2f02089,6880bf1a60db0a9d0ba5eea0,,,,,,,,,,,,,72,0,,./stim/wavs/castilian_mismatch_declarative-broad-focus_Mi-novio-viene-del-lago.wav,,,,,,,,,,,,,,,,,,,,,,338.4694,342.067,0,1,3.0673,,0,21,21,71,1,0,castilian,,,,,,,,,,,,,,,,,,,,,,,,,,,,,,,,,,,,,,,,,,,,,,,,,,,,,,,,
,,,,,,,,,67d5f6c42a9c97450f6bbcd5,spanish,13 or older,"no, only English or Spanish",no,2025-07-23_02h56.16.342,empathy_intonation_perc,2024.2.4,Win32,61.72839506,67d5f6c42a9c97450f6bbcd5,687ed1b7e638a4cbf2f02089,6880bf1a60db0a9d0ba5eea0,,,,,,,,,,,,,62,0,,./stim/wavs/mexican_match_declarative-broad-focus_Marta-abre-el-regalo.wav,,,,,,,,,,,,,,,,,,,,,,342.0697,345.0002,1,0,2.403,,0,22,22,61,1,0,mexican,,,,,,,,,,,,,,,,,,,,,,,,,,,,,,,,,,,,,,,,,,,,,,,,,,,,,,,,
,,,,,,,,,67d5f6c42a9c97450f6bbcd5,spanish,13 or older,"no, only English or Spanish",no,2025-07-23_02h56.16.342,empathy_intonation_perc,2024.2.4,Win32,61.72839506,67d5f6c42a9c97450f6bbcd5,687ed1b7e638a4cbf2f02089,6880bf1a60db0a9d0ba5eea0,,,,,,,,,,,,,10,1,,./stim/wavs/cuban_match_interrogative-total-yn_Maria-bebe-el-vino.wav,,,,,,,,,,,,,,,,,,,,,,345.0031,347,1,1,1.4689,,0,23,23,9,1,1,cuban,,,,,,,,,,,,,,,,,,,,,,,,,,,,,,,,,,,,,,,,,,,,,,,,,,,,,,,,
,,,,,,,,,67d5f6c42a9c97450f6bbcd5,spanish,13 or older,"no, only English or Spanish",no,2025-07-23_02h56.16.342,empathy_intonation_perc,2024.2.4,Win32,61.72839506,67d5f6c42a9c97450f6bbcd5,687ed1b7e638a4cbf2f02089,6880bf1a60db0a9d0ba5eea0,,,,,,,,,,,,,67,0,,./stim/wavs/puertorican_match_declarative-broad-focus_Manuela-vende-el-carro.wav,,,,,,,,,,,,,,,,,,,,,,347.0024,349.7497,0,1,2.2209,,0,24,24,66,1,0,puertorican,,,,,,,,,,,,,,,,,,,,,,,,,,,,,,,,,,,,,,,,,,,,,,,,,,,,,,,,
,,,,,,,,,67d5f6c42a9c97450f6bbcd5,spanish,13 or older,"no, only English or Spanish",no,2025-07-23_02h56.16.342,empathy_intonation_perc,2024.2.4,Win32,61.72839506,67d5f6c42a9c97450f6bbcd5,687ed1b7e638a4cbf2f02089,6880bf1a60db0a9d0ba5eea0,,,,,,,,,,,,,59,0,,./stim/wavs/mexican_match_declarative-broad-focus_David-leia-el-libro.wav,,,,,,,,,,,,,,,,,,,,,,349.7519,352.1658,1,0,1.8878,,0,25,25,58,1,0,mexican,,,,,,,,,,,,,,,,,,,,,,,,,,,,,,,,,,,,,,,,,,,,,,,,,,,,,,,,
,,,,,,,,,67d5f6c42a9c97450f6bbcd5,spanish,13 or older,"no, only English or Spanish",no,2025-07-23_02h56.16.342,empathy_intonation_perc,2024.2.4,Win32,61.72839506,67d5f6c42a9c97450f6bbcd5,687ed1b7e638a4cbf2f02089,6880bf1a60db0a9d0ba5eea0,,,,,,,,,,,,,71,0,,./stim/wavs/castilian_mismatch_declarative-broad-focus_La-nina-lava-el-plato.wav,,,,,,,,,,,,,,,,,,,,,,352.1678,354.5515,1,0,1.8571,,0,26,26,70,1,0,castilian,,,,,,,,,,,,,,,,,,,,,,,,,,,,,,,,,,,,,,,,,,,,,,,,,,,,,,,,
,,,,,,,,,67d5f6c42a9c97450f6bbcd5,spanish,13 or older,"no, only English or Spanish",no,2025-07-23_02h56.16.342,empathy_intonation_perc,2024.2.4,Win32,61.72839506,67d5f6c42a9c97450f6bbcd5,687ed1b7e638a4cbf2f02089,6880bf1a60db0a9d0ba5eea0,,,,,,,,,,,,,82,0,,./stim/wavs/mexican_mismatch_declarative-broad-focus_Mi-novio-viene-del-lago.wav,,,,,,,,,,,,,,,,,,,,,,354.5537,356.433,1,0,1.3518,,0,27,27,81,1,0,mexican,,,,,,,,,,,,,,,,,,,,,,,,,,,,,,,,,,,,,,,,,,,,,,,,,,,,,,,,
,,,,,,,,,67d5f6c42a9c97450f6bbcd5,spanish,13 or older,"no, only English or Spanish",no,2025-07-23_02h56.16.342,empathy_intonation_perc,2024.2.4,Win32,61.72839506,67d5f6c42a9c97450f6bbcd5,687ed1b7e638a4cbf2f02089,6880bf1a60db0a9d0ba5eea0,,,,,,,,,,,,,44,1,,./stim/wavs/puertorican_mismatch_interrogative-total-yn_Mi-madre-come-la-fruta.wav,,,,,,,,,,,,,,,,,,,,,,356.4359,358.5086,1,1,1.5495,,0,28,28,43,1,1,puertorican,,,,,,,,,,,,,,,,,,,,,,,,,,,,,,,,,,,,,,,,,,,,,,,,,,,,,,,,
,,,,,,,,,67d5f6c42a9c97450f6bbcd5,spanish,13 or older,"no, only English or Spanish",no,2025-07-23_02h56.16.342,empathy_intonation_perc,2024.2.4,Win32,61.72839506,67d5f6c42a9c97450f6bbcd5,687ed1b7e638a4cbf2f02089,6880bf1a60db0a9d0ba5eea0,,,,,,,,,,,,,22,1,,./stim/wavs/puertorican_match_interrogative-total-yn_Emilio-ama-la-marcha.wav,,,,,,,,,,,,,,,,,,,,,,358.5098,360.4329,1,1,1.4018,,0,29,29,21,1,1,puertorican,,,,,,,,,,,,,,,,,,,,,,,,,,,,,,,,,,,,,,,,,,,,,,,,,,,,,,,,
,,,,,,,,,67d5f6c42a9c97450f6bbcd5,spanish,13 or older,"no, only English or Spanish",no,2025-07-23_02h56.16.342,empathy_intonation_perc,2024.2.4,Win32,61.72839506,67d5f6c42a9c97450f6bbcd5,687ed1b7e638a4cbf2f02089,6880bf1a60db0a9d0ba5eea0,,,,,,,,,,,,,17,1,,./stim/wavs/mexican_match_interrogative-total-yn_Mariano-habla-del-tiempo.wav,,,,,,,,,,,,,,,,,,,,,,360.4356,362.7491,0,0,1.7832,,0,30,30,16,1,0,mexican,,,,,,,,,,,,,,,,,,,,,,,,,,,,,,,,,,,,,,,,,,,,,,,,,,,,,,,,
,,,,,,,,,67d5f6c42a9c97450f6bbcd5,spanish,13 or older,"no, only English or Spanish",no,2025-07-23_02h56.16.342,empathy_intonation_perc,2024.2.4,Win32,61.72839506,67d5f6c42a9c97450f6bbcd5,687ed1b7e638a4cbf2f02089,6880bf1a60db0a9d0ba5eea0,,,,,,,,,,,,,20,1,,./stim/wavs/puertorican_match_interrogative-total-yn_Daniel-iba-a-Bolivia.wav,,,,,,,,,,,,,,,,,,,,,,362.7515,364.8492,1,1,1.5726,,0,31,31,19,1,1,puertorican,,,,,,,,,,,,,,,,,,,,,,,,,,,,,,,,,,,,,,,,,,,,,,,,,,,,,,,,
,,,,,,,,,67d5f6c42a9c97450f6bbcd5,spanish,13 or older,"no, only English or Spanish",no,2025-07-23_02h56.16.342,empathy_intonation_perc,2024.2.4,Win32,61.72839506,67d5f6c42a9c97450f6bbcd5,687ed1b7e638a4cbf2f02089,6880bf1a60db0a9d0ba5eea0,,,,,,,,,,,,,27,1,,./stim/wavs/castilian_mismatch_interrogative-total-yn_Mi-madre-come-la-fruta.wav,,,,,,,,,,,,,,,,,,,,,,364.8521,366.4322,1,1,1.0564,,0,32,32,26,1,0,castilian,,,,,,,,,,,,,,,,,,,,,,,,,,,,,,,,,,,,,,,,,,,,,,,,,,,,,,,,
,,,,,,,,,67d5f6c42a9c97450f6bbcd5,spanish,13 or older,"no, only English or Spanish",no,2025-07-23_02h56.16.342,empathy_intonation_perc,2024.2.4,Win32,61.72839506,67d5f6c42a9c97450f6bbcd5,687ed1b7e638a4cbf2f02089,6880bf1a60db0a9d0ba5eea0,,,,,,,,,,,,,86,0,,./stim/wavs/puertorican_mismatch_declarative-broad-focus_El-nino-oye-el-rio.wav,,,,,,,,,,,,,,,,,,,,,,366.4354,368.9156,1,0,1.9509,,0,33,33,85,1,0,puertorican,,,,,,,,,,,,,,,,,,,,,,,,,,,,,,,,,,,,,,,,,,,,,,,,,,,,,,,,
,,,,,,,,,67d5f6c42a9c97450f6bbcd5,spanish,13 or older,"no, only English or Spanish",no,2025-07-23_02h56.16.342,empathy_intonation_perc,2024.2.4,Win32,61.72839506,67d5f6c42a9c97450f6bbcd5,687ed1b7e638a4cbf2f02089,6880bf1a60db0a9d0ba5eea0,,,,,,,,,,,,,57,0,,./stim/wavs/mexican_match_declarative-broad-focus_Ana-lleva-el-abrigo.wav,,,,,,,,,,,,,,,,,,,,,,368.9183,370.7487,1,0,1.3002,,0,34,34,56,1,0,mexican,,,,,,,,,,,,,,,,,,,,,,,,,,,,,,,,,,,,,,,,,,,,,,,,,,,,,,,,
,,,,,,,,,67d5f6c42a9c97450f6bbcd5,spanish,13 or older,"no, only English or Spanish",no,2025-07-23_02h56.16.342,empathy_intonation_perc,2024.2.4,Win32,61.72839506,67d5f6c42a9c97450f6bbcd5,687ed1b7e638a4cbf2f02089,6880bf1a60db0a9d0ba5eea0,,,,,,,,,,,,,25,1,,./stim/wavs/castilian_mismatch_interrogative-total-yn_La-maestra-vive-en-Paris.wav,,,,,,,,,,,,,,,,,,,,,,370.7516,373.1817,1,1,1.9044,,0,35,35,24,1,0,castilian,,,,,,,,,,,,,,,,,,,,,,,,,,,,,,,,,,,,,,,,,,,,,,,,,,,,,,,,
,,,,,,,,,67d5f6c42a9c97450f6bbcd5,spanish,13 or older,"no, only English or Spanish",no,2025-07-23_02h56.16.342,empathy_intonation_perc,2024.2.4,Win32,61.72839506,67d5f6c42a9c97450f6bbcd5,687ed1b7e638a4cbf2f02089,6880bf1a60db0a9d0ba5eea0,,,,,,,,,,,,,51,0,,./stim/wavs/cuban_match_declarative-broad-focus_Ana-lleva-el-abrigo.wav,,,,,,,,,,,,,,,,,,,,,,373.1842,375.5654,0,1,1.8532,,0,36,36,50,1,0,cuban,,,,,,,,,,,,,,,,,,,,,,,,,,,,,,,,,,,,,,,,,,,,,,,,,,,,,,,,
,,,,,,,,,67d5f6c42a9c97450f6bbcd5,spanish,13 or older,"no, only English or Spanish",no,2025-07-23_02h56.16.342,empathy_intonation_perc,2024.2.4,Win32,61.72839506,67d5f6c42a9c97450f6bbcd5,687ed1b7e638a4cbf2f02089,6880bf1a60db0a9d0ba5eea0,,,,,,,,,,,,,33,1,,./stim/wavs/cuban_mismatch_interrogative-total-yn_Mi-novio-viene-del-lago.wav,,,,,,,,,,,,,,,,,,,,,,375.5678,378.4314,1,1,2.3336,,0,37,37,32,1,1,cuban,,,,,,,,,,,,,,,,,,,,,,,,,,,,,,,,,,,,,,,,,,,,,,,,,,,,,,,,
,,,,,,,,,67d5f6c42a9c97450f6bbcd5,spanish,13 or older,"no, only English or Spanish",no,2025-07-23_02h56.16.342,empathy_intonation_perc,2024.2.4,Win32,61.72839506,67d5f6c42a9c97450f6bbcd5,687ed1b7e638a4cbf2f02089,6880bf1a60db0a9d0ba5eea0,,,,,,,,,,,,,68,0,,./stim/wavs/puertorican_match_declarative-broad-focus_Maria-bebe-el-vino.wav,,,,,,,,,,,,,,,,,,,,,,378.4335,380.4821,1,0,1.5068,,0,38,38,67,1,0,puertorican,,,,,,,,,,,,,,,,,,,,,,,,,,,,,,,,,,,,,,,,,,,,,,,,,,,,,,,,
,,,,,,,,,67d5f6c42a9c97450f6bbcd5,spanish,13 or older,"no, only English or Spanish",no,2025-07-23_02h56.16.342,empathy_intonation_perc,2024.2.4,Win32,61.72839506,67d5f6c42a9c97450f6bbcd5,687ed1b7e638a4cbf2f02089,6880bf1a60db0a9d0ba5eea0,,,,,,,,,,,,,55,0,,./stim/wavs/cuban_match_declarative-broad-focus_Mariano-habla-del-tiempo.wav,,,,,,,,,,,,,,,,,,,,,,380.4851,382.6477,1,0,1.6338,,0,39,39,54,1,0,cuban,,,,,,,,,,,,,,,,,,,,,,,,,,,,,,,,,,,,,,,,,,,,,,,,,,,,,,,,
,,,,,,,,,67d5f6c42a9c97450f6bbcd5,spanish,13 or older,"no, only English or Spanish",no,2025-07-23_02h56.16.342,empathy_intonation_perc,2024.2.4,Win32,61.72839506,67d5f6c42a9c97450f6bbcd5,687ed1b7e638a4cbf2f02089,6880bf1a60db0a9d0ba5eea0,,,,,,,,,,,,,6,1,,./stim/wavs/castilian_match_interrogative-total-yn_Marta-abre-el-regalo.wav,,,,,,,,,,,,,,,,,,,,,,382.6504,384.9647,1,1,1.7848,,0,40,40,5,1,0,castilian,,,,,,,,,,,,,,,,,,,,,,,,,,,,,,,,,,,,,,,,,,,,,,,,,,,,,,,,
,,,,,,,,,67d5f6c42a9c97450f6bbcd5,spanish,13 or older,"no, only English or Spanish",no,2025-07-23_02h56.16.342,empathy_intonation_perc,2024.2.4,Win32,61.72839506,67d5f6c42a9c97450f6bbcd5,687ed1b7e638a4cbf2f02089,6880bf1a60db0a9d0ba5eea0,,,,,,,,,,,,,63,0,,./stim/wavs/puertorican_match_declarative-broad-focus_Ana-lleva-el-abrigo.wav,,,,,,,,,,,,,,,,,,,,,,384.9675,387.6639,1,0,2.1557,,0,41,41,62,1,0,puertorican,,,,,,,,,,,,,,,,,,,,,,,,,,,,,,,,,,,,,,,,,,,,,,,,,,,,,,,,
,,,,,,,,,67d5f6c42a9c97450f6bbcd5,spanish,13 or older,"no, only English or Spanish",no,2025-07-23_02h56.16.342,empathy_intonation_perc,2024.2.4,Win32,61.72839506,67d5f6c42a9c97450f6bbcd5,687ed1b7e638a4cbf2f02089,6880bf1a60db0a9d0ba5eea0,,,,,,,,,,,,,38,1,,./stim/wavs/mexican_mismatch_interrogative-total-yn_Mi-novio-viene-del-lago.wav,,,,,,,,,,,,,,,,,,,,,,387.6665,389.6476,1,1,1.4504,,0,42,42,37,1,0,mexican,,,,,,,,,,,,,,,,,,,,,,,,,,,,,,,,,,,,,,,,,,,,,,,,,,,,,,,,
,,,,,,,,,67d5f6c42a9c97450f6bbcd5,spanish,13 or older,"no, only English or Spanish",no,2025-07-23_02h56.16.342,empathy_intonation_perc,2024.2.4,Win32,61.72839506,67d5f6c42a9c97450f6bbcd5,687ed1b7e638a4cbf2f02089,6880bf1a60db0a9d0ba5eea0,,,,,,,,,,,,,36,1,,./stim/wavs/mexican_mismatch_interrogative-total-yn_El-nino-oye-el-rio.wav,,,,,,,,,,,,,,,,,,,,,,389.6501,391.0904,0,0,0.915,,0,43,43,35,1,0,mexican,,,,,,,,,,,,,,,,,,,,,,,,,,,,,,,,,,,,,,,,,,,,,,,,,,,,,,,,
,,,,,,,,,67d5f6c42a9c97450f6bbcd5,spanish,13 or older,"no, only English or Spanish",no,2025-07-23_02h56.16.342,empathy_intonation_perc,2024.2.4,Win32,61.72839506,67d5f6c42a9c97450f6bbcd5,687ed1b7e638a4cbf2f02089,6880bf1a60db0a9d0ba5eea0,,,,,,,,,,,,,4,1,,./stim/wavs/castilian_match_interrogative-total-yn_Maria-bebe-el-vino.wav,,,,,,,,,,,,,,,,,,,,,,391.0916,393.514,1,1,1.9034,,0,44,44,3,1,0,castilian,,,,,,,,,,,,,,,,,,,,,,,,,,,,,,,,,,,,,,,,,,,,,,,,,,,,,,,,
,,,,,,,,,67d5f6c42a9c97450f6bbcd5,spanish,13 or older,"no, only English or Spanish",no,2025-07-23_02h56.16.342,empathy_intonation_perc,2024.2.4,Win32,61.72839506,67d5f6c42a9c97450f6bbcd5,687ed1b7e638a4cbf2f02089,6880bf1a60db0a9d0ba5eea0,,,,,,,,,,,,,31,1,,./stim/wavs/cuban_mismatch_interrogative-total-yn_El-nino-oye-el-rio.wav,,,,,,,,,,,,,,,,,,,,,,393.5172,395.8578,1,1,1.8172,,0,45,45,30,1,1,cuban,,,,,,,,,,,,,,,,,,,,,,,,,,,,,,,,,,,,,,,,,,,,,,,,,,,,,,,,
,,,,,,,,,67d5f6c42a9c97450f6bbcd5,spanish,13 or older,"no, only English or Spanish",no,2025-07-23_02h56.16.342,empathy_intonation_perc,2024.2.4,Win32,61.72839506,67d5f6c42a9c97450f6bbcd5,687ed1b7e638a4cbf2f02089,6880bf1a60db0a9d0ba5eea0,,,,,,,,,,,,,69,0,,./stim/wavs/castilian_mismatch_declarative-broad-focus_El-nino-oye-el-rio.wav,,,,,,,,,,,,,,,,,,,,,,395.8588,398.1155,1,0,1.7398,,0,46,46,68,1,0,castilian,,,,,,,,,,,,,,,,,,,,,,,,,,,,,,,,,,,,,,,,,,,,,,,,,,,,,,,,
,,,,,,,,,67d5f6c42a9c97450f6bbcd5,spanish,13 or older,"no, only English or Spanish",no,2025-07-23_02h56.16.342,empathy_intonation_perc,2024.2.4,Win32,61.72839506,67d5f6c42a9c97450f6bbcd5,687ed1b7e638a4cbf2f02089,6880bf1a60db0a9d0ba5eea0,,,,,,,,,,,,,28,1,,./stim/wavs/castilian_mismatch_interrogative-total-yn_Mi-novio-viene-del-lago.wav,,,,,,,,,,,,,,,,,,,,,,398.1179,400.3645,1,1,1.7052,,0,47,47,27,1,0,castilian,,,,,,,,,,,,,,,,,,,,,,,,,,,,,,,,,,,,,,,,,,,,,,,,,,,,,,,,
,,,,,,,,,67d5f6c42a9c97450f6bbcd5,spanish,13 or older,"no, only English or Spanish",no,2025-07-23_02h56.16.342,empathy_intonation_perc,2024.2.4,Win32,61.72839506,67d5f6c42a9c97450f6bbcd5,687ed1b7e638a4cbf2f02089,6880bf1a60db0a9d0ba5eea0,,,,,,,,,,,,,7,1,,./stim/wavs/cuban_match_interrogative-total-yn_Ana-lleva-el-abrigo.wav,,,,,,,,,,,,,,,,,,,,,,400.3677,403.1902,1,1,2.2999,,0,48,48,6,1,1,cuban,,,,,,,,,,,,,,,,,,,,,,,,,,,,,,,,,,,,,,,,,,,,,,,,,,,,,,,,
,,,,,,,,,67d5f6c42a9c97450f6bbcd5,spanish,13 or older,"no, only English or Spanish",no,2025-07-23_02h56.16.342,empathy_intonation_perc,2024.2.4,Win32,61.72839506,67d5f6c42a9c97450f6bbcd5,687ed1b7e638a4cbf2f02089,6880bf1a60db0a9d0ba5eea0,,,,,,,,,,,,,54,0,,./stim/wavs/cuban_match_declarative-broad-focus_Maria-bebe-el-vino.wav,,,,,,,,,,,,,,,,,,,,,,403.1915,406.4962,1,0,2.7847,,0,49,49,53,1,0,cuban,,,,,,,,,,,,,,,,,,,,,,,,,,,,,,,,,,,,,,,,,,,,,,,,,,,,,,,,
,,,,,,,,,67d5f6c42a9c97450f6bbcd5,spanish,13 or older,"no, only English or Spanish",no,2025-07-23_02h56.16.342,empathy_intonation_perc,2024.2.4,Win32,61.72839506,67d5f6c42a9c97450f6bbcd5,687ed1b7e638a4cbf2f02089,6880bf1a60db0a9d0ba5eea0,,,,,,,,,,,,,32,1,,./stim/wavs/cuban_mismatch_interrogative-total-yn_Mi-madre-come-la-fruta.wav,,,,,,,,,,,,,,,,,,,,,,406.4984,409.0399,1,1,2.0163,,0,50,50,31,1,1,cuban,,,,,,,,,,,,,,,,,,,,,,,,,,,,,,,,,,,,,,,,,,,,,,,,,,,,,,,,
,,,,,,,,,67d5f6c42a9c97450f6bbcd5,spanish,13 or older,"no, only English or Spanish",no,2025-07-23_02h56.16.342,empathy_intonation_perc,2024.2.4,Win32,61.72839506,67d5f6c42a9c97450f6bbcd5,687ed1b7e638a4cbf2f02089,6880bf1a60db0a9d0ba5eea0,,,,,,,,,,,,,39,1,,./stim/wavs/mexican_mismatch_interrogative-total-yn_Mi-tia-odia-la-lluvia.wav,,,,,,,,,,,,,,,,,,,,,,409.0411,411.1799,1,1,1.6184,,0,51,51,38,1,0,mexican,,,,,,,,,,,,,,,,,,,,,,,,,,,,,,,,,,,,,,,,,,,,,,,,,,,,,,,,
,,,,,,,,,67d5f6c42a9c97450f6bbcd5,spanish,13 or older,"no, only English or Spanish",no,2025-07-23_02h56.16.342,empathy_intonation_perc,2024.2.4,Win32,61.72839506,67d5f6c42a9c97450f6bbcd5,687ed1b7e638a4cbf2f02089,6880bf1a60db0a9d0ba5eea0,,,,,,,,,,,,,49,0,,./stim/wavs/castilian_match_declarative-broad-focus_Mariano-habla-del-tiempo.wav,,,,,,,,,,,,,,,,,,,,,,411.1831,414.0796,0,1,2.3674,,0,52,52,48,1,0,castilian,,,,,,,,,,,,,,,,,,,,,,,,,,,,,,,,,,,,,,,,,,,,,,,,,,,,,,,,
,,,,,,,,,67d5f6c42a9c97450f6bbcd5,spanish,13 or older,"no, only English or Spanish",no,2025-07-23_02h56.16.342,empathy_intonation_perc,2024.2.4,Win32,61.72839506,67d5f6c42a9c97450f6bbcd5,687ed1b7e638a4cbf2f02089,6880bf1a60db0a9d0ba5eea0,,,,,,,,,,,,,77,0,,./stim/wavs/cuban_mismatch_declarative-broad-focus_Mi-novio-viene-del-lago.wav,,,,,,,,,,,,,,,,,,,,,,414.0821,417.2293,1,0,2.6183,,0,53,53,76,1,0,cuban,,,,,,,,,,,,,,,,,,,,,,,,,,,,,,,,,,,,,,,,,,,,,,,,,,,,,,,,
,,,,,,,,,67d5f6c42a9c97450f6bbcd5,spanish,13 or older,"no, only English or Spanish",no,2025-07-23_02h56.16.342,empathy_intonation_perc,2024.2.4,Win32,61.72839506,67d5f6c42a9c97450f6bbcd5,687ed1b7e638a4cbf2f02089,6880bf1a60db0a9d0ba5eea0,,,,,,,,,,,,,81,0,,./stim/wavs/mexican_mismatch_declarative-broad-focus_La-maestra-vive-en-Paris.wav,,,,,,,,,,,,,,,,,,,,,,417.2314,419.2624,1,0,1.5011,,0,54,54,80,1,0,mexican,,,,,,,,,,,,,,,,,,,,,,,,,,,,,,,,,,,,,,,,,,,,,,,,,,,,,,,,
,,,,,,,,,67d5f6c42a9c97450f6bbcd5,spanish,13 or older,"no, only English or Spanish",no,2025-07-23_02h56.16.342,empathy_intonation_perc,2024.2.4,Win32,61.72839506,67d5f6c42a9c97450f6bbcd5,687ed1b7e638a4cbf2f02089,6880bf1a60db0a9d0ba5eea0,,,,,,,,,,,,,70,0,,./stim/wavs/castilian_mismatch_declarative-broad-focus_La-maestra-vive-en-Paris.wav,,,,,,,,,,,,,,,,,,,,,,419.2653,421.3291,1,0,1.5335,,0,55,55,69,1,0,castilian,,,,,,,,,,,,,,,,,,,,,,,,,,,,,,,,,,,,,,,,,,,,,,,,,,,,,,,,
,,,,,,,,,67d5f6c42a9c97450f6bbcd5,spanish,13 or older,"no, only English or Spanish",no,2025-07-23_02h56.16.342,empathy_intonation_perc,2024.2.4,Win32,61.72839506,67d5f6c42a9c97450f6bbcd5,687ed1b7e638a4cbf2f02089,6880bf1a60db0a9d0ba5eea0,,,,,,,,,,,,,19,1,,./stim/wavs/puertorican_match_interrogative-total-yn_Ana-lleva-el-abrigo.wav,,,,,,,,,,,,,,,,,,,,,,421.3313,423.2463,1,1,1.3782,,0,56,56,18,1,1,puertorican,,,,,,,,,,,,,,,,,,,,,,,,,,,,,,,,,,,,,,,,,,,,,,,,,,,,,,,,
,,,,,,,,,67d5f6c42a9c97450f6bbcd5,spanish,13 or older,"no, only English or Spanish",no,2025-07-23_02h56.16.342,empathy_intonation_perc,2024.2.4,Win32,61.72839506,67d5f6c42a9c97450f6bbcd5,687ed1b7e638a4cbf2f02089,6880bf1a60db0a9d0ba5eea0,,,,,,,,,,,,,41,1,,./stim/wavs/puertorican_mismatch_interrogative-total-yn_El-nino-oye-el-rio.wav,,,,,,,,,,,,,,,,,,,,,,423.2497,425.063,1,1,1.2865,,0,57,57,40,1,1,puertorican,,,,,,,,,,,,,,,,,,,,,,,,,,,,,,,,,,,,,,,,,,,,,,,,,,,,,,,,
,,,,,,,,,67d5f6c42a9c97450f6bbcd5,spanish,13 or older,"no, only English or Spanish",no,2025-07-23_02h56.16.342,empathy_intonation_perc,2024.2.4,Win32,61.72839506,67d5f6c42a9c97450f6bbcd5,687ed1b7e638a4cbf2f02089,6880bf1a60db0a9d0ba5eea0,,,,,,,,,,,,,23,1,,./stim/wavs/puertorican_match_interrogative-total-yn_Manuela-vende-el-carro.wav,,,,,,,,,,,,,,,,,,,,,,425.0662,426.8786,1,1,1.2844,,0,58,58,22,1,1,puertorican,,,,,,,,,,,,,,,,,,,,,,,,,,,,,,,,,,,,,,,,,,,,,,,,,,,,,,,,
,,,,,,,,,67d5f6c42a9c97450f6bbcd5,spanish,13 or older,"no, only English or Spanish",no,2025-07-23_02h56.16.342,empathy_intonation_perc,2024.2.4,Win32,61.72839506,67d5f6c42a9c97450f6bbcd5,687ed1b7e638a4cbf2f02089,6880bf1a60db0a9d0ba5eea0,,,,,,,,,,,,,42,1,,./stim/wavs/puertorican_mismatch_interrogative-total-yn_La-maestra-vive-en-Paris.wav,,,,,,,,,,,,,,,,,,,,,,426.8808,428.9786,1,1,1.5681,,0,59,59,41,1,1,puertorican,,,,,,,,,,,,,,,,,,,,,,,,,,,,,,,,,,,,,,,,,,,,,,,,,,,,,,,,
,,,,,,,,,67d5f6c42a9c97450f6bbcd5,spanish,13 or older,"no, only English or Spanish",no,2025-07-23_02h56.16.342,empathy_intonation_perc,2024.2.4,Win32,61.72839506,67d5f6c42a9c97450f6bbcd5,687ed1b7e638a4cbf2f02089,6880bf1a60db0a9d0ba5eea0,,,,,,,,,,,,,8,1,,./stim/wavs/cuban_match_interrogative-total-yn_Daniel-iba-a-Bolivia.wav,,,,,,,,,,,,,,,,,,,,,,428.981,431.697,1,1,2.1913,,0,60,60,7,1,1,cuban,,,,,,,,,,,,,,,,,,,,,,,,,,,,,,,,,,,,,,,,,,,,,,,,,,,,,,,,
,,,,,,,,,67d5f6c42a9c97450f6bbcd5,spanish,13 or older,"no, only English or Spanish",no,2025-07-23_02h56.16.342,empathy_intonation_perc,2024.2.4,Win32,61.72839506,67d5f6c42a9c97450f6bbcd5,687ed1b7e638a4cbf2f02089,6880bf1a60db0a9d0ba5eea0,,,,,,,,,,,,,60,0,,./stim/wavs/mexican_match_declarative-broad-focus_Emilio-ama-la-marcha.wav,,,,,,,,,,,,,,,,,,,,,,431.699,434.0454,0,1,1.8214,,0,61,61,59,1,0,mexican,,,,,,,,,,,,,,,,,,,,,,,,,,,,,,,,,,,,,,,,,,,,,,,,,,,,,,,,
,,,,,,,,,67d5f6c42a9c97450f6bbcd5,spanish,13 or older,"no, only English or Spanish",no,2025-07-23_02h56.16.342,empathy_intonation_perc,2024.2.4,Win32,61.72839506,67d5f6c42a9c97450f6bbcd5,687ed1b7e638a4cbf2f02089,6880bf1a60db0a9d0ba5eea0,,,,,,,,,,,,,14,1,,./stim/wavs/mexican_match_interrogative-total-yn_Daniel-iba-a-Bolivia.wav,,,,,,,,,,,,,,,,,,,,,,434.0478,436.3112,0,0,1.7341,,0,62,62,13,1,0,mexican,,,,,,,,,,,,,,,,,,,,,,,,,,,,,,,,,,,,,,,,,,,,,,,,,,,,,,,,
,,,,,,,,,67d5f6c42a9c97450f6bbcd5,spanish,13 or older,"no, only English or Spanish",no,2025-07-23_02h56.16.342,empathy_intonation_perc,2024.2.4,Win32,61.72839506,67d5f6c42a9c97450f6bbcd5,687ed1b7e638a4cbf2f02089,6880bf1a60db0a9d0ba5eea0,,,,,,,,,,,,,48,0,,./stim/wavs/castilian_match_declarative-broad-focus_Maria-bebe-el-vino.wav,,,,,,,,,,,,,,,,,,,,,,436.3135,439.853,0,1,3.0148,,0,63,63,47,1,0,castilian,,,,,,,,,,,,,,,,,,,,,,,,,,,,,,,,,,,,,,,,,,,,,,,,,,,,,,,,
,,,,,,,,,67d5f6c42a9c97450f6bbcd5,spanish,13 or older,"no, only English or Spanish",no,2025-07-23_02h56.16.342,empathy_intonation_perc,2024.2.4,Win32,61.72839506,67d5f6c42a9c97450f6bbcd5,687ed1b7e638a4cbf2f02089,6880bf1a60db0a9d0ba5eea0,,,,,,,,,,,,,83,0,,./stim/wavs/mexican_mismatch_declarative-broad-focus_Mi-tia-odia-la-lluvia.wav,,,,,,,,,,,,,,,,,,,,,,439.8544,442.0884,1,0,1.717,,0,64,64,82,1,0,mexican,,,,,,,,,,,,,,,,,,,,,,,,,,,,,,,,,,,,,,,,,,,,,,,,,,,,,,,,
,,,,,,,,,67d5f6c42a9c97450f6bbcd5,spanish,13 or older,"no, only English or Spanish",no,2025-07-23_02h56.16.342,empathy_intonation_perc,2024.2.4,Win32,61.72839506,67d5f6c42a9c97450f6bbcd5,687ed1b7e638a4cbf2f02089,6880bf1a60db0a9d0ba5eea0,,,,,,,,,,,,,53,0,,./stim/wavs/cuban_match_declarative-broad-focus_Manuela-vende-el-carro.wav,,,,,,,,,,,,,,,,,,,,,,442.0894,444.4277,1,0,1.8015,,0,65,65,52,1,0,cuban,,,,,,,,,,,,,,,,,,,,,,,,,,,,,,,,,,,,,,,,,,,,,,,,,,,,,,,,
,,,,,,,,,67d5f6c42a9c97450f6bbcd5,spanish,13 or older,"no, only English or Spanish",no,2025-07-23_02h56.16.342,empathy_intonation_perc,2024.2.4,Win32,61.72839506,67d5f6c42a9c97450f6bbcd5,687ed1b7e638a4cbf2f02089,6880bf1a60db0a9d0ba5eea0,,,,,,,,,,,,,85,0,,./stim/wavs/puertorican_mismatch_declarative-broad-focus_El-hombre-mira-la-luna.wav,,,,,,,,,,,,,,,,,,,,,,444.4301,446.5954,1,0,1.6359,,0,66,66,84,1,0,puertorican,,,,,,,,,,,,,,,,,,,,,,,,,,,,,,,,,,,,,,,,,,,,,,,,,,,,,,,,
,,,,,,,,,67d5f6c42a9c97450f6bbcd5,spanish,13 or older,"no, only English or Spanish",no,2025-07-23_02h56.16.342,empathy_intonation_perc,2024.2.4,Win32,61.72839506,67d5f6c42a9c97450f6bbcd5,687ed1b7e638a4cbf2f02089,6880bf1a60db0a9d0ba5eea0,,,,,,,,,,,,,15,1,,./stim/wavs/mexican_match_interrogative-total-yn_David-leia-el-libro.wav,,,,,,,,,,,,,,,,,,,,,,446.5985,449.1208,1,1,1.9995,,0,67,67,14,1,0,mexican,,,,,,,,,,,,,,,,,,,,,,,,,,,,,,,,,,,,,,,,,,,,,,,,,,,,,,,,
,,,,,,,,,67d5f6c42a9c97450f6bbcd5,spanish,13 or older,"no, only English or Spanish",no,2025-07-23_02h56.16.342,empathy_intonation_perc,2024.2.4,Win32,61.72839506,67d5f6c42a9c97450f6bbcd5,687ed1b7e638a4cbf2f02089,6880bf1a60db0a9d0ba5eea0,,,,,,,,,,,,,74,0,,./stim/wavs/cuban_mismatch_declarative-broad-focus_El-bebe-comia-muy-bien.wav,,,,,,,,,,,,,,,,,,,,,,449.1219,451.6274,1,0,1.9852,,0,68,68,73,1,0,cuban,,,,,,,,,,,,,,,,,,,,,,,,,,,,,,,,,,,,,,,,,,,,,,,,,,,,,,,,
,,,,,,,,,67d5f6c42a9c97450f6bbcd5,spanish,13 or older,"no, only English or Spanish",no,2025-07-23_02h56.16.342,empathy_intonation_perc,2024.2.4,Win32,61.72839506,67d5f6c42a9c97450f6bbcd5,687ed1b7e638a4cbf2f02089,6880bf1a60db0a9d0ba5eea0,,,,,,,,,,,,,58,0,,./stim/wavs/mexican_match_declarative-broad-focus_Daniel-iba-a-Bolivia.wav,,,,,,,,,,,,,,,,,,,,,,451.6299,453.9281,1,0,1.7669,,0,69,69,57,1,0,mexican,,,,,,,,,,,,,,,,,,,,,,,,,,,,,,,,,,,,,,,,,,,,,,,,,,,,,,,,
,,,,,,,,,67d5f6c42a9c97450f6bbcd5,spanish,13 or older,"no, only English or Spanish",no,2025-07-23_02h56.16.342,empathy_intonation_perc,2024.2.4,Win32,61.72839506,67d5f6c42a9c97450f6bbcd5,687ed1b7e638a4cbf2f02089,6880bf1a60db0a9d0ba5eea0,,,,,,,,,,,,,5,1,,./stim/wavs/castilian_match_interrogative-total-yn_Mariano-habla-del-tiempo.wav,,,,,,,,,,,,,,,,,,,,,,453.9305,456.6106,1,1,2.1512,,0,70,70,4,1,0,castilian,,,,,,,,,,,,,,,,,,,,,,,,,,,,,,,,,,,,,,,,,,,,,,,,,,,,,,,,
,,,,,,,,,67d5f6c42a9c97450f6bbcd5,spanish,13 or older,"no, only English or Spanish",no,2025-07-23_02h56.16.342,empathy_intonation_perc,2024.2.4,Win32,61.72839506,67d5f6c42a9c97450f6bbcd5,687ed1b7e638a4cbf2f02089,6880bf1a60db0a9d0ba5eea0,,,,,,,,,,,,,18,1,,./stim/wavs/mexican_match_interrogative-total-yn_Marta-abre-el-regalo.wav,,,,,,,,,,,,,,,,,,,,,,456.6133,458.8436,1,1,1.701,,0,71,71,17,1,0,mexican,,,,,,,,,,,,,,,,,,,,,,,,,,,,,,,,,,,,,,,,,,,,,,,,,,,,,,,,
,,,,,,,,,67d5f6c42a9c97450f6bbcd5,spanish,13 or older,"no, only English or Spanish",no,2025-07-23_02h56.16.342,empathy_intonation_perc,2024.2.4,Win32,61.72839506,67d5f6c42a9c97450f6bbcd5,687ed1b7e638a4cbf2f02089,6880bf1a60db0a9d0ba5eea0,,,,,,,,,,,,,2,1,,./stim/wavs/castilian_match_interrogative-total-yn_Emilio-ama-la-marcha.wav,,,,,,,,,,,,,,,,,,,,,,458.8469,462.6435,1,1,3.2674,,0,72,72,1,1,0,castilian,,,,,,,,,,,,,,,,,,,,,,,,,,,,,,,,,,,,,,,,,,,,,,,,,,,,,,,,
,,,,,,,,,67d5f6c42a9c97450f6bbcd5,spanish,13 or older,"no, only English or Spanish",no,2025-07-23_02h56.16.342,empathy_intonation_perc,2024.2.4,Win32,61.72839506,67d5f6c42a9c97450f6bbcd5,687ed1b7e638a4cbf2f02089,6880bf1a60db0a9d0ba5eea0,,,,,,,,,,,,,66,0,,./stim/wavs/puertorican_match_declarative-broad-focus_Emilio-ama-la-marcha.wav,,,,,,,,,,,,,,,,,,,,,,462.6462,465.1936,1,0,2.0159,,0,73,73,65,1,0,puertorican,,,,,,,,,,,,,,,,,,,,,,,,,,,,,,,,,,,,,,,,,,,,,,,,,,,,,,,,
,,,,,,,,,67d5f6c42a9c97450f6bbcd5,spanish,13 or older,"no, only English or Spanish",no,2025-07-23_02h56.16.342,empathy_intonation_perc,2024.2.4,Win32,61.72839506,67d5f6c42a9c97450f6bbcd5,687ed1b7e638a4cbf2f02089,6880bf1a60db0a9d0ba5eea0,,,,,,,,,,,,,30,1,,./stim/wavs/cuban_mismatch_interrogative-total-yn_El-hombre-mira-la-luna.wav,,,,,,,,,,,,,,,,,,,,,,465.1965,467.3263,1,1,1.5998,,0,74,74,29,1,1,cuban,,,,,,,,,,,,,,,,,,,,,,,,,,,,,,,,,,,,,,,,,,,,,,,,,,,,,,,,
,,,,,,,,,67d5f6c42a9c97450f6bbcd5,spanish,13 or older,"no, only English or Spanish",no,2025-07-23_02h56.16.342,empathy_intonation_perc,2024.2.4,Win32,61.72839506,67d5f6c42a9c97450f6bbcd5,687ed1b7e638a4cbf2f02089,6880bf1a60db0a9d0ba5eea0,,,,,,,,,,,,,26,1,,./stim/wavs/castilian_mismatch_interrogative-total-yn_La-nina-lava-el-plato.wav,,,,,,,,,,,,,,,,,,,,,,467.3287,469.7941,1,1,1.9369,,0,75,75,25,1,0,castilian,,,,,,,,,,,,,,,,,,,,,,,,,,,,,,,,,,,,,,,,,,,,,,,,,,,,,,,,
,,,,,,,,,67d5f6c42a9c97450f6bbcd5,spanish,13 or older,"no, only English or Spanish",no,2025-07-23_02h56.16.342,empathy_intonation_perc,2024.2.4,Win32,61.72839506,67d5f6c42a9c97450f6bbcd5,687ed1b7e638a4cbf2f02089,6880bf1a60db0a9d0ba5eea0,,,,,,,,,,,,,12,1,,./stim/wavs/cuban_match_interrogative-total-yn_Marta-abre-el-regalo.wav,,,,,,,,,,,,,,,,,,,,,,469.7968,471.9265,1,1,1.6159,,0,76,76,11,1,1,cuban,,,,,,,,,,,,,,,,,,,,,,,,,,,,,,,,,,,,,,,,,,,,,,,,,,,,,,,,
,,,,,,,,,67d5f6c42a9c97450f6bbcd5,spanish,13 or older,"no, only English or Spanish",no,2025-07-23_02h56.16.342,empathy_intonation_perc,2024.2.4,Win32,61.72839506,67d5f6c42a9c97450f6bbcd5,687ed1b7e638a4cbf2f02089,6880bf1a60db0a9d0ba5eea0,,,,,,,,,,,,,75,0,,./stim/wavs/cuban_mismatch_declarative-broad-focus_El-hombre-mira-la-luna.wav,,,,,,,,,,,,,,,,,,,,,,471.9289,473.9267,1,0,1.47,,0,77,77,74,1,0,cuban,,,,,,,,,,,,,,,,,,,,,,,,,,,,,,,,,,,,,,,,,,,,,,,,,,,,,,,,
,,,,,,,,,67d5f6c42a9c97450f6bbcd5,spanish,13 or older,"no, only English or Spanish",no,2025-07-23_02h56.16.342,empathy_intonation_perc,2024.2.4,Win32,61.72839506,67d5f6c42a9c97450f6bbcd5,687ed1b7e638a4cbf2f02089,6880bf1a60db0a9d0ba5eea0,,,,,,,,,,,,,64,0,,./stim/wavs/puertorican_match_declarative-broad-focus_Daniel-iba-a-Bolivia.wav,,,,,,,,,,,,,,,,,,,,,,473.9295,475.8092,1,0,1.356,,0,78,78,63,1,0,puertorican,,,,,,,,,,,,,,,,,,,,,,,,,,,,,,,,,,,,,,,,,,,,,,,,,,,,,,,,
,,,,,,,,,67d5f6c42a9c97450f6bbcd5,spanish,13 or older,"no, only English or Spanish",no,2025-07-23_02h56.16.342,empathy_intonation_perc,2024.2.4,Win32,61.72839506,67d5f6c42a9c97450f6bbcd5,687ed1b7e638a4cbf2f02089,6880bf1a60db0a9d0ba5eea0,,,,,,,,,,,,,56,0,,./stim/wavs/cuban_match_declarative-broad-focus_Marta-abre-el-regalo.wav,,,,,,,,,,,,,,,,,,,,,,475.8119,477.8755,1,0,1.5363,,0,79,79,55,1,0,cuban,,,,,,,,,,,,,,,,,,,,,,,,,,,,,,,,,,,,,,,,,,,,,,,,,,,,,,,,
,,,,,,,,,67d5f6c42a9c97450f6bbcd5,spanish,13 or older,"no, only English or Spanish",no,2025-07-23_02h56.16.342,empathy_intonation_perc,2024.2.4,Win32,61.72839506,67d5f6c42a9c97450f6bbcd5,687ed1b7e638a4cbf2f02089,6880bf1a60db0a9d0ba5eea0,,,,,,,,,,,,,16,1,,./stim/wavs/mexican_match_interrogative-total-yn_Emilio-ama-la-marcha.wav,,,,,,,,,,,,,,,,,,,,,,477.8779,480.3422,1,1,1.9357,,0,80,80,15,1,0,mexican,,,,,,,,,,,,,,,,,,,,,,,,,,,,,,,,,,,,,,,,,,,,,,,,,,,,,,,,
,,,,,,,,,67d5f6c42a9c97450f6bbcd5,spanish,13 or older,"no, only English or Spanish",no,2025-07-23_02h56.16.342,empathy_intonation_perc,2024.2.4,Win32,61.72839506,67d5f6c42a9c97450f6bbcd5,687ed1b7e638a4cbf2f02089,6880bf1a60db0a9d0ba5eea0,,,,,,,,,,,,,88,0,,./stim/wavs/puertorican_mismatch_declarative-broad-focus_La-nina-lava-el-plato.wav,,,,,,,,,,,,,,,,,,,,,,480.3449,482.8418,1,0,1.9677,,0,81,81,87,1,0,puertorican,,,,,,,,,,,,,,,,,,,,,,,,,,,,,,,,,,,,,,,,,,,,,,,,,,,,,,,,
,,,,,,,,,67d5f6c42a9c97450f6bbcd5,spanish,13 or older,"no, only English or Spanish",no,2025-07-23_02h56.16.342,empathy_intonation_perc,2024.2.4,Win32,61.72839506,67d5f6c42a9c97450f6bbcd5,687ed1b7e638a4cbf2f02089,6880bf1a60db0a9d0ba5eea0,,,,,,,,,,,,,80,0,,./stim/wavs/mexican_mismatch_declarative-broad-focus_El-hombre-mira-la-luna.wav,,,,,,,,,,,,,,,,,,,,,,482.844,485.5921,1,0,2.2179,,0,82,82,79,1,0,mexican,,,,,,,,,,,,,,,,,,,,,,,,,,,,,,,,,,,,,,,,,,,,,,,,,,,,,,,,
,,,,,,,,,67d5f6c42a9c97450f6bbcd5,spanish,13 or older,"no, only English or Spanish",no,2025-07-23_02h56.16.342,empathy_intonation_perc,2024.2.4,Win32,61.72839506,67d5f6c42a9c97450f6bbcd5,687ed1b7e638a4cbf2f02089,6880bf1a60db0a9d0ba5eea0,,,,,,,,,,,,,43,1,,./stim/wavs/puertorican_mismatch_interrogative-total-yn_La-nina-lava-el-plato.wav,,,,,,,,,,,,,,,,,,,,,,485.5951,487.7254,1,1,1.6013,,0,83,83,42,1,1,puertorican,,,,,,,,,,,,,,,,,,,,,,,,,,,,,,,,,,,,,,,,,,,,,,,,,,,,,,,,
,,,,,,,,,67d5f6c42a9c97450f6bbcd5,spanish,13 or older,"no, only English or Spanish",no,2025-07-23_02h56.16.342,empathy_intonation_perc,2024.2.4,Win32,61.72839506,67d5f6c42a9c97450f6bbcd5,687ed1b7e638a4cbf2f02089,6880bf1a60db0a9d0ba5eea0,,,,,,,,,,,,,45,0,,./stim/wavs/castilian_match_declarative-broad-focus_David-leia-el-libro.wav,,,,,,,,,,,,,,,,,,,,,,487.7282,490.5758,0,1,2.3168,,0,84,84,44,1,0,castilian,,,,,,,,,,,,,,,,,,,,,,,,,,,,,,,,,,,,,,,,,,,,,,,,,,,,,,,,
,,,,,,,,,67d5f6c42a9c97450f6bbcd5,spanish,13 or older,"no, only English or Spanish",no,2025-07-23_02h56.16.342,empathy_intonation_perc,2024.2.4,Win32,61.72839506,67d5f6c42a9c97450f6bbcd5,687ed1b7e638a4cbf2f02089,6880bf1a60db0a9d0ba5eea0,,,,,,,,,,,,,78,0,,./stim/wavs/cuban_mismatch_declarative-broad-focus_Mi-tia-odia-la-lluvia.wav,,,,,,,,,,,,,,,,,,,,,,490.5782,492.9585,1,0,1.8525,,0,85,85,77,1,0,cuban,,,,,,,,,,,,,,,,,,,,,,,,,,,,,,,,,,,,,,,,,,,,,,,,,,,,,,,,
,,,,,,,,,67d5f6c42a9c97450f6bbcd5,spanish,13 or older,"no, only English or Spanish",no,2025-07-23_02h56.16.342,empathy_intonation_perc,2024.2.4,Win32,61.72839506,67d5f6c42a9c97450f6bbcd5,687ed1b7e638a4cbf2f02089,6880bf1a60db0a9d0ba5eea0,,,,,,,,,,,,,13,1,,./stim/wavs/mexican_match_interrogative-total-yn_Ana-lleva-el-abrigo.wav,,,,,,,,,,,,,,,,,,,,,,492.9608,494.9416,1,1,1.4502,,0,86,86,12,1,0,mexican,,,,,,,,,,,,,,,,,,,,,,,,,,,,,,,,,,,,,,,,,,,,,,,,,,,,,,,,
,,,,,,,,,67d5f6c42a9c97450f6bbcd5,spanish,13 or older,"no, only English or Spanish",no,2025-07-23_02h56.16.342,empathy_intonation_perc,2024.2.4,Win32,61.72839506,67d5f6c42a9c97450f6bbcd5,687ed1b7e638a4cbf2f02089,6880bf1a60db0a9d0ba5eea0,,,,,,,,,,,,,1,1,,./stim/wavs/castilian_match_interrogative-total-yn_David-leia-el-libro.wav,,,,,,,,,,,,,,,,,,,,,,494.9442,497.1584,1,1,1.6944,,0,87,87,0,1,0,castilian,,,,,,,,,,,,,,,,,,,,,,,,,,,,,,,,,,,,,,,,,,,,,,,,,,,,,,,,
,,,,,,,"Great! Now we will move on. The next task consists of about 60 trials, in each of which you will see a string of letters. 
  
  Your task is to decide whether this is a real Spanish word or not.", (press the spacebar to continue),67d5f6c42a9c97450f6bbcd5,spanish,13 or older,"no, only English or Spanish",no,2025-07-23_02h56.16.342,empathy_intonation_perc,2024.2.4,Win32,61.72839506,67d5f6c42a9c97450f6bbcd5,687ed1b7e638a4cbf2f02089,6880bf1a60db0a9d0ba5eea0,,,,,,,,,,,,,,,,,,,,,,,,,,,,,,,,,,,,,,,,,,,,,,,,,,,497.1803,508.3098,0,0,0,0,1,,,,,,,,,,,,,,,,,,,,,,,,,,,,,,,,,,,,,,,,,,,,,,,,,
,,,,,,,"If you think it is an existing Spanish word, you type '1' (for 'REAL'), and if you think it is not an existing Spanish word, you type '0' (for 'FAKE').", (press the spacebar to continue),67d5f6c42a9c97450f6bbcd5,spanish,13 or older,"no, only English or Spanish",no,2025-07-23_02h56.16.342,empathy_intonation_perc,2024.2.4,Win32,61.72839506,67d5f6c42a9c97450f6bbcd5,687ed1b7e638a4cbf2f02089,6880bf1a60db0a9d0ba5eea0,,,,,,,,,,,,,,,,,,,,,,,,,,,,,,,,,,,,,,,,,,,,,,,,,,,508.3159,512.1573,0,1,1,1,1,,,,,,,,,,,,,,,,,,,,,,,,,,,,,,,,,,,,,,,,,,,,,,,,,
,,,,,,,"If you are sure that the word exists, even though you don’t know its exact meaning, you may still respond '1' (REAL). 
  
  But if you are not sure if it is an existing word, you should respond '0' (FAKE).
  
  Let's do a practice round...", (press the spacebar to continue),67d5f6c42a9c97450f6bbcd5,spanish,13 or older,"no, only English or Spanish",no,2025-07-23_02h56.16.342,empathy_intonation_perc,2024.2.4,Win32,61.72839506,67d5f6c42a9c97450f6bbcd5,687ed1b7e638a4cbf2f02089,6880bf1a60db0a9d0ba5eea0,,,,,,,,,,,,,,,,,,,,,,,,,,,,,,,,,,,,,,,,,,,,,,,,,,,512.1641,521.1403,0,2,2,2,1,,,,,,,,,,,,,,,,,,,,,,,,,,,,,,,,,,,,,,,,,,,,,,,,,
,,,,,,,,,67d5f6c42a9c97450f6bbcd5,spanish,13 or older,"no, only English or Spanish",no,2025-07-23_02h56.16.342,empathy_intonation_perc,2024.2.4,Win32,61.72839506,67d5f6c42a9c97450f6bbcd5,687ed1b7e638a4cbf2f02089,6880bf1a60db0a9d0ba5eea0,,,,,,,,,,,,,,0,,,,,,,,,,,,,,,,,,,,,,,,,,,,,,,,,,,,,,,,,,,,521.1564,524.9415,1,0,3.2556,,524.9425,525.9408,0,0,0,0,1,0,depiste,REAL,FAKE,,,,,,,,,,,,,,,,,,,,,,,,,,,,,,,,
,,,,,,,,,67d5f6c42a9c97450f6bbcd5,spanish,13 or older,"no, only English or Spanish",no,2025-07-23_02h56.16.342,empathy_intonation_perc,2024.2.4,Win32,61.72839506,67d5f6c42a9c97450f6bbcd5,687ed1b7e638a4cbf2f02089,6880bf1a60db0a9d0ba5eea0,,,,,,,,,,,,,,1,,,,,,,,,,,,,,,,,,,,,,,,,,,,,,,,,,,,,,,,,,,,525.9459,528.5067,1,1,2.0192,,528.5102,529.5062,0,1,1,1,1,0,sí,REAL,FAKE,,,,,,,,,,,,,,,,,,,,,,,,,,,,,,,,
,,,,,,,,,67d5f6c42a9c97450f6bbcd5,spanish,13 or older,"no, only English or Spanish",no,2025-07-23_02h56.16.342,empathy_intonation_perc,2024.2.4,Win32,61.72839506,67d5f6c42a9c97450f6bbcd5,687ed1b7e638a4cbf2f02089,6880bf1a60db0a9d0ba5eea0,,,,,,,,,,,,,,0,,,,,,,,,,,,,,,,,,,,,,,,,,,,,,,,,,,,,,,,,,,,529.5114,533.3063,0,1,3.2523,,533.3066,534.3062,0,2,2,2,1,0,coné,REAL,FAKE,,,,,,,,,,,,,,,,,,,,,,,,,,,,,,,,
,,,,,,,,,67d5f6c42a9c97450f6bbcd5,spanish,13 or older,"no, only English or Spanish",no,2025-07-23_02h56.16.342,empathy_intonation_perc,2024.2.4,Win32,61.72839506,67d5f6c42a9c97450f6bbcd5,687ed1b7e638a4cbf2f02089,6880bf1a60db0a9d0ba5eea0,,,,,,,,,,,,,,0,,,,,,,,,,,,,,,,,,,,,,,,,,,,,,,,,,,,,,,,,,,,534.3102,537.139,0,1,2.2866,,537.1391,538.1391,0,3,3,3,1,0,calpar,REAL,FAKE,,,,,,,,,,,,,,,,,,,,,,,,,,,,,,,,
,,,,,,,,,67d5f6c42a9c97450f6bbcd5,spanish,13 or older,"no, only English or Spanish",no,2025-07-23_02h56.16.342,empathy_intonation_perc,2024.2.4,Win32,61.72839506,67d5f6c42a9c97450f6bbcd5,687ed1b7e638a4cbf2f02089,6880bf1a60db0a9d0ba5eea0,,,,,,,,,,,,,,0,,,,,,,,,,,,,,,,,,,,,,,,,,,,,,,,,,,,,,,,,,,,538.1439,540.3068,0,1,1.6199,,540.307,541.3057,0,4,4,4,1,0,joten,REAL,FAKE,,,,,,,,,,,,,,,,,,,,,,,,,,,,,,,,
,,,,,,,,,67d5f6c42a9c97450f6bbcd5,spanish,13 or older,"no, only English or Spanish",no,2025-07-23_02h56.16.342,empathy_intonation_perc,2024.2.4,Win32,61.72839506,67d5f6c42a9c97450f6bbcd5,687ed1b7e638a4cbf2f02089,6880bf1a60db0a9d0ba5eea0,,,,,,,,,,,,,,1,,,,,,,,,,,,,,,,,,,,,,,,,,,,,,,,,,,,,,,,,,,,541.3101,543.0391,0,0,1.1835,,543.0425,544.0389,0,5,5,5,1,0,sacapuntas,REAL,FAKE,,,,,,,,,,,,,,,,,,,,,,,,,,,,,,,,
,,,,,,,,,67d5f6c42a9c97450f6bbcd5,spanish,13 or older,"no, only English or Spanish",no,2025-07-23_02h56.16.342,empathy_intonation_perc,2024.2.4,Win32,61.72839506,67d5f6c42a9c97450f6bbcd5,687ed1b7e638a4cbf2f02089,6880bf1a60db0a9d0ba5eea0,,,,,,,,,,,,,,0,,,,,,,,,,,,,,,,,,,,,,,,,,,,,,,,,,,,,,,,,,,,544.0442,545.4889,1,0,0.9015,,545.4892,546.489,0,6,6,6,1,0,priba,REAL,FAKE,,,,,,,,,,,,,,,,,,,,,,,,,,,,,,,,
,,,,,,,,,67d5f6c42a9c97450f6bbcd5,spanish,13 or older,"no, only English or Spanish",no,2025-07-23_02h56.16.342,empathy_intonation_perc,2024.2.4,Win32,61.72839506,67d5f6c42a9c97450f6bbcd5,687ed1b7e638a4cbf2f02089,6880bf1a60db0a9d0ba5eea0,,,,,,,,,,,,,,0,,,,,,,,,,,,,,,,,,,,,,,,,,,,,,,,,,,,,,,,,,,,546.4931,547.9216,1,0,0.8841,,547.922,548.922,0,7,7,7,1,0,pelasula,REAL,FAKE,,,,,,,,,,,,,,,,,,,,,,,,,,,,,,,,
,,,,,,,,,67d5f6c42a9c97450f6bbcd5,spanish,13 or older,"no, only English or Spanish",no,2025-07-23_02h56.16.342,empathy_intonation_perc,2024.2.4,Win32,61.72839506,67d5f6c42a9c97450f6bbcd5,687ed1b7e638a4cbf2f02089,6880bf1a60db0a9d0ba5eea0,,,,,,,,,,,,,,1,,,,,,,,,,,,,,,,,,,,,,,,,,,,,,,,,,,,,,,,,,,,548.9261,550.2551,0,0,0.7862,,550.2555,551.2553,0,8,8,8,1,0,bien,REAL,FAKE,,,,,,,,,,,,,,,,,,,,,,,,,,,,,,,,
,,,,,,,,,67d5f6c42a9c97450f6bbcd5,spanish,13 or older,"no, only English or Spanish",no,2025-07-23_02h56.16.342,empathy_intonation_perc,2024.2.4,Win32,61.72839506,67d5f6c42a9c97450f6bbcd5,687ed1b7e638a4cbf2f02089,6880bf1a60db0a9d0ba5eea0,,,,,,,,,,,,,,1,,,,,,,,,,,,,,,,,,,,,,,,,,,,,,,,,,,,,,,,,,,,551.2596,552.5901,1,1,0.7911,,552.5929,553.5883,0,9,9,9,1,0,casa,REAL,FAKE,,,,,,,,,,,,,,,,,,,,,,,,,,,,,,,,
,,,,,,,,,67d5f6c42a9c97450f6bbcd5,spanish,13 or older,"no, only English or Spanish",no,2025-07-23_02h56.16.342,empathy_intonation_perc,2024.2.4,Win32,61.72839506,67d5f6c42a9c97450f6bbcd5,687ed1b7e638a4cbf2f02089,6880bf1a60db0a9d0ba5eea0,,,,,,,,,,,,,,0,,,,,,,,,,,,,,,,,,,,,,,,,,,,,,,,,,,,,,,,,,,,553.5926,554.9146,1,0,0.7839,,554.9163,555.9045,0,10,10,10,1,0,lejo,REAL,FAKE,,,,,,,,,,,,,,,,,,,,,,,,,,,,,,,,
,,,,,,,,,67d5f6c42a9c97450f6bbcd5,spanish,13 or older,"no, only English or Spanish",no,2025-07-23_02h56.16.342,empathy_intonation_perc,2024.2.4,Win32,61.72839506,67d5f6c42a9c97450f6bbcd5,687ed1b7e638a4cbf2f02089,6880bf1a60db0a9d0ba5eea0,,,,,,,,,,,,,,0,,,,,,,,,,,,,,,,,,,,,,,,,,,,,,,,,,,,,,,,,,,,555.9081,557.4883,1,0,1.0375,,557.4884,558.488,0,11,11,11,1,0,pretantas,REAL,FAKE,,,,,,,,,,,,,,,,,,,,,,,,,,,,,,,,
,,,,,,,,,67d5f6c42a9c97450f6bbcd5,spanish,13 or older,"no, only English or Spanish",no,2025-07-23_02h56.16.342,empathy_intonation_perc,2024.2.4,Win32,61.72839506,67d5f6c42a9c97450f6bbcd5,687ed1b7e638a4cbf2f02089,6880bf1a60db0a9d0ba5eea0,,,,,,,,,,,,,,,,,,,,,,,,,,,,,,,,,,,,,,,,,,,,,,,,,,,,,,,,,,,,,,,,,,,,,,,,,,,558.4892,560.4551,,,,,,,,,,,,,,,,,,,,,,,,,,,,,,
,,,,,,,,,67d5f6c42a9c97450f6bbcd5,spanish,13 or older,"no, only English or Spanish",no,2025-07-23_02h56.16.342,empathy_intonation_perc,2024.2.4,Win32,61.72839506,67d5f6c42a9c97450f6bbcd5,687ed1b7e638a4cbf2f02089,6880bf1a60db0a9d0ba5eea0,,,,,,,,,,,,,,0,,,,,,,,,,,,,,,,,,,,,,,,,,,,,,,,,,,,,,,,,,,,,,,,,,,,,,,,,17,floroso,,,,,560.4867,562.5391,1,0,1.5206,,0,0,0,16,1,REAL,FAKE,,,,,,,,,,,,,,,,,
,,,,,,,,,67d5f6c42a9c97450f6bbcd5,spanish,13 or older,"no, only English or Spanish",no,2025-07-23_02h56.16.342,empathy_intonation_perc,2024.2.4,Win32,61.72839506,67d5f6c42a9c97450f6bbcd5,687ed1b7e638a4cbf2f02089,6880bf1a60db0a9d0ba5eea0,,,,,,,,,,,,,,1,,,,,,,,,,,,,,,,,,,,,,,,,,,,,,,,,,,,,,,,,,,,,,,,,,,,,,,,,57,tacaño,,,,,562.5438,563.9876,1,1,0.9018,,0,1,1,56,1,REAL,FAKE,,,,,,,,,,,,,,,,,
,,,,,,,,,67d5f6c42a9c97450f6bbcd5,spanish,13 or older,"no, only English or Spanish",no,2025-07-23_02h56.16.342,empathy_intonation_perc,2024.2.4,Win32,61.72839506,67d5f6c42a9c97450f6bbcd5,687ed1b7e638a4cbf2f02089,6880bf1a60db0a9d0ba5eea0,,,,,,,,,,,,,,1,,,,,,,,,,,,,,,,,,,,,,,,,,,,,,,,,,,,,,,,,,,,,,,,,,,,,,,,,86,barato,,,,,563.992,565.338,1,1,0.8037,,0,2,2,85,1,REAL,FAKE,,,,,,,,,,,,,,,,,
,,,,,,,,,67d5f6c42a9c97450f6bbcd5,spanish,13 or older,"no, only English or Spanish",no,2025-07-23_02h56.16.342,empathy_intonation_perc,2024.2.4,Win32,61.72839506,67d5f6c42a9c97450f6bbcd5,687ed1b7e638a4cbf2f02089,6880bf1a60db0a9d0ba5eea0,,,,,,,,,,,,,,0,,,,,,,,,,,,,,,,,,,,,,,,,,,,,,,,,,,,,,,,,,,,,,,,,,,,,,,,,18,arsa,,,,,565.3422,567.3043,1,0,1.4191,,0,3,3,17,1,REAL,FAKE,,,,,,,,,,,,,,,,,
,,,,,,,,,67d5f6c42a9c97450f6bbcd5,spanish,13 or older,"no, only English or Spanish",no,2025-07-23_02h56.16.342,empathy_intonation_perc,2024.2.4,Win32,61.72839506,67d5f6c42a9c97450f6bbcd5,687ed1b7e638a4cbf2f02089,6880bf1a60db0a9d0ba5eea0,,,,,,,,,,,,,,1,,,,,,,,,,,,,,,,,,,,,,,,,,,,,,,,,,,,,,,,,,,,,,,,,,,,,,,,,24,látigo,,,,,567.3092,572.8706,0,0,5.0174,,0,4,4,23,1,REAL,FAKE,,,,,,,,,,,,,,,,,
,,,,,,,,,67d5f6c42a9c97450f6bbcd5,spanish,13 or older,"no, only English or Spanish",no,2025-07-23_02h56.16.342,empathy_intonation_perc,2024.2.4,Win32,61.72839506,67d5f6c42a9c97450f6bbcd5,687ed1b7e638a4cbf2f02089,6880bf1a60db0a9d0ba5eea0,,,,,,,,,,,,,,1,,,,,,,,,,,,,,,,,,,,,,,,,,,,,,,,,,,,,,,,,,,,,,,,,,,,,,,,,85,laúd,,,,,572.8755,574.1971,0,0,0.7809,,0,5,5,84,1,REAL,FAKE,,,,,,,,,,,,,,,,,
,,,,,,,,,67d5f6c42a9c97450f6bbcd5,spanish,13 or older,"no, only English or Spanish",no,2025-07-23_02h56.16.342,empathy_intonation_perc,2024.2.4,Win32,61.72839506,67d5f6c42a9c97450f6bbcd5,687ed1b7e638a4cbf2f02089,6880bf1a60db0a9d0ba5eea0,,,,,,,,,,,,,,1,,,,,,,,,,,,,,,,,,,,,,,,,,,,,,,,,,,,,,,,,,,,,,,,,,,,,,,,,76,atar,,,,,574.1993,576.0039,1,1,1.2692,,0,6,6,75,1,REAL,FAKE,,,,,,,,,,,,,,,,,
,,,,,,,,,67d5f6c42a9c97450f6bbcd5,spanish,13 or older,"no, only English or Spanish",no,2025-07-23_02h56.16.342,empathy_intonation_perc,2024.2.4,Win32,61.72839506,67d5f6c42a9c97450f6bbcd5,687ed1b7e638a4cbf2f02089,6880bf1a60db0a9d0ba5eea0,,,,,,,,,,,,,,1,,,,,,,,,,,,,,,,,,,,,,,,,,,,,,,,,,,,,,,,,,,,,,,,,,,,,,,,,60,matar,,,,,576.0089,577.3212,1,1,0.768,,0,7,7,59,1,REAL,FAKE,,,,,,,,,,,,,,,,,
,,,,,,,,,67d5f6c42a9c97450f6bbcd5,spanish,13 or older,"no, only English or Spanish",no,2025-07-23_02h56.16.342,empathy_intonation_perc,2024.2.4,Win32,61.72839506,67d5f6c42a9c97450f6bbcd5,687ed1b7e638a4cbf2f02089,6880bf1a60db0a9d0ba5eea0,,,,,,,,,,,,,,0,,,,,,,,,,,,,,,,,,,,,,,,,,,,,,,,,,,,,,,,,,,,,,,,,,,,,,,,,82,empirador,,,,,577.3249,579.5203,1,0,1.6536,,0,8,8,81,1,REAL,FAKE,,,,,,,,,,,,,,,,,
,,,,,,,,,67d5f6c42a9c97450f6bbcd5,spanish,13 or older,"no, only English or Spanish",no,2025-07-23_02h56.16.342,empathy_intonation_perc,2024.2.4,Win32,61.72839506,67d5f6c42a9c97450f6bbcd5,687ed1b7e638a4cbf2f02089,6880bf1a60db0a9d0ba5eea0,,,,,,,,,,,,,,1,,,,,,,,,,,,,,,,,,,,,,,,,,,,,,,,,,,,,,,,,,,,,,,,,,,,,,,,,5,zapato,,,,,579.5254,580.9295,1,1,0.8655,,0,9,9,4,1,REAL,FAKE,,,,,,,,,,,,,,,,,
,,,,,,,,,67d5f6c42a9c97450f6bbcd5,spanish,13 or older,"no, only English or Spanish",no,2025-07-23_02h56.16.342,empathy_intonation_perc,2024.2.4,Win32,61.72839506,67d5f6c42a9c97450f6bbcd5,687ed1b7e638a4cbf2f02089,6880bf1a60db0a9d0ba5eea0,,,,,,,,,,,,,,1,,,,,,,,,,,,,,,,,,,,,,,,,,,,,,,,,,,,,,,,,,,,,,,,,,,,,,,,,90,clavel,,,,,580.9323,582.4697,1,1,1.0025,,0,10,10,89,1,REAL,FAKE,,,,,,,,,,,,,,,,,
,,,,,,,,,67d5f6c42a9c97450f6bbcd5,spanish,13 or older,"no, only English or Spanish",no,2025-07-23_02h56.16.342,empathy_intonation_perc,2024.2.4,Win32,61.72839506,67d5f6c42a9c97450f6bbcd5,687ed1b7e638a4cbf2f02089,6880bf1a60db0a9d0ba5eea0,,,,,,,,,,,,,,0,,,,,,,,,,,,,,,,,,,,,,,,,,,,,,,,,,,,,,,,,,,,,,,,,,,,,,,,,53,vegada,,,,,582.4735,584.0037,1,0,0.9861,,0,11,11,52,1,REAL,FAKE,,,,,,,,,,,,,,,,,
,,,,,,,,,67d5f6c42a9c97450f6bbcd5,spanish,13 or older,"no, only English or Spanish",no,2025-07-23_02h56.16.342,empathy_intonation_perc,2024.2.4,Win32,61.72839506,67d5f6c42a9c97450f6bbcd5,687ed1b7e638a4cbf2f02089,6880bf1a60db0a9d0ba5eea0,,,,,,,,,,,,,,0,,,,,,,,,,,,,,,,,,,,,,,,,,,,,,,,,,,,,,,,,,,,,,,,,,,,,,,,,70,temblo,,,,,584.0089,585.839,1,0,1.2913,,0,12,12,69,1,REAL,FAKE,,,,,,,,,,,,,,,,,
,,,,,,,,,67d5f6c42a9c97450f6bbcd5,spanish,13 or older,"no, only English or Spanish",no,2025-07-23_02h56.16.342,empathy_intonation_perc,2024.2.4,Win32,61.72839506,67d5f6c42a9c97450f6bbcd5,687ed1b7e638a4cbf2f02089,6880bf1a60db0a9d0ba5eea0,,,,,,,,,,,,,,0,,,,,,,,,,,,,,,,,,,,,,,,,,,,,,,,,,,,,,,,,,,,,,,,,,,,,,,,,92,click the 0 key.,,,,,585.8421,588.8364,0,1,2.4502,,0,13,13,91,1,REAL,FAKE,,,,,,,,,,,,,,,,,
,,,,,,,,,67d5f6c42a9c97450f6bbcd5,spanish,13 or older,"no, only English or Spanish",no,2025-07-23_02h56.16.342,empathy_intonation_perc,2024.2.4,Win32,61.72839506,67d5f6c42a9c97450f6bbcd5,687ed1b7e638a4cbf2f02089,6880bf1a60db0a9d0ba5eea0,,,,,,,,,,,,,,1,,,,,,,,,,,,,,,,,,,,,,,,,,,,,,,,,,,,,,,,,,,,,,,,,,,,,,,,,45,jilguero,,,,,588.8408,591.6237,1,1,2.2417,,0,14,14,44,1,REAL,FAKE,,,,,,,,,,,,,,,,,
,,,,,,,,,67d5f6c42a9c97450f6bbcd5,spanish,13 or older,"no, only English or Spanish",no,2025-07-23_02h56.16.342,empathy_intonation_perc,2024.2.4,Win32,61.72839506,67d5f6c42a9c97450f6bbcd5,687ed1b7e638a4cbf2f02089,6880bf1a60db0a9d0ba5eea0,,,,,,,,,,,,,,1,,,,,,,,,,,,,,,,,,,,,,,,,,,,,,,,,,,,,,,,,,,,,,,,,,,,,,,,,64,orgulloso,,,,,591.6257,593.586,0,0,1.4181,,0,15,15,63,1,REAL,FAKE,,,,,,,,,,,,,,,,,
,,,,,,,,,67d5f6c42a9c97450f6bbcd5,spanish,13 or older,"no, only English or Spanish",no,2025-07-23_02h56.16.342,empathy_intonation_perc,2024.2.4,Win32,61.72839506,67d5f6c42a9c97450f6bbcd5,687ed1b7e638a4cbf2f02089,6880bf1a60db0a9d0ba5eea0,,,,,,,,,,,,,,1,,,,,,,,,,,,,,,,,,,,,,,,,,,,,,,,,,,,,,,,,,,,,,,,,,,,,,,,,20,ávido,,,,,593.5906,595.1871,0,0,1.0512,,0,16,16,19,1,REAL,FAKE,,,,,,,,,,,,,,,,,
,,,,,,,,,67d5f6c42a9c97450f6bbcd5,spanish,13 or older,"no, only English or Spanish",no,2025-07-23_02h56.16.342,empathy_intonation_perc,2024.2.4,Win32,61.72839506,67d5f6c42a9c97450f6bbcd5,687ed1b7e638a4cbf2f02089,6880bf1a60db0a9d0ba5eea0,,,,,,,,,,,,,,1,,,,,,,,,,,,,,,,,,,,,,,,,,,,,,,,,,,,,,,,,,,,,,,,,,,,,,,,,75,yacer,,,,,595.1909,597.6693,1,1,1.9358,,0,17,17,74,1,REAL,FAKE,,,,,,,,,,,,,,,,,
,,,,,,,,,67d5f6c42a9c97450f6bbcd5,spanish,13 or older,"no, only English or Spanish",no,2025-07-23_02h56.16.342,empathy_intonation_perc,2024.2.4,Win32,61.72839506,67d5f6c42a9c97450f6bbcd5,687ed1b7e638a4cbf2f02089,6880bf1a60db0a9d0ba5eea0,,,,,,,,,,,,,,1,,,,,,,,,,,,,,,,,,,,,,,,,,,,,,,,,,,,,,,,,,,,,,,,,,,,,,,,,26,secuestro,,,,,597.6732,599.5692,0,0,1.3534,,0,18,18,25,1,REAL,FAKE,,,,,,,,,,,,,,,,,
,,,,,,,,,67d5f6c42a9c97450f6bbcd5,spanish,13 or older,"no, only English or Spanish",no,2025-07-23_02h56.16.342,empathy_intonation_perc,2024.2.4,Win32,61.72839506,67d5f6c42a9c97450f6bbcd5,687ed1b7e638a4cbf2f02089,6880bf1a60db0a9d0ba5eea0,,,,,,,,,,,,,,1,,,,,,,,,,,,,,,,,,,,,,,,,,,,,,,,,,,,,,,,,,,,,,,,,,,,,,,,,40,alfombra,,,,,599.5737,601.8022,0,0,1.685,,0,19,19,39,1,REAL,FAKE,,,,,,,,,,,,,,,,,
,,,,,,,,,67d5f6c42a9c97450f6bbcd5,spanish,13 or older,"no, only English or Spanish",no,2025-07-23_02h56.16.342,empathy_intonation_perc,2024.2.4,Win32,61.72839506,67d5f6c42a9c97450f6bbcd5,687ed1b7e638a4cbf2f02089,6880bf1a60db0a9d0ba5eea0,,,,,,,,,,,,,,1,,,,,,,,,,,,,,,,,,,,,,,,,,,,,,,,,,,,,,,,,,,,,,,,,,,,,,,,,77,tiburón,,,,,601.8074,603.3539,0,0,1.0082,,0,20,20,76,1,REAL,FAKE,,,,,,,,,,,,,,,,,
,,,,,,,,,67d5f6c42a9c97450f6bbcd5,spanish,13 or older,"no, only English or Spanish",no,2025-07-23_02h56.16.342,empathy_intonation_perc,2024.2.4,Win32,61.72839506,67d5f6c42a9c97450f6bbcd5,687ed1b7e638a4cbf2f02089,6880bf1a60db0a9d0ba5eea0,,,,,,,,,,,,,,1,,,,,,,,,,,,,,,,,,,,,,,,,,,,,,,,,,,,,,,,,,,,,,,,,,,,,,,,,52,camisa,,,,,603.3581,604.8021,1,1,0.9016,,0,21,21,51,1,REAL,FAKE,,,,,,,,,,,,,,,,,
,,,,,,,,,67d5f6c42a9c97450f6bbcd5,spanish,13 or older,"no, only English or Spanish",no,2025-07-23_02h56.16.342,empathy_intonation_perc,2024.2.4,Win32,61.72839506,67d5f6c42a9c97450f6bbcd5,687ed1b7e638a4cbf2f02089,6880bf1a60db0a9d0ba5eea0,,,,,,,,,,,,,,1,,,,,,,,,,,,,,,,,,,,,,,,,,,,,,,,,,,,,,,,,,,,,,,,,,,,,,,,,67,cabello,,,,,604.8061,606.1855,1,1,0.8365,,0,22,22,66,1,REAL,FAKE,,,,,,,,,,,,,,,,,
,,,,,,,,,67d5f6c42a9c97450f6bbcd5,spanish,13 or older,"no, only English or Spanish",no,2025-07-23_02h56.16.342,empathy_intonation_perc,2024.2.4,Win32,61.72839506,67d5f6c42a9c97450f6bbcd5,687ed1b7e638a4cbf2f02089,6880bf1a60db0a9d0ba5eea0,,,,,,,,,,,,,,1,,,,,,,,,,,,,,,,,,,,,,,,,,,,,,,,,,,,,,,,,,,,,,,,,,,,,,,,,13,helar,,,,,606.1895,607.4853,1,1,0.7514,,0,23,23,12,1,REAL,FAKE,,,,,,,,,,,,,,,,,
,,,,,,,,,67d5f6c42a9c97450f6bbcd5,spanish,13 or older,"no, only English or Spanish",no,2025-07-23_02h56.16.342,empathy_intonation_perc,2024.2.4,Win32,61.72839506,67d5f6c42a9c97450f6bbcd5,687ed1b7e638a4cbf2f02089,6880bf1a60db0a9d0ba5eea0,,,,,,,,,,,,,,1,,,,,,,,,,,,,,,,,,,,,,,,,,,,,,,,,,,,,,,,,,,,,,,,,,,,,,,,,49,ganar,,,,,607.4891,609.102,0,0,1.069,,0,24,24,48,1,REAL,FAKE,,,,,,,,,,,,,,,,,
,,,,,,,,,67d5f6c42a9c97450f6bbcd5,spanish,13 or older,"no, only English or Spanish",no,2025-07-23_02h56.16.342,empathy_intonation_perc,2024.2.4,Win32,61.72839506,67d5f6c42a9c97450f6bbcd5,687ed1b7e638a4cbf2f02089,6880bf1a60db0a9d0ba5eea0,,,,,,,,,,,,,,1,,,,,,,,,,,,,,,,,,,,,,,,,,,,,,,,,,,,,,,,,,,,,,,,,,,,,,,,,81,pozo,,,,,609.1074,610.6689,1,1,1.0211,,0,25,25,80,1,REAL,FAKE,,,,,,,,,,,,,,,,,
,,,,,,,,,67d5f6c42a9c97450f6bbcd5,spanish,13 or older,"no, only English or Spanish",no,2025-07-23_02h56.16.342,empathy_intonation_perc,2024.2.4,Win32,61.72839506,67d5f6c42a9c97450f6bbcd5,687ed1b7e638a4cbf2f02089,6880bf1a60db0a9d0ba5eea0,,,,,,,,,,,,,,1,,,,,,,,,,,,,,,,,,,,,,,,,,,,,,,,,,,,,,,,,,,,,,,,,,,,,,,,,51,candado,,,,,610.673,611.9947,1,1,0.7836,,0,26,26,50,1,REAL,FAKE,,,,,,,,,,,,,,,,,
,,,,,,,,,67d5f6c42a9c97450f6bbcd5,spanish,13 or older,"no, only English or Spanish",no,2025-07-23_02h56.16.342,empathy_intonation_perc,2024.2.4,Win32,61.72839506,67d5f6c42a9c97450f6bbcd5,687ed1b7e638a4cbf2f02089,6880bf1a60db0a9d0ba5eea0,,,,,,,,,,,,,,0,,,,,,,,,,,,,,,,,,,,,,,,,,,,,,,,,,,,,,,,,,,,,,,,,,,,,,,,,4,batillón,,,,,611.9966,613.5186,0,1,0.9853,,0,27,27,3,1,REAL,FAKE,,,,,,,,,,,,,,,,,
,,,,,,,,,67d5f6c42a9c97450f6bbcd5,spanish,13 or older,"no, only English or Spanish",no,2025-07-23_02h56.16.342,empathy_intonation_perc,2024.2.4,Win32,61.72839506,67d5f6c42a9c97450f6bbcd5,687ed1b7e638a4cbf2f02089,6880bf1a60db0a9d0ba5eea0,,,,,,,,,,,,,,1,,,,,,,,,,,,,,,,,,,,,,,,,,,,,,,,,,,,,,,,,,,,,,,,,,,,,,,,,68,alegre,,,,,613.5224,615.9196,0,0,1.8574,,0,28,28,67,1,REAL,FAKE,,,,,,,,,,,,,,,,,
,,,,,,,,,67d5f6c42a9c97450f6bbcd5,spanish,13 or older,"no, only English or Spanish",no,2025-07-23_02h56.16.342,empathy_intonation_perc,2024.2.4,Win32,61.72839506,67d5f6c42a9c97450f6bbcd5,687ed1b7e638a4cbf2f02089,6880bf1a60db0a9d0ba5eea0,,,,,,,,,,,,,,0,,,,,,,,,,,,,,,,,,,,,,,,,,,,,,,,,,,,,,,,,,,,,,,,,,,,,,,,,32,fatacidad,,,,,615.9232,618.551,0,1,2.0849,,0,29,29,31,1,REAL,FAKE,,,,,,,,,,,,,,,,,
,,,,,,,,,67d5f6c42a9c97450f6bbcd5,spanish,13 or older,"no, only English or Spanish",no,2025-07-23_02h56.16.342,empathy_intonation_perc,2024.2.4,Win32,61.72839506,67d5f6c42a9c97450f6bbcd5,687ed1b7e638a4cbf2f02089,6880bf1a60db0a9d0ba5eea0,,,,,,,,,,,,,,1,,,,,,,,,,,,,,,,,,,,,,,,,,,,,,,,,,,,,,,,,,,,,,,,,,,,,,,,,71,polvoriento,,,,,618.5551,620.8512,1,1,1.7513,,0,30,30,70,1,REAL,FAKE,,,,,,,,,,,,,,,,,
,,,,,,,,,67d5f6c42a9c97450f6bbcd5,spanish,13 or older,"no, only English or Spanish",no,2025-07-23_02h56.16.342,empathy_intonation_perc,2024.2.4,Win32,61.72839506,67d5f6c42a9c97450f6bbcd5,687ed1b7e638a4cbf2f02089,6880bf1a60db0a9d0ba5eea0,,,,,,,,,,,,,,0,,,,,,,,,,,,,,,,,,,,,,,,,,,,,,,,,,,,,,,,,,,,,,,,,,,,,,,,,58,plaudir,,,,,620.8556,622.5012,0,1,1.1016,,0,31,31,57,1,REAL,FAKE,,,,,,,,,,,,,,,,,
,,,,,,,,,67d5f6c42a9c97450f6bbcd5,spanish,13 or older,"no, only English or Spanish",no,2025-07-23_02h56.16.342,empathy_intonation_perc,2024.2.4,Win32,61.72839506,67d5f6c42a9c97450f6bbcd5,687ed1b7e638a4cbf2f02089,6880bf1a60db0a9d0ba5eea0,,,,,,,,,,,,,,1,,,,,,,,,,,,,,,,,,,,,,,,,,,,,,,,,,,,,,,,,,,,,,,,,,,,,,,,,25,bisagra,,,,,622.5054,624.0341,0,0,0.99,,0,32,32,24,1,REAL,FAKE,,,,,,,,,,,,,,,,,
,,,,,,,,,67d5f6c42a9c97450f6bbcd5,spanish,13 or older,"no, only English or Spanish",no,2025-07-23_02h56.16.342,empathy_intonation_perc,2024.2.4,Win32,61.72839506,67d5f6c42a9c97450f6bbcd5,687ed1b7e638a4cbf2f02089,6880bf1a60db0a9d0ba5eea0,,,,,,,,,,,,,,0,,,,,,,,,,,,,,,,,,,,,,,,,,,,,,,,,,,,,,,,,,,,,,,,,,,,,,,,,33,pauca,,,,,624.0381,625.4343,1,0,0.8522,,0,33,33,32,1,REAL,FAKE,,,,,,,,,,,,,,,,,
,,,,,,,,,67d5f6c42a9c97450f6bbcd5,spanish,13 or older,"no, only English or Spanish",no,2025-07-23_02h56.16.342,empathy_intonation_perc,2024.2.4,Win32,61.72839506,67d5f6c42a9c97450f6bbcd5,687ed1b7e638a4cbf2f02089,6880bf1a60db0a9d0ba5eea0,,,,,,,,,,,,,,0,,,,,,,,,,,,,,,,,,,,,,,,,,,,,,,,,,,,,,,,,,,,,,,,,,,,,,,,,87,grodo,,,,,625.4382,626.9342,1,0,0.9521,,0,34,34,86,1,REAL,FAKE,,,,,,,,,,,,,,,,,
,,,,,,,,,67d5f6c42a9c97450f6bbcd5,spanish,13 or older,"no, only English or Spanish",no,2025-07-23_02h56.16.342,empathy_intonation_perc,2024.2.4,Win32,61.72839506,67d5f6c42a9c97450f6bbcd5,687ed1b7e638a4cbf2f02089,6880bf1a60db0a9d0ba5eea0,,,,,,,,,,,,,,1,,,,,,,,,,,,,,,,,,,,,,,,,,,,,,,,,,,,,,,,,,,,,,,,,,,,,,,,,59,besar,,,,,626.9383,628.4672,1,1,0.9855,,0,35,35,58,1,REAL,FAKE,,,,,,,,,,,,,,,,,
,,,,,,,,,67d5f6c42a9c97450f6bbcd5,spanish,13 or older,"no, only English or Spanish",no,2025-07-23_02h56.16.342,empathy_intonation_perc,2024.2.4,Win32,61.72839506,67d5f6c42a9c97450f6bbcd5,687ed1b7e638a4cbf2f02089,6880bf1a60db0a9d0ba5eea0,,,,,,,,,,,,,,1,,,,,,,,,,,,,,,,,,,,,,,,,,,,,,,,,,,,,,,,,,,,,,,,,,,,,,,,,80,hormiga,,,,,628.4713,630.3507,0,0,1.3354,,0,36,36,79,1,REAL,FAKE,,,,,,,,,,,,,,,,,
,,,,,,,,,67d5f6c42a9c97450f6bbcd5,spanish,13 or older,"no, only English or Spanish",no,2025-07-23_02h56.16.342,empathy_intonation_perc,2024.2.4,Win32,61.72839506,67d5f6c42a9c97450f6bbcd5,687ed1b7e638a4cbf2f02089,6880bf1a60db0a9d0ba5eea0,,,,,,,,,,,,,,1,,,,,,,,,,,,,,,,,,,,,,,,,,,,,,,,,,,,,,,,,,,,,,,,,,,,,,,,,12,asesinato,,,,,630.355,632.1678,1,1,1.2692,,0,37,37,11,1,REAL,FAKE,,,,,,,,,,,,,,,,,
,,,,,,,,,67d5f6c42a9c97450f6bbcd5,spanish,13 or older,"no, only English or Spanish",no,2025-07-23_02h56.16.342,empathy_intonation_perc,2024.2.4,Win32,61.72839506,67d5f6c42a9c97450f6bbcd5,687ed1b7e638a4cbf2f02089,6880bf1a60db0a9d0ba5eea0,,,,,,,,,,,,,,1,,,,,,,,,,,,,,,,,,,,,,,,,,,,,,,,,,,,,,,,,,,,,,,,,,,,,,,,,73,hervidor,,,,,632.1722,634.4001,0,0,1.6842,,0,38,38,72,1,REAL,FAKE,,,,,,,,,,,,,,,,,
,,,,,,,,,67d5f6c42a9c97450f6bbcd5,spanish,13 or older,"no, only English or Spanish",no,2025-07-23_02h56.16.342,empathy_intonation_perc,2024.2.4,Win32,61.72839506,67d5f6c42a9c97450f6bbcd5,687ed1b7e638a4cbf2f02089,6880bf1a60db0a9d0ba5eea0,,,,,,,,,,,,,,1,,,,,,,,,,,,,,,,,,,,,,,,,,,,,,,,,,,,,,,,,,,,,,,,,,,,,,,,,9,hacha,,,,,634.4039,636.2336,0,0,1.2869,,0,39,39,8,1,REAL,FAKE,,,,,,,,,,,,,,,,,
,,,,,,,,,67d5f6c42a9c97450f6bbcd5,spanish,13 or older,"no, only English or Spanish",no,2025-07-23_02h56.16.342,empathy_intonation_perc,2024.2.4,Win32,61.72839506,67d5f6c42a9c97450f6bbcd5,687ed1b7e638a4cbf2f02089,6880bf1a60db0a9d0ba5eea0,,,,,,,,,,,,,,1,,,,,,,,,,,,,,,,,,,,,,,,,,,,,,,,,,,,,,,,,,,,,,,,,,,,,,,,,2,pellizcar,,,,,636.2378,637.7838,1,1,1.0034,,0,40,40,1,1,REAL,FAKE,,,,,,,,,,,,,,,,,
,,,,,,,,,67d5f6c42a9c97450f6bbcd5,spanish,13 or older,"no, only English or Spanish",no,2025-07-23_02h56.16.342,empathy_intonation_perc,2024.2.4,Win32,61.72839506,67d5f6c42a9c97450f6bbcd5,687ed1b7e638a4cbf2f02089,6880bf1a60db0a9d0ba5eea0,,,,,,,,,,,,,,1,,,,,,,,,,,,,,,,,,,,,,,,,,,,,,,,,,,,,,,,,,,,,,,,,,,,,,,,,91,click the 1 key.,,,,,637.7898,639.7002,1,1,1.3687,,0,41,41,90,1,REAL,FAKE,,,,,,,,,,,,,,,,,
,,,,,,,,,67d5f6c42a9c97450f6bbcd5,spanish,13 or older,"no, only English or Spanish",no,2025-07-23_02h56.16.342,empathy_intonation_perc,2024.2.4,Win32,61.72839506,67d5f6c42a9c97450f6bbcd5,687ed1b7e638a4cbf2f02089,6880bf1a60db0a9d0ba5eea0,,,,,,,,,,,,,,0,,,,,,,,,,,,,,,,,,,,,,,,,,,,,,,,,,,,,,,,,,,,,,,,,,,,,,,,,42,cadallo,,,,,639.7046,642.5333,1,0,2.2865,,0,42,42,41,1,REAL,FAKE,,,,,,,,,,,,,,,,,
,,,,,,,,,67d5f6c42a9c97450f6bbcd5,spanish,13 or older,"no, only English or Spanish",no,2025-07-23_02h56.16.342,empathy_intonation_perc,2024.2.4,Win32,61.72839506,67d5f6c42a9c97450f6bbcd5,687ed1b7e638a4cbf2f02089,6880bf1a60db0a9d0ba5eea0,,,,,,,,,,,,,,0,,,,,,,,,,,,,,,,,,,,,,,,,,,,,,,,,,,,,,,,,,,,,,,,,,,,,,,,,63,esposante,,,,,642.5376,643.8166,1,0,0.7298,,0,43,43,62,1,REAL,FAKE,,,,,,,,,,,,,,,,,
,,,,,,,,,67d5f6c42a9c97450f6bbcd5,spanish,13 or older,"no, only English or Spanish",no,2025-07-23_02h56.16.342,empathy_intonation_perc,2024.2.4,Win32,61.72839506,67d5f6c42a9c97450f6bbcd5,687ed1b7e638a4cbf2f02089,6880bf1a60db0a9d0ba5eea0,,,,,,,,,,,,,,0,,,,,,,,,,,,,,,,,,,,,,,,,,,,,,,,,,,,,,,,,,,,,,,,,,,,,,,,,66,hacido,,,,,643.8209,645.9833,1,0,1.619,,0,44,44,65,1,REAL,FAKE,,,,,,,,,,,,,,,,,
,,,,,,,,,67d5f6c42a9c97450f6bbcd5,spanish,13 or older,"no, only English or Spanish",no,2025-07-23_02h56.16.342,empathy_intonation_perc,2024.2.4,Win32,61.72839506,67d5f6c42a9c97450f6bbcd5,687ed1b7e638a4cbf2f02089,6880bf1a60db0a9d0ba5eea0,,,,,,,,,,,,,,1,,,,,,,,,,,,,,,,,,,,,,,,,,,,,,,,,,,,,,,,,,,,,,,,,,,,,,,,,14,yunque,,,,,645.9877,647.5054,0,0,0.9801,,0,45,45,13,1,REAL,FAKE,,,,,,,,,,,,,,,,,
,,,,,,,,,67d5f6c42a9c97450f6bbcd5,spanish,13 or older,"no, only English or Spanish",no,2025-07-23_02h56.16.342,empathy_intonation_perc,2024.2.4,Win32,61.72839506,67d5f6c42a9c97450f6bbcd5,687ed1b7e638a4cbf2f02089,6880bf1a60db0a9d0ba5eea0,,,,,,,,,,,,,,1,,,,,,,,,,,,,,,,,,,,,,,,,,,,,,,,,,,,,,,,,,,,,,,,,,,,,,,,,89,prisa,,,,,647.5074,649.0672,1,1,1.0196,,0,46,46,88,1,REAL,FAKE,,,,,,,,,,,,,,,,,
,,,,,,,,,67d5f6c42a9c97450f6bbcd5,spanish,13 or older,"no, only English or Spanish",no,2025-07-23_02h56.16.342,empathy_intonation_perc,2024.2.4,Win32,61.72839506,67d5f6c42a9c97450f6bbcd5,687ed1b7e638a4cbf2f02089,6880bf1a60db0a9d0ba5eea0,,,,,,,,,,,,,,0,,,,,,,,,,,,,,,,,,,,,,,,,,,,,,,,,,,,,,,,,,,,,,,,,,,,,,,,,1,terzo,,,,,649.071,651.116,0,1,1.5019,,0,47,47,0,1,REAL,FAKE,,,,,,,,,,,,,,,,,
,,,,,,,,,67d5f6c42a9c97450f6bbcd5,spanish,13 or older,"no, only English or Spanish",no,2025-07-23_02h56.16.342,empathy_intonation_perc,2024.2.4,Win32,61.72839506,67d5f6c42a9c97450f6bbcd5,687ed1b7e638a4cbf2f02089,6880bf1a60db0a9d0ba5eea0,,,,,,,,,,,,,,0,,,,,,,,,,,,,,,,,,,,,,,,,,,,,,,,,,,,,,,,,,,,,,,,,,,,,,,,,30,alardio,,,,,651.1208,652.3829,1,0,0.7184,,0,48,48,29,1,REAL,FAKE,,,,,,,,,,,,,,,,,
,,,,,,,,,67d5f6c42a9c97450f6bbcd5,spanish,13 or older,"no, only English or Spanish",no,2025-07-23_02h56.16.342,empathy_intonation_perc,2024.2.4,Win32,61.72839506,67d5f6c42a9c97450f6bbcd5,687ed1b7e638a4cbf2f02089,6880bf1a60db0a9d0ba5eea0,,,,,,,,,,,,,,1,,,,,,,,,,,,,,,,,,,,,,,,,,,,,,,,,,,,,,,,,,,,,,,,,,,,,,,,,34,aviso,,,,,652.3869,653.7994,0,0,0.8685,,0,49,49,33,1,REAL,FAKE,,,,,,,,,,,,,,,,,
,,,,,,,,,67d5f6c42a9c97450f6bbcd5,spanish,13 or older,"no, only English or Spanish",no,2025-07-23_02h56.16.342,empathy_intonation_perc,2024.2.4,Win32,61.72839506,67d5f6c42a9c97450f6bbcd5,687ed1b7e638a4cbf2f02089,6880bf1a60db0a9d0ba5eea0,,,,,,,,,,,,,,1,,,,,,,,,,,,,,,,,,,,,,,,,,,,,,,,,,,,,,,,,,,,,,,,,,,,,,,,,11,cenefa,,,,,653.8037,655.0158,1,1,0.6738,,0,50,50,10,1,REAL,FAKE,,,,,,,,,,,,,,,,,
,,,,,,,,,67d5f6c42a9c97450f6bbcd5,spanish,13 or older,"no, only English or Spanish",no,2025-07-23_02h56.16.342,empathy_intonation_perc,2024.2.4,Win32,61.72839506,67d5f6c42a9c97450f6bbcd5,687ed1b7e638a4cbf2f02089,6880bf1a60db0a9d0ba5eea0,,,,,,,,,,,,,,1,,,,,,,,,,,,,,,,,,,,,,,,,,,,,,,,,,,,,,,,,,,,,,,,,,,,,,,,,28,merodear,,,,,655.02,656.5158,0,0,0.9529,,0,51,51,27,1,REAL,FAKE,,,,,,,,,,,,,,,,,
,,,,,,,,,67d5f6c42a9c97450f6bbcd5,spanish,13 or older,"no, only English or Spanish",no,2025-07-23_02h56.16.342,empathy_intonation_perc,2024.2.4,Win32,61.72839506,67d5f6c42a9c97450f6bbcd5,687ed1b7e638a4cbf2f02089,6880bf1a60db0a9d0ba5eea0,,,,,,,,,,,,,,1,,,,,,,,,,,,,,,,,,,,,,,,,,,,,,,,,,,,,,,,,,,,,,,,,,,,,,,,,36,loro,,,,,656.5213,658,1,1,0.9347,,0,52,52,35,1,REAL,FAKE,,,,,,,,,,,,,,,,,
,,,,,,,,,67d5f6c42a9c97450f6bbcd5,spanish,13 or older,"no, only English or Spanish",no,2025-07-23_02h56.16.342,empathy_intonation_perc,2024.2.4,Win32,61.72839506,67d5f6c42a9c97450f6bbcd5,687ed1b7e638a4cbf2f02089,6880bf1a60db0a9d0ba5eea0,,,,,,,,,,,,,,0,,,,,,,,,,,,,,,,,,,,,,,,,,,,,,,,,,,,,,,,,,,,,,,,,,,,,,,,,74,cintro,,,,,658.0043,659.5323,0,1,0.9851,,0,53,53,73,1,REAL,FAKE,,,,,,,,,,,,,,,,,
,,,,,,,,,67d5f6c42a9c97450f6bbcd5,spanish,13 or older,"no, only English or Spanish",no,2025-07-23_02h56.16.342,empathy_intonation_perc,2024.2.4,Win32,61.72839506,67d5f6c42a9c97450f6bbcd5,687ed1b7e638a4cbf2f02089,6880bf1a60db0a9d0ba5eea0,,,,,,,,,,,,,,1,,,,,,,,,,,,,,,,,,,,,,,,,,,,,,,,,,,,,,,,,,,,,,,,,,,,,,,,,69,engatusar,,,,,659.5368,661.0545,0,0,0.9788,,0,54,54,68,1,REAL,FAKE,,,,,,,,,,,,,,,,,
,,,,,,,,,67d5f6c42a9c97450f6bbcd5,spanish,13 or older,"no, only English or Spanish",no,2025-07-23_02h56.16.342,empathy_intonation_perc,2024.2.4,Win32,61.72839506,67d5f6c42a9c97450f6bbcd5,687ed1b7e638a4cbf2f02089,6880bf1a60db0a9d0ba5eea0,,,,,,,,,,,,,,1,,,,,,,,,,,,,,,,,,,,,,,,,,,,,,,,,,,,,,,,,,,,,,,,,,,,,,,,,55,nevar,,,,,661.0568,662.5323,1,1,0.9356,,0,55,55,54,1,REAL,FAKE,,,,,,,,,,,,,,,,,
,,,,,,,,,67d5f6c42a9c97450f6bbcd5,spanish,13 or older,"no, only English or Spanish",no,2025-07-23_02h56.16.342,empathy_intonation_perc,2024.2.4,Win32,61.72839506,67d5f6c42a9c97450f6bbcd5,687ed1b7e638a4cbf2f02089,6880bf1a60db0a9d0ba5eea0,,,,,,,,,,,,,,1,,,,,,,,,,,,,,,,,,,,,,,,,,,,,,,,,,,,,,,,,,,,,,,,,,,,,,,,,31,pandilla,,,,,662.5366,663.932,1,1,0.8522,,0,56,56,30,1,REAL,FAKE,,,,,,,,,,,,,,,,,
,,,,,,,,,67d5f6c42a9c97450f6bbcd5,spanish,13 or older,"no, only English or Spanish",no,2025-07-23_02h56.16.342,empathy_intonation_perc,2024.2.4,Win32,61.72839506,67d5f6c42a9c97450f6bbcd5,687ed1b7e638a4cbf2f02089,6880bf1a60db0a9d0ba5eea0,,,,,,,,,,,,,,0,,,,,,,,,,,,,,,,,,,,,,,,,,,,,,,,,,,,,,,,,,,,,,,,,,,,,,,,,27,acutación,,,,,663.9369,665.2152,0,1,0.7338,,0,57,57,26,1,REAL,FAKE,,,,,,,,,,,,,,,,,
,,,,,,,,,67d5f6c42a9c97450f6bbcd5,spanish,13 or older,"no, only English or Spanish",no,2025-07-23_02h56.16.342,empathy_intonation_perc,2024.2.4,Win32,61.72839506,67d5f6c42a9c97450f6bbcd5,687ed1b7e638a4cbf2f02089,6880bf1a60db0a9d0ba5eea0,,,,,,,,,,,,,,1,,,,,,,,,,,,,,,,,,,,,,,,,,,,,,,,,,,,,,,,,,,,,,,,,,,,,,,,,62,flaco,,,,,665.2191,666.882,1,1,1.1177,,0,58,58,61,1,REAL,FAKE,,,,,,,,,,,,,,,,,
,,,,,,,,,67d5f6c42a9c97450f6bbcd5,spanish,13 or older,"no, only English or Spanish",no,2025-07-23_02h56.16.342,empathy_intonation_perc,2024.2.4,Win32,61.72839506,67d5f6c42a9c97450f6bbcd5,687ed1b7e638a4cbf2f02089,6880bf1a60db0a9d0ba5eea0,,,,,,,,,,,,,,1,,,,,,,,,,,,,,,,,,,,,,,,,,,,,,,,,,,,,,,,,,,,,,,,,,,,,,,,,65,bizcocho,,,,,666.8865,669.1153,1,1,1.684,,0,59,59,64,1,REAL,FAKE,,,,,,,,,,,,,,,,,
,,,,,,,,,67d5f6c42a9c97450f6bbcd5,spanish,13 or older,"no, only English or Spanish",no,2025-07-23_02h56.16.342,empathy_intonation_perc,2024.2.4,Win32,61.72839506,67d5f6c42a9c97450f6bbcd5,687ed1b7e638a4cbf2f02089,6880bf1a60db0a9d0ba5eea0,,,,,,,,,,,,,,0,,,,,,,,,,,,,,,,,,,,,,,,,,,,,,,,,,,,,,,,,,,,,,,,,,,,,,,,,35,rompido,,,,,669.1191,670.8484,0,1,1.1856,,0,60,60,34,1,REAL,FAKE,,,,,,,,,,,,,,,,,
,,,,,,,,,67d5f6c42a9c97450f6bbcd5,spanish,13 or older,"no, only English or Spanish",no,2025-07-23_02h56.16.342,empathy_intonation_perc,2024.2.4,Win32,61.72839506,67d5f6c42a9c97450f6bbcd5,687ed1b7e638a4cbf2f02089,6880bf1a60db0a9d0ba5eea0,,,,,,,,,,,,,,1,,,,,,,,,,,,,,,,,,,,,,,,,,,,,,,,,,,,,,,,,,,,,,,,,,,,,,,,,39,torpe,,,,,670.8523,672.6649,0,0,1.2681,,0,61,61,38,1,REAL,FAKE,,,,,,,,,,,,,,,,,
,,,,,,,,,67d5f6c42a9c97450f6bbcd5,spanish,13 or older,"no, only English or Spanish",no,2025-07-23_02h56.16.342,empathy_intonation_perc,2024.2.4,Win32,61.72839506,67d5f6c42a9c97450f6bbcd5,687ed1b7e638a4cbf2f02089,6880bf1a60db0a9d0ba5eea0,,,,,,,,,,,,,,0,,,,,,,,,,,,,,,,,,,,,,,,,,,,,,,,,,,,,,,,,,,,,,,,,,,,,,,,,47,cartinar,,,,,672.669,674.4983,0,1,1.2866,,0,62,62,46,1,REAL,FAKE,,,,,,,,,,,,,,,,,
,,,,,,,,,67d5f6c42a9c97450f6bbcd5,spanish,13 or older,"no, only English or Spanish",no,2025-07-23_02h56.16.342,empathy_intonation_perc,2024.2.4,Win32,61.72839506,67d5f6c42a9c97450f6bbcd5,687ed1b7e638a4cbf2f02089,6880bf1a60db0a9d0ba5eea0,,,,,,,,,,,,,,1,,,,,,,,,,,,,,,,,,,,,,,,,,,,,,,,,,,,,,,,,,,,,,,,,,,,,,,,,83,guante,,,,,674.5024,675.8392,1,1,0.7984,,0,63,63,82,1,REAL,FAKE,,,,,,,,,,,,,,,,,
,,,,,,,,,67d5f6c42a9c97450f6bbcd5,spanish,13 or older,"no, only English or Spanish",no,2025-07-23_02h56.16.342,empathy_intonation_perc,2024.2.4,Win32,61.72839506,67d5f6c42a9c97450f6bbcd5,687ed1b7e638a4cbf2f02089,6880bf1a60db0a9d0ba5eea0,,,,,,,,,,,,,,0,,,,,,,,,,,,,,,,,,,,,,,,,,,,,,,,,,,,,,,,,,,,,,,,,,,,,,,,,21,capillo,,,,,675.841,677.031,1,0,0.6481,,0,64,64,20,1,REAL,FAKE,,,,,,,,,,,,,,,,,
,,,,,,,,,67d5f6c42a9c97450f6bbcd5,spanish,13 or older,"no, only English or Spanish",no,2025-07-23_02h56.16.342,empathy_intonation_perc,2024.2.4,Win32,61.72839506,67d5f6c42a9c97450f6bbcd5,687ed1b7e638a4cbf2f02089,6880bf1a60db0a9d0ba5eea0,,,,,,,,,,,,,,1,,,,,,,,,,,,,,,,,,,,,,,,,,,,,,,,,,,,,,,,,,,,,,,,,,,,,,,,,56,musgo,,,,,677.0349,678.3828,0,0,0.8085,,0,65,65,55,1,REAL,FAKE,,,,,,,,,,,,,,,,,
,,,,,,,,,67d5f6c42a9c97450f6bbcd5,spanish,13 or older,"no, only English or Spanish",no,2025-07-23_02h56.16.342,empathy_intonation_perc,2024.2.4,Win32,61.72839506,67d5f6c42a9c97450f6bbcd5,687ed1b7e638a4cbf2f02089,6880bf1a60db0a9d0ba5eea0,,,,,,,,,,,,,,1,,,,,,,,,,,,,,,,,,,,,,,,,,,,,,,,,,,,,,,,,,,,,,,,,,,,,,,,,61,seda,,,,,678.386,679.7812,0,0,0.8511,,0,66,66,60,1,REAL,FAKE,,,,,,,,,,,,,,,,,
,,,,,,,,,67d5f6c42a9c97450f6bbcd5,spanish,13 or older,"no, only English or Spanish",no,2025-07-23_02h56.16.342,empathy_intonation_perc,2024.2.4,Win32,61.72839506,67d5f6c42a9c97450f6bbcd5,687ed1b7e638a4cbf2f02089,6880bf1a60db0a9d0ba5eea0,,,,,,,,,,,,,,1,,,,,,,,,,,,,,,,,,,,,,,,,,,,,,,,,,,,,,,,,,,,,,,,,,,,,,,,,15,regar,,,,,679.7852,681.0309,0,0,0.7043,,0,67,67,14,1,REAL,FAKE,,,,,,,,,,,,,,,,,
,,,,,,,,,67d5f6c42a9c97450f6bbcd5,spanish,13 or older,"no, only English or Spanish",no,2025-07-23_02h56.16.342,empathy_intonation_perc,2024.2.4,Win32,61.72839506,67d5f6c42a9c97450f6bbcd5,687ed1b7e638a4cbf2f02089,6880bf1a60db0a9d0ba5eea0,,,,,,,,,,,,,,1,,,,,,,,,,,,,,,,,,,,,,,,,,,,,,,,,,,,,,,,,,,,,,,,,,,,,,,,,88,acantilado,,,,,681.0357,683.4311,1,1,1.8498,,0,68,68,87,1,REAL,FAKE,,,,,,,,,,,,,,,,,
,,,,,,,,,67d5f6c42a9c97450f6bbcd5,spanish,13 or older,"no, only English or Spanish",no,2025-07-23_02h56.16.342,empathy_intonation_perc,2024.2.4,Win32,61.72839506,67d5f6c42a9c97450f6bbcd5,687ed1b7e638a4cbf2f02089,6880bf1a60db0a9d0ba5eea0,,,,,,,,,,,,,,1,,,,,,,,,,,,,,,,,,,,,,,,,,,,,,,,,,,,,,,,,,,,,,,,,,,,,,,,,43,canela,,,,,683.435,685.0143,1,1,1.0353,,0,69,69,42,1,REAL,FAKE,,,,,,,,,,,,,,,,,
,,,,,,,,,67d5f6c42a9c97450f6bbcd5,spanish,13 or older,"no, only English or Spanish",no,2025-07-23_02h56.16.342,empathy_intonation_perc,2024.2.4,Win32,61.72839506,67d5f6c42a9c97450f6bbcd5,687ed1b7e638a4cbf2f02089,6880bf1a60db0a9d0ba5eea0,,,,,,,,,,,,,,1,,,,,,,,,,,,,,,,,,,,,,,,,,,,,,,,,,,,,,,,,,,,,,,,,,,,,,,,,41,rebuscar,,,,,685.0185,686.9807,0,0,1.4216,,0,70,70,40,1,REAL,FAKE,,,,,,,,,,,,,,,,,
,,,,,,,,,67d5f6c42a9c97450f6bbcd5,spanish,13 or older,"no, only English or Spanish",no,2025-07-23_02h56.16.342,empathy_intonation_perc,2024.2.4,Win32,61.72839506,67d5f6c42a9c97450f6bbcd5,687ed1b7e638a4cbf2f02089,6880bf1a60db0a9d0ba5eea0,,,,,,,,,,,,,,0,,,,,,,,,,,,,,,,,,,,,,,,,,,,,,,,,,,,,,,,,,,,,,,,,,,,,,,,,23,lampera,,,,,686.9847,688.2889,0,1,0.7654,,0,71,71,22,1,REAL,FAKE,,,,,,,,,,,,,,,,,
,,,,,,,,,67d5f6c42a9c97450f6bbcd5,spanish,13 or older,"no, only English or Spanish",no,2025-07-23_02h56.16.342,empathy_intonation_perc,2024.2.4,Win32,61.72839506,67d5f6c42a9c97450f6bbcd5,687ed1b7e638a4cbf2f02089,6880bf1a60db0a9d0ba5eea0,,,,,,,,,,,,,,1,,,,,,,,,,,,,,,,,,,,,,,,,,,,,,,,,,,,,,,,,,,,,,,,,,,,,,,,,6,tergiversar,,,,,688.2909,691.348,0,0,2.5241,,0,72,72,5,1,REAL,FAKE,,,,,,,,,,,,,,,,,
,,,,,,,,,67d5f6c42a9c97450f6bbcd5,spanish,13 or older,"no, only English or Spanish",no,2025-07-23_02h56.16.342,empathy_intonation_perc,2024.2.4,Win32,61.72839506,67d5f6c42a9c97450f6bbcd5,687ed1b7e638a4cbf2f02089,6880bf1a60db0a9d0ba5eea0,,,,,,,,,,,,,,0,,,,,,,,,,,,,,,,,,,,,,,,,,,,,,,,,,,,,,,,,,,,,,,,,,,,,,,,,29,decar,,,,,691.3518,692.7807,1,0,0.8837,,0,73,73,28,1,REAL,FAKE,,,,,,,,,,,,,,,,,
,,,,,,,,,67d5f6c42a9c97450f6bbcd5,spanish,13 or older,"no, only English or Spanish",no,2025-07-23_02h56.16.342,empathy_intonation_perc,2024.2.4,Win32,61.72839506,67d5f6c42a9c97450f6bbcd5,687ed1b7e638a4cbf2f02089,6880bf1a60db0a9d0ba5eea0,,,,,,,,,,,,,,0,,,,,,,,,,,,,,,,,,,,,,,,,,,,,,,,,,,,,,,,,,,,,,,,,,,,,,,,,50,flamida,,,,,692.7847,694.1304,1,0,0.8011,,0,74,74,49,1,REAL,FAKE,,,,,,,,,,,,,,,,,
,,,,,,,,,67d5f6c42a9c97450f6bbcd5,spanish,13 or older,"no, only English or Spanish",no,2025-07-23_02h56.16.342,empathy_intonation_perc,2024.2.4,Win32,61.72839506,67d5f6c42a9c97450f6bbcd5,687ed1b7e638a4cbf2f02089,6880bf1a60db0a9d0ba5eea0,,,,,,,,,,,,,,1,,,,,,,,,,,,,,,,,,,,,,,,,,,,,,,,,,,,,,,,,,,,,,,,,,,,,,,,,37,granuja,,,,,694.1342,695.7476,0,0,1.0693,,0,75,75,36,1,REAL,FAKE,,,,,,,,,,,,,,,,,
,,,,,,,,,67d5f6c42a9c97450f6bbcd5,spanish,13 or older,"no, only English or Spanish",no,2025-07-23_02h56.16.342,empathy_intonation_perc,2024.2.4,Win32,61.72839506,67d5f6c42a9c97450f6bbcd5,687ed1b7e638a4cbf2f02089,6880bf1a60db0a9d0ba5eea0,,,,,,,,,,,,,,1,,,,,,,,,,,,,,,,,,,,,,,,,,,,,,,,,,,,,,,,,,,,,,,,,,,,,,,,,44,cuchara,,,,,695.7518,698.0635,1,1,1.7664,,0,76,76,43,1,REAL,FAKE,,,,,,,,,,,,,,,,,
,,,,,,,,,67d5f6c42a9c97450f6bbcd5,spanish,13 or older,"no, only English or Spanish",no,2025-07-23_02h56.16.342,empathy_intonation_perc,2024.2.4,Win32,61.72839506,67d5f6c42a9c97450f6bbcd5,687ed1b7e638a4cbf2f02089,6880bf1a60db0a9d0ba5eea0,,,,,,,,,,,,,,0,,,,,,,,,,,,,,,,,,,,,,,,,,,,,,,,,,,,,,,,,,,,,,,,,,,,,,,,,72,pemición,,,,,698.068,699.456,0,1,0.8507,,0,77,77,71,1,REAL,FAKE,,,,,,,,,,,,,,,,,
,,,,,,,,,67d5f6c42a9c97450f6bbcd5,spanish,13 or older,"no, only English or Spanish",no,2025-07-23_02h56.16.342,empathy_intonation_perc,2024.2.4,Win32,61.72839506,67d5f6c42a9c97450f6bbcd5,687ed1b7e638a4cbf2f02089,6880bf1a60db0a9d0ba5eea0,,,,,,,,,,,,,,1,,,,,,,,,,,,,,,,,,,,,,,,,,,,,,,,,,,,,,,,,,,,,,,,,,,,,,,,,46,martillo,,,,,699.458,700.7738,1,1,0.7837,,0,78,78,45,1,REAL,FAKE,,,,,,,,,,,,,,,,,
,,,,,,,,,67d5f6c42a9c97450f6bbcd5,spanish,13 or older,"no, only English or Spanish",no,2025-07-23_02h56.16.342,empathy_intonation_perc,2024.2.4,Win32,61.72839506,67d5f6c42a9c97450f6bbcd5,687ed1b7e638a4cbf2f02089,6880bf1a60db0a9d0ba5eea0,,,,,,,,,,,,,,0,,,,,,,,,,,,,,,,,,,,,,,,,,,,,,,,,,,,,,,,,,,,,,,,,,,,,,,,,16,abracer,,,,,700.7762,702.2988,1,0,0.9904,,0,79,79,15,1,REAL,FAKE,,,,,,,,,,,,,,,,,
,,,,,,,,,67d5f6c42a9c97450f6bbcd5,spanish,13 or older,"no, only English or Spanish",no,2025-07-23_02h56.16.342,empathy_intonation_perc,2024.2.4,Win32,61.72839506,67d5f6c42a9c97450f6bbcd5,687ed1b7e638a4cbf2f02089,6880bf1a60db0a9d0ba5eea0,,,,,,,,,,,,,,1,,,,,,,,,,,,,,,,,,,,,,,,,,,,,,,,,,,,,,,,,,,,,,,,,,,,,,,,,3,pulmones,,,,,702.3019,703.6132,1,1,0.7668,,0,80,80,2,1,REAL,FAKE,,,,,,,,,,,,,,,,,
,,,,,,,,,67d5f6c42a9c97450f6bbcd5,spanish,13 or older,"no, only English or Spanish",no,2025-07-23_02h56.16.342,empathy_intonation_perc,2024.2.4,Win32,61.72839506,67d5f6c42a9c97450f6bbcd5,687ed1b7e638a4cbf2f02089,6880bf1a60db0a9d0ba5eea0,,,,,,,,,,,,,,1,,,,,,,,,,,,,,,,,,,,,,,,,,,,,,,,,,,,,,,,,,,,,,,,,,,,,,,,,7,pésimo,,,,,703.617,704.1568,0,0,0.0011,,0,81,81,6,1,REAL,FAKE,,,,,,,,,,,,,,,,,
,,,,,,,,,67d5f6c42a9c97450f6bbcd5,spanish,13 or older,"no, only English or Spanish",no,2025-07-23_02h56.16.342,empathy_intonation_perc,2024.2.4,Win32,61.72839506,67d5f6c42a9c97450f6bbcd5,687ed1b7e638a4cbf2f02089,6880bf1a60db0a9d0ba5eea0,,,,,,,,,,,,,,0,,,,,,,,,,,,,,,,,,,,,,,,,,,,,,,,,,,,,,,,,,,,,,,,,,,,,,,,,84,escuto,,,,,704.1589,705.6132,1,0,0.9185,,0,82,82,83,1,REAL,FAKE,,,,,,,,,,,,,,,,,
,,,,,,,,,67d5f6c42a9c97450f6bbcd5,spanish,13 or older,"no, only English or Spanish",no,2025-07-23_02h56.16.342,empathy_intonation_perc,2024.2.4,Win32,61.72839506,67d5f6c42a9c97450f6bbcd5,687ed1b7e638a4cbf2f02089,6880bf1a60db0a9d0ba5eea0,,,,,,,,,,,,,,1,,,,,,,,,,,,,,,,,,,,,,,,,,,,,,,,,,,,,,,,,,,,,,,,,,,,,,,,,54,fomentar,,,,,705.6174,707.5132,0,0,1.3522,,0,83,83,53,1,REAL,FAKE,,,,,,,,,,,,,,,,,
,,,,,,,,,67d5f6c42a9c97450f6bbcd5,spanish,13 or older,"no, only English or Spanish",no,2025-07-23_02h56.16.342,empathy_intonation_perc,2024.2.4,Win32,61.72839506,67d5f6c42a9c97450f6bbcd5,687ed1b7e638a4cbf2f02089,6880bf1a60db0a9d0ba5eea0,,,,,,,,,,,,,,1,,,,,,,,,,,,,,,,,,,,,,,,,,,,,,,,,,,,,,,,,,,,,,,,,,,,,,,,,38,estornudar,,,,,707.517,709.363,0,0,1.3031,,0,84,84,37,1,REAL,FAKE,,,,,,,,,,,,,,,,,
,,,,,,,,,67d5f6c42a9c97450f6bbcd5,spanish,13 or older,"no, only English or Spanish",no,2025-07-23_02h56.16.342,empathy_intonation_perc,2024.2.4,Win32,61.72839506,67d5f6c42a9c97450f6bbcd5,687ed1b7e638a4cbf2f02089,6880bf1a60db0a9d0ba5eea0,,,,,,,,,,,,,,1,,,,,,,,,,,,,,,,,,,,,,,,,,,,,,,,,,,,,,,,,,,,,,,,,,,,,,,,,48,ladrón,,,,,709.3674,710.9221,0,0,1.0158,,0,85,85,47,1,REAL,FAKE,,,,,,,,,,,,,,,,,
,,,,,,,,,67d5f6c42a9c97450f6bbcd5,spanish,13 or older,"no, only English or Spanish",no,2025-07-23_02h56.16.342,empathy_intonation_perc,2024.2.4,Win32,61.72839506,67d5f6c42a9c97450f6bbcd5,687ed1b7e638a4cbf2f02089,6880bf1a60db0a9d0ba5eea0,,,,,,,,,,,,,,1,,,,,,,,,,,,,,,,,,,,,,,,,,,,,,,,,,,,,,,,,,,,,,,,,,,,,,,,,22,lacayo,,,,,710.9243,712.5639,1,1,1.1016,,0,86,86,21,1,REAL,FAKE,,,,,,,,,,,,,,,,,
,,,,,,,,,67d5f6c42a9c97450f6bbcd5,spanish,13 or older,"no, only English or Spanish",no,2025-07-23_02h56.16.342,empathy_intonation_perc,2024.2.4,Win32,61.72839506,67d5f6c42a9c97450f6bbcd5,687ed1b7e638a4cbf2f02089,6880bf1a60db0a9d0ba5eea0,,,,,,,,,,,,,,0,,,,,,,,,,,,,,,,,,,,,,,,,,,,,,,,,,,,,,,,,,,,,,,,,,,,,,,,,19,brecedad,,,,,712.5679,714.5706,0,1,1.4654,,0,87,87,18,1,REAL,FAKE,,,,,,,,,,,,,,,,,
,,,,,,,,,67d5f6c42a9c97450f6bbcd5,spanish,13 or older,"no, only English or Spanish",no,2025-07-23_02h56.16.342,empathy_intonation_perc,2024.2.4,Win32,61.72839506,67d5f6c42a9c97450f6bbcd5,687ed1b7e638a4cbf2f02089,6880bf1a60db0a9d0ba5eea0,,,,,,,,,,,,,,0,,,,,,,,,,,,,,,,,,,,,,,,,,,,,,,,,,,,,,,,,,,,,,,,,,,,,,,,,79,tropaje,,,,,714.5725,716.1793,1,0,1.0688,,0,88,88,78,1,REAL,FAKE,,,,,,,,,,,,,,,,,
,,,,,,,,,67d5f6c42a9c97450f6bbcd5,spanish,13 or older,"no, only English or Spanish",no,2025-07-23_02h56.16.342,empathy_intonation_perc,2024.2.4,Win32,61.72839506,67d5f6c42a9c97450f6bbcd5,687ed1b7e638a4cbf2f02089,6880bf1a60db0a9d0ba5eea0,,,,,,,,,,,,,,0,,,,,,,,,,,,,,,,,,,,,,,,,,,,,,,,,,,,,,,,,,,,,,,,,,,,,,,,,10,antar,,,,,716.1832,718.3292,0,1,1.6017,,0,89,89,9,1,REAL,FAKE,,,,,,,,,,,,,,,,,
,,,,,,,,,67d5f6c42a9c97450f6bbcd5,spanish,13 or older,"no, only English or Spanish",no,2025-07-23_02h56.16.342,empathy_intonation_perc,2024.2.4,Win32,61.72839506,67d5f6c42a9c97450f6bbcd5,687ed1b7e638a4cbf2f02089,6880bf1a60db0a9d0ba5eea0,,,,,,,,,,,,,,0,,,,,,,,,,,,,,,,,,,,,,,,,,,,,,,,,,,,,,,,,,,,,,,,,,,,,,,,,8,cadeña,,,,,718.3332,719.8006,0,1,0.9299,,0,90,90,7,1,REAL,FAKE,,,,,,,,,,,,,,,,,
,,,,,,,,,67d5f6c42a9c97450f6bbcd5,spanish,13 or older,"no, only English or Spanish",no,2025-07-23_02h56.16.342,empathy_intonation_perc,2024.2.4,Win32,61.72839506,67d5f6c42a9c97450f6bbcd5,687ed1b7e638a4cbf2f02089,6880bf1a60db0a9d0ba5eea0,,,,,,,,,,,,,,1,,,,,,,,,,,,,,,,,,,,,,,,,,,,,,,,,,,,,,,,,,,,,,,,,,,,,,,,,78,frondoso,,,,,719.8026,721.5141,1,1,1.1746,,0,91,91,77,1,REAL,FAKE,,,,,,,,,,,,,,,,,
,,,,,,,,,67d5f6c42a9c97450f6bbcd5,spanish,13 or older,"no, only English or Spanish",no,2025-07-23_02h56.16.342,empathy_intonation_perc,2024.2.4,Win32,61.72839506,67d5f6c42a9c97450f6bbcd5,687ed1b7e638a4cbf2f02089,6880bf1a60db0a9d0ba5eea0,,,,,,,,,,,,,,,,,,,,,,,,,,,,,,,,,,,,,,,,,,,,,,,,,,,,,,,,,,,,,,,,,,,,,,,,,,,,,,,,,,,,,,,,,,721.5159,730.9018,,,,,,,,,,,,,,,
,,,,,,,,,67d5f6c42a9c97450f6bbcd5,spanish,13 or older,"no, only English or Spanish",no,2025-07-23_02h56.16.342,empathy_intonation_perc,2024.2.4,Win32,61.72839506,67d5f6c42a9c97450f6bbcd5,687ed1b7e638a4cbf2f02089,6880bf1a60db0a9d0ba5eea0,,,,,,,,,,,,,1,,,,,,,,,,,,,,,,,,,,,,,,,,,,,,,,,,,,,,,,,,,,,,,,,,,,,,,,,,,,,,,,,,,,,,,,,,,,,,,730.9372,741.1789,strongly agree,0,0,0,0,1,I can easily tell if someone else wants to enter a conversation.,1,0,1,0,,
,,,,,,,,,67d5f6c42a9c97450f6bbcd5,spanish,13 or older,"no, only English or Spanish",no,2025-07-23_02h56.16.342,empathy_intonation_perc,2024.2.4,Win32,61.72839506,67d5f6c42a9c97450f6bbcd5,687ed1b7e638a4cbf2f02089,6880bf1a60db0a9d0ba5eea0,,,,,,,,,,,,,2,,,,,,,,,,,,,,,,,,,,,,,,,,,,,,,,,,,,,,,,,,,,,,,,,,,,,,,,,,,,,,,,,,,,,,,,,,,,,,,741.1844,745.4713,strongly disagree,0,1,1,1,1,I prefer animals to humans.,0,1,0,0,,
,,,,,,,,,67d5f6c42a9c97450f6bbcd5,spanish,13 or older,"no, only English or Spanish",no,2025-07-23_02h56.16.342,empathy_intonation_perc,2024.2.4,Win32,61.72839506,67d5f6c42a9c97450f6bbcd5,687ed1b7e638a4cbf2f02089,6880bf1a60db0a9d0ba5eea0,,,,,,,,,,,,,3,,,,,,,,,,,,,,,,,,,,,,,,,,,,,,,,,,,,,,,,,,,,,,,,,,,,,,,,,,,,,,,,,,,,,,,,,,,,,,,745.4755,749.1947,slightly agree,0,2,2,2,1,I try to keep up with the current trends and fashions.,0,1,0,0,,
,,,,,,,,,67d5f6c42a9c97450f6bbcd5,spanish,13 or older,"no, only English or Spanish",no,2025-07-23_02h56.16.342,empathy_intonation_perc,2024.2.4,Win32,61.72839506,67d5f6c42a9c97450f6bbcd5,687ed1b7e638a4cbf2f02089,6880bf1a60db0a9d0ba5eea0,,,,,,,,,,,,,4,,,,,,,,,,,,,,,,,,,,,,,,,,,,,,,,,,,,,,,,,,,,,,,,,,,,,,,,,,,,,,,,,,,,,,,,,,,,,,,749.201,764.3377,strongly disagree,0,3,3,3,1,"I find it difficult to explain to others things that I understand easily,   when they don't understand it first time.",1,0,0,1,,
,,,,,,,,,67d5f6c42a9c97450f6bbcd5,spanish,13 or older,"no, only English or Spanish",no,2025-07-23_02h56.16.342,empathy_intonation_perc,2024.2.4,Win32,61.72839506,67d5f6c42a9c97450f6bbcd5,687ed1b7e638a4cbf2f02089,6880bf1a60db0a9d0ba5eea0,,,,,,,,,,,,,5,,,,,,,,,,,,,,,,,,,,,,,,,,,,,,,,,,,,,,,,,,,,,,,,,,,,,,,,,,,,,,,,,,,,,,,,,,,,,,,764.3401,767.1935,strongly disagree,0,4,4,4,1,I dream most nights.,0,1,0,0,,
,,,,,,,,,67d5f6c42a9c97450f6bbcd5,spanish,13 or older,"no, only English or Spanish",no,2025-07-23_02h56.16.342,empathy_intonation_perc,2024.2.4,Win32,61.72839506,67d5f6c42a9c97450f6bbcd5,687ed1b7e638a4cbf2f02089,6880bf1a60db0a9d0ba5eea0,,,,,,,,,,,,,6,,,,,,,,,,,,,,,,,,,,,,,,,,,,,,,,,,,,,,,,,,,,,,,,,,,,,,,,,,,,,,,,,,,,,,,,,,,,,,,767.1981,770.0444,strongly agree,0,5,5,5,1,I really enjoy caring for other people.,1,0,1,0,,
,,,,,,,,,67d5f6c42a9c97450f6bbcd5,spanish,13 or older,"no, only English or Spanish",no,2025-07-23_02h56.16.342,empathy_intonation_perc,2024.2.4,Win32,61.72839506,67d5f6c42a9c97450f6bbcd5,687ed1b7e638a4cbf2f02089,6880bf1a60db0a9d0ba5eea0,,,,,,,,,,,,,7,,,,,,,,,,,,,,,,,,,,,,,,,,,,,,,,,,,,,,,,,,,,,,,,,,,,,,,,,,,,,,,,,,,,,,,,,,,,,,,770.049,772.9096,strongly agree,0,6,6,6,1,I try to solve my own problems rather than discussing them with others.,0,1,0,0,,
,,,,,,,,,67d5f6c42a9c97450f6bbcd5,spanish,13 or older,"no, only English or Spanish",no,2025-07-23_02h56.16.342,empathy_intonation_perc,2024.2.4,Win32,61.72839506,67d5f6c42a9c97450f6bbcd5,687ed1b7e638a4cbf2f02089,6880bf1a60db0a9d0ba5eea0,,,,,,,,,,,,,8,,,,,,,,,,,,,,,,,,,,,,,,,,,,,,,,,,,,,,,,,,,,,,,,,,,,,,,,,,,,,,,,,,,,,,,,,,,,,,,772.9132,778.0923,strongly disagree,0,7,7,7,1,I find it hard to know what to do in a social situation.,1,0,0,1,,
,,,,,,,,,67d5f6c42a9c97450f6bbcd5,spanish,13 or older,"no, only English or Spanish",no,2025-07-23_02h56.16.342,empathy_intonation_perc,2024.2.4,Win32,61.72839506,67d5f6c42a9c97450f6bbcd5,687ed1b7e638a4cbf2f02089,6880bf1a60db0a9d0ba5eea0,,,,,,,,,,,,,9,,,,,,,,,,,,,,,,,,,,,,,,,,,,,,,,,,,,,,,,,,,,,,,,,,,,,,,,,,,,,,,,,,,,,,,,,,,,,,,778.0962,785.5917,slightly agree,0,8,8,8,1,I am at my best first thing in the morning.,0,1,0,0,,
,,,,,,,,,67d5f6c42a9c97450f6bbcd5,spanish,13 or older,"no, only English or Spanish",no,2025-07-23_02h56.16.342,empathy_intonation_perc,2024.2.4,Win32,61.72839506,67d5f6c42a9c97450f6bbcd5,687ed1b7e638a4cbf2f02089,6880bf1a60db0a9d0ba5eea0,,,,,,,,,,,,,10,,,,,,,,,,,,,,,,,,,,,,,,,,,,,,,,,,,,,,,,,,,,,,,,,,,,,,,,,,,,,,,,,,,,,,,,,,,,,,,785.5967,791.6793,strongly disagree,0,9,9,9,1,People often tell me that I went too far in driving my point home in a discussion.,1,0,0,1,,
