instructions_exposure.started,instructions_exposure.stopped,instructions_exposure_loop.thisRepN,instructions_exposure_loop.thisTrialN,instructions_exposure_loop.thisN,instructions_exposure_loop.thisIndex,instructions_exposure_loop.ran,instructions_text,continue_text,participant_id,"What variety of Spanish are you most familiar with? (e.g., Peruvian, Spanish, Mexican)",At what age did you begin learning Spanish?,Are you proficient in any languages other than English/Spanish?,"Are you familiar with Caribbean (e.g., Caribbean, Puerto Rican) or Galician Spanish?",date,expName,psychopyVersion,OS,frameRate,id,study_id,session,trial_exposure.started,trial_exposure.stopped,key_resp_exposure.keys,key_resp_exposure.corr,key_resp_exposure.rt,key_resp_exposure.duration,key_resp.keys,exposure_loop.thisRepN,exposure_loop.thisTrialN,exposure_loop.thisN,exposure_loop.thisIndex,exposure_loop.ran,item_num,correct_response,question,path,duration,instructions_2afc.started,instructions_2afc.stopped,instructions_2afc_loop.thisRepN,instructions_2afc_loop.thisTrialN,instructions_2afc_loop.thisN,instructions_2afc_loop.thisIndex,instructions_2afc_loop.ran,practice_2afc.started,practice_2afc.stopped,key_resp_2afc_practice.keys,key_resp_2afc_practice.corr,key_resp_2afc_practice.rt,key_resp_2afc_practice.duration,trials_2afc_practice_loop.thisRepN,trials_2afc_practice_loop.thisTrialN,trials_2afc_practice_loop.thisN,trials_2afc_practice_loop.thisIndex,trials_2afc_practice_loop.ran,check_2afc.started,check_2afc.stopped,trial_2afc.started,trial_2afc.stopped,key_resp_2afc_trial.keys,key_resp_2afc_trial.corr,key_resp_2afc_trial.rt,key_resp_2afc_trial.duration,trials_2afc_loop.thisRepN,trials_2afc_loop.thisTrialN,trials_2afc_loop.thisN,trials_2afc_loop.thisIndex,trials_2afc_loop.ran,target,variety,instructions_lextale.started,instructions_lextale.stopped,instructions_lextale_loop.thisRepN,instructions_lextale_loop.thisTrialN,instructions_lextale_loop.thisN,instructions_lextale_loop.thisIndex,instructions_lextale_loop.ran,practice_lextale.started,practice_lextale.stopped,key_resp_lextale_practice.keys,key_resp_lextale_practice.corr,key_resp_lextale_practice.rt,key_resp_lextale_practice.duration,practice_feedback_lextale.started,practice_feedback_lextale.stopped,trials_lextale_practice_loop.thisRepN,trials_lextale_practice_loop.thisTrialN,trials_lextale_practice_loop.thisN,trials_lextale_practice_loop.thisIndex,trials_lextale_practice_loop.ran,stim,word,prac_button_real,prac_button_false,check_lextale.started,check_lextale.stopped,trial_lextale.started,trial_lextale.stopped,key_resp_lextale_trial.keys,key_resp_lextale_trial.corr,key_resp_lextale_trial.rt,key_resp_lextale_trial.duration,trials_lextale_loop.thisRepN,trials_lextale_loop.thisTrialN,trials_lextale_loop.thisN,trials_lextale_loop.thisIndex,trials_lextale_loop.ran,button_real,button_false,instructions_eq.started,instructions_eq.stopped,trial_eq.started,trial_eq.stopped,slider_eq_trial.response,trials_eq_loop.thisRepN,trials_eq_loop.thisTrialN,trials_eq_loop.thisN,trials_eq_loop.thisIndex,trials_eq_loop.ran,item,is_test_item,is_distractor,is_agree_score,is_disagree_score,end_exp.started,end_exp.stopped
0.0819,7.3301,0,0,0,0,1,"In the following task, you are going to hear a series of conversations.", (press the space bar to continue),67db78c86b4bd2d085ff5699,Mexican,13 or older,"no, only English or Spanish",yes,2025-07-23_02h51.26.020,empathy_intonation_perc,2024.2.4,Win32,59.88023952,67db78c86b4bd2d085ff5699,687ed1b7e638a4cbf2f02089,688085e4f24c993615578122,,,,,,,,,,,,,,,,,,,,,,,,,,,,,,,,,,,,,,,,,,,,,,,,,,,,,,,,,,,,,,,,,,,,,,,,,,,,,,,,,,,,,,,,,,,,,,,,,,,,,,,,,,
7.3321,12.6318,0,1,1,1,1,It is okay if you don't not 100% understand them!, (press the space bar to continue),67db78c86b4bd2d085ff5699,Mexican,13 or older,"no, only English or Spanish",yes,2025-07-23_02h51.26.020,empathy_intonation_perc,2024.2.4,Win32,59.88023952,67db78c86b4bd2d085ff5699,687ed1b7e638a4cbf2f02089,688085e4f24c993615578122,,,,,,,,,,,,,,,,,,,,,,,,,,,,,,,,,,,,,,,,,,,,,,,,,,,,,,,,,,,,,,,,,,,,,,,,,,,,,,,,,,,,,,,,,,,,,,,,,,,,,,,,,,
12.669,17.7495,0,2,2,2,1,"After, you will read a sentence about the conversation and decide if it's true or false.", (press the space bar to continue),67db78c86b4bd2d085ff5699,Mexican,13 or older,"no, only English or Spanish",yes,2025-07-23_02h51.26.020,empathy_intonation_perc,2024.2.4,Win32,59.88023952,67db78c86b4bd2d085ff5699,687ed1b7e638a4cbf2f02089,688085e4f24c993615578122,,,,,,,,,,,,,,,,,,,,,,,,,,,,,,,,,,,,,,,,,,,,,,,,,,,,,,,,,,,,,,,,,,,,,,,,,,,,,,,,,,,,,,,,,,,,,,,,,,,,,,,,,,
17.7918,23.8746,0,3,3,3,1,"If it's true, press '1' (True) and if it's false press '0' (False).", (press the space bar to continue),67db78c86b4bd2d085ff5699,Mexican,13 or older,"no, only English or Spanish",yes,2025-07-23_02h51.26.020,empathy_intonation_perc,2024.2.4,Win32,59.88023952,67db78c86b4bd2d085ff5699,687ed1b7e638a4cbf2f02089,688085e4f24c993615578122,,,,,,,,,,,,,,,,,,,,,,,,,,,,,,,,,,,,,,,,,,,,,,,,,,,,,,,,,,,,,,,,,,,,,,,,,,,,,,,,,,,,,,,,,,,,,,,,,,,,,,,,,,
,,,,,,,,,67db78c86b4bd2d085ff5699,Mexican,13 or older,"no, only English or Spanish",yes,2025-07-23_02h51.26.020,empathy_intonation_perc,2024.2.4,Win32,59.88023952,67db78c86b4bd2d085ff5699,687ed1b7e638a4cbf2f02089,688085e4f24c993615578122,23.9359,61.5749,1,0,1.5584,,,0,0,0,2,1,3,0,The mom already has rice.,./stim/exposure_wavs/pr_stimuli_convo.wav,36,,,,,,,,,,,,,,,,,,,,,,,,,,,,,,,,,,,,,,,,,,,,,,,,,,,,,,,,,,,,,,,,,,,,,,,,,,,,,,,,,,,,,,,,,
,,,,,,,,,67db78c86b4bd2d085ff5699,Mexican,13 or older,"no, only English or Spanish",yes,2025-07-23_02h51.26.020,empathy_intonation_perc,2024.2.4,Win32,59.88023952,67db78c86b4bd2d085ff5699,687ed1b7e638a4cbf2f02089,688085e4f24c993615578122,61.5866,111.9766,1,1,3.3646,,,0,1,1,0,1,1,1,The son asked the mom if Aunt Marina is okay.,./stim/exposure_wavs/ga_stimuli_convo.wav,47,,,,,,,,,,,,,,,,,,,,,,,,,,,,,,,,,,,,,,,,,,,,,,,,,,,,,,,,,,,,,,,,,,,,,,,,,,,,,,,,,,,,,,,,,
,,,,,,,,,67db78c86b4bd2d085ff5699,Mexican,13 or older,"no, only English or Spanish",yes,2025-07-23_02h51.26.020,empathy_intonation_perc,2024.2.4,Win32,59.88023952,67db78c86b4bd2d085ff5699,687ed1b7e638a4cbf2f02089,688085e4f24c993615578122,112.0165,177.3384,0,0,5.3009,,,0,2,2,1,1,2,1,The mom asked the daughter if she already went to the supermarket.,./stim/exposure_wavs/dr_stimuli_convo.wav,60,,,,,,,,,,,,,,,,,,,,,,,,,,,,,,,,,,,,,,,,,,,,,,,,,,,,,,,,,,,,,,,,,,,,,,,,,,,,,,,,,,,,,,,,,
,,,,,,,"In the following task you are going to hear a series of utterances. 

  You will decide if the utterances sound like questions or not using your keyboard.", (press the spacebar to continue),67db78c86b4bd2d085ff5699,Mexican,13 or older,"no, only English or Spanish",yes,2025-07-23_02h51.26.020,empathy_intonation_perc,2024.2.4,Win32,59.88023952,67db78c86b4bd2d085ff5699,687ed1b7e638a4cbf2f02089,688085e4f24c993615578122,,,,,,,,,,,,,,,,,,177.3897,188.993,0,0,0,0,1,,,,,,,,,,,,,,,,,,,,,,,,,,,,,,,,,,,,,,,,,,,,,,,,,,,,,,,,,,,,,,,,,,,,,,,,,,,,,,,,,,
,,,,,,,"If you believe the utterance is a question, type '1' (for 'yes') and if you do not 
  believe it is a question type '0' (for 'no').

  Let's practice a bit...", (press the spacebar to continue),67db78c86b4bd2d085ff5699,Mexican,13 or older,"no, only English or Spanish",yes,2025-07-23_02h51.26.020,empathy_intonation_perc,2024.2.4,Win32,59.88023952,67db78c86b4bd2d085ff5699,687ed1b7e638a4cbf2f02089,688085e4f24c993615578122,,,,,,,,,,,,,,,,,,189.0298,194.1508,0,1,1,1,1,,,,,,,,,,,,,,,,,,,,,,,,,,,,,,,,,,,,,,,,,,,,,,,,,,,,,,,,,,,,,,,,,,,,,,,,,,,,,,,,,,
,,,,,,,,,67db78c86b4bd2d085ff5699,Mexican,13 or older,"no, only English or Spanish",yes,2025-07-23_02h51.26.020,empathy_intonation_perc,2024.2.4,Win32,59.88023952,67db78c86b4bd2d085ff5699,687ed1b7e638a4cbf2f02089,688085e4f24c993615578122,,,,,,,,,,,,,,1,,./stim/wavs/mexican_question_filler_Felipe-no-tiene-contrasena.wav,,,,,,,,,194.2079,199.0125,1,1,4.279,,0,0,0,3,1,,,,,,,,,,,,,,,,,,,,,,,,,,,,,,,,,,,,,,,,,,,,,,,,,,,,,,,,,,,,,,,,,,,,,,,
,,,,,,,,,67db78c86b4bd2d085ff5699,Mexican,13 or older,"no, only English or Spanish",yes,2025-07-23_02h51.26.020,empathy_intonation_perc,2024.2.4,Win32,59.88023952,67db78c86b4bd2d085ff5699,687ed1b7e638a4cbf2f02089,688085e4f24c993615578122,,,,,,,,,,,,,,0,,./stim/wavs/peruvian_statement_filler_El-nino-habla-con-su-madre.wav,,,,,,,,,199.0478,201.7059,0,1,2.1373,,0,1,1,6,1,,,,,,,,,,,,,,,,,,,,,,,,,,,,,,,,,,,,,,,,,,,,,,,,,,,,,,,,,,,,,,,,,,,,,,,
,,,,,,,,,67db78c86b4bd2d085ff5699,Mexican,13 or older,"no, only English or Spanish",yes,2025-07-23_02h51.26.020,empathy_intonation_perc,2024.2.4,Win32,59.88023952,67db78c86b4bd2d085ff5699,687ed1b7e638a4cbf2f02089,688085e4f24c993615578122,,,,,,,,,,,,,,1,,./stim/wavs/argentine_question_filler_Mi-vecino-habla-mucho.wav,,,,,,,,,201.737,203.8533,1,1,1.6031,,0,2,2,1,1,,,,,,,,,,,,,,,,,,,,,,,,,,,,,,,,,,,,,,,,,,,,,,,,,,,,,,,,,,,,,,,,,,,,,,,
,,,,,,,,,67db78c86b4bd2d085ff5699,Mexican,13 or older,"no, only English or Spanish",yes,2025-07-23_02h51.26.020,empathy_intonation_perc,2024.2.4,Win32,59.88023952,67db78c86b4bd2d085ff5699,687ed1b7e638a4cbf2f02089,688085e4f24c993615578122,,,,,,,,,,,,,,0,,./stim/wavs/puertorican_statement_filler_La-nina-pinta-con-su-amiga.wav,,,,,,,,,203.856,206.7671,0,1,2.387,,0,3,3,7,1,,,,,,,,,,,,,,,,,,,,,,,,,,,,,,,,,,,,,,,,,,,,,,,,,,,,,,,,,,,,,,,,,,,,,,,
,,,,,,,,,67db78c86b4bd2d085ff5699,Mexican,13 or older,"no, only English or Spanish",yes,2025-07-23_02h51.26.020,empathy_intonation_perc,2024.2.4,Win32,59.88023952,67db78c86b4bd2d085ff5699,687ed1b7e638a4cbf2f02089,688085e4f24c993615578122,,,,,,,,,,,,,,0,,./stim/wavs/andalusian_statement_filler_Alberto-nunca-se-afeita.wav,,,,,,,,,206.7691,209.1328,1,0,1.8401,,0,4,4,5,1,,,,,,,,,,,,,,,,,,,,,,,,,,,,,,,,,,,,,,,,,,,,,,,,,,,,,,,,,,,,,,,,,,,,,,,
,,,,,,,,,67db78c86b4bd2d085ff5699,Mexican,13 or older,"no, only English or Spanish",yes,2025-07-23_02h51.26.020,empathy_intonation_perc,2024.2.4,Win32,59.88023952,67db78c86b4bd2d085ff5699,687ed1b7e638a4cbf2f02089,688085e4f24c993615578122,,,,,,,,,,,,,,0,,./stim/wavs/cuban_statement_filler_Cocinabas-por-la-noche.wav,,,,,,,,,209.1652,211.6601,0,1,1.948,,0,5,5,4,1,,,,,,,,,,,,,,,,,,,,,,,,,,,,,,,,,,,,,,,,,,,,,,,,,,,,,,,,,,,,,,,,,,,,,,,
,,,,,,,,,67db78c86b4bd2d085ff5699,Mexican,13 or older,"no, only English or Spanish",yes,2025-07-23_02h51.26.020,empathy_intonation_perc,2024.2.4,Win32,59.88023952,67db78c86b4bd2d085ff5699,687ed1b7e638a4cbf2f02089,688085e4f24c993615578122,,,,,,,,,,,,,,1,,./stim/wavs/chilean_question_filler_Mi-padre-cantaba-bien.wav,,,,,,,,,211.662,213.6904,1,1,1.5025,,0,6,6,2,1,,,,,,,,,,,,,,,,,,,,,,,,,,,,,,,,,,,,,,,,,,,,,,,,,,,,,,,,,,,,,,,,,,,,,,,
,,,,,,,,,67db78c86b4bd2d085ff5699,Mexican,13 or older,"no, only English or Spanish",yes,2025-07-23_02h51.26.020,empathy_intonation_perc,2024.2.4,Win32,59.88023952,67db78c86b4bd2d085ff5699,687ed1b7e638a4cbf2f02089,688085e4f24c993615578122,,,,,,,,,,,,,,1,,./stim/wavs/castilian_question_filler_Mi-esposo-conoce-al-chico.wav,,,,,,,,,213.6928,216.2134,1,1,1.9964,,0,7,7,0,1,,,,,,,,,,,,,,,,,,,,,,,,,,,,,,,,,,,,,,,,,,,,,,,,,,,,,,,,,,,,,,,,,,,,,,,
,,,,,,,,,67db78c86b4bd2d085ff5699,Mexican,13 or older,"no, only English or Spanish",yes,2025-07-23_02h51.26.020,empathy_intonation_perc,2024.2.4,Win32,59.88023952,67db78c86b4bd2d085ff5699,687ed1b7e638a4cbf2f02089,688085e4f24c993615578122,,,,,,,,,,,,,,,,,,,,,,,,,,,,,,,,,,,,216.2165,222.8806,,,,,,,,,,,,,,,,,,,,,,,,,,,,,,,,,,,,,,,,,,,,,,,,,,,,,,,,,,,,,,,,,,,,,
,,,,,,,,,67db78c86b4bd2d085ff5699,Mexican,13 or older,"no, only English or Spanish",yes,2025-07-23_02h51.26.020,empathy_intonation_perc,2024.2.4,Win32,59.88023952,67db78c86b4bd2d085ff5699,687ed1b7e638a4cbf2f02089,688085e4f24c993615578122,,,,,,,,,,,,,54,0,,./stim/wavs/cuban_match_declarative-broad-focus_Maria-bebe-el-vino.wav,,,,,,,,,,,,,,,,,,,,,,222.9405,225.4925,0,1,2.0191,,0,0,0,53,1,0,cuban,,,,,,,,,,,,,,,,,,,,,,,,,,,,,,,,,,,,,,,,,,,,,,,,,,,,,,,,
,,,,,,,,,67db78c86b4bd2d085ff5699,Mexican,13 or older,"no, only English or Spanish",yes,2025-07-23_02h51.26.020,empathy_intonation_perc,2024.2.4,Win32,59.88023952,67db78c86b4bd2d085ff5699,687ed1b7e638a4cbf2f02089,688085e4f24c993615578122,,,,,,,,,,,,,27,1,,./stim/wavs/castilian_mismatch_interrogative-total-yn_Mi-madre-come-la-fruta.wav,,,,,,,,,,,,,,,,,,,,,,225.5251,228.0239,1,1,1.9721,,0,1,1,26,1,0,castilian,,,,,,,,,,,,,,,,,,,,,,,,,,,,,,,,,,,,,,,,,,,,,,,,,,,,,,,,
,,,,,,,,,67db78c86b4bd2d085ff5699,Mexican,13 or older,"no, only English or Spanish",yes,2025-07-23_02h51.26.020,empathy_intonation_perc,2024.2.4,Win32,59.88023952,67db78c86b4bd2d085ff5699,687ed1b7e638a4cbf2f02089,688085e4f24c993615578122,,,,,,,,,,,,,44,1,,./stim/wavs/puertorican_mismatch_interrogative-total-yn_Mi-madre-come-la-fruta.wav,,,,,,,,,,,,,,,,,,,,,,228.0261,230.0701,1,1,1.5209,,0,2,2,43,1,1,puertorican,,,,,,,,,,,,,,,,,,,,,,,,,,,,,,,,,,,,,,,,,,,,,,,,,,,,,,,,
,,,,,,,,,67db78c86b4bd2d085ff5699,Mexican,13 or older,"no, only English or Spanish",yes,2025-07-23_02h51.26.020,empathy_intonation_perc,2024.2.4,Win32,59.88023952,67db78c86b4bd2d085ff5699,687ed1b7e638a4cbf2f02089,688085e4f24c993615578122,,,,,,,,,,,,,60,0,,./stim/wavs/mexican_match_declarative-broad-focus_Emilio-ama-la-marcha.wav,,,,,,,,,,,,,,,,,,,,,,230.0721,232.7658,0,1,2.1652,,0,3,3,59,1,0,mexican,,,,,,,,,,,,,,,,,,,,,,,,,,,,,,,,,,,,,,,,,,,,,,,,,,,,,,,,
,,,,,,,,,67db78c86b4bd2d085ff5699,Mexican,13 or older,"no, only English or Spanish",yes,2025-07-23_02h51.26.020,empathy_intonation_perc,2024.2.4,Win32,59.88023952,67db78c86b4bd2d085ff5699,687ed1b7e638a4cbf2f02089,688085e4f24c993615578122,,,,,,,,,,,,,32,1,,./stim/wavs/cuban_mismatch_interrogative-total-yn_Mi-madre-come-la-fruta.wav,,,,,,,,,,,,,,,,,,,,,,232.7681,234.863,1,1,1.5741,,0,4,4,31,1,1,cuban,,,,,,,,,,,,,,,,,,,,,,,,,,,,,,,,,,,,,,,,,,,,,,,,,,,,,,,,
,,,,,,,,,67db78c86b4bd2d085ff5699,Mexican,13 or older,"no, only English or Spanish",yes,2025-07-23_02h51.26.020,empathy_intonation_perc,2024.2.4,Win32,59.88023952,67db78c86b4bd2d085ff5699,687ed1b7e638a4cbf2f02089,688085e4f24c993615578122,,,,,,,,,,,,,9,1,,./stim/wavs/cuban_match_interrogative-total-yn_Manuela-vende-el-carro.wav,,,,,,,,,,,,,,,,,,,,,,234.8651,237.0942,0,0,1.7015,,0,5,5,8,1,1,cuban,,,,,,,,,,,,,,,,,,,,,,,,,,,,,,,,,,,,,,,,,,,,,,,,,,,,,,,,
,,,,,,,,,67db78c86b4bd2d085ff5699,Mexican,13 or older,"no, only English or Spanish",yes,2025-07-23_02h51.26.020,empathy_intonation_perc,2024.2.4,Win32,59.88023952,67db78c86b4bd2d085ff5699,687ed1b7e638a4cbf2f02089,688085e4f24c993615578122,,,,,,,,,,,,,57,0,,./stim/wavs/mexican_match_declarative-broad-focus_Ana-lleva-el-abrigo.wav,,,,,,,,,,,,,,,,,,,,,,237.0963,239.0241,0,1,1.4044,,0,6,6,56,1,0,mexican,,,,,,,,,,,,,,,,,,,,,,,,,,,,,,,,,,,,,,,,,,,,,,,,,,,,,,,,
,,,,,,,,,67db78c86b4bd2d085ff5699,Mexican,13 or older,"no, only English or Spanish",yes,2025-07-23_02h51.26.020,empathy_intonation_perc,2024.2.4,Win32,59.88023952,67db78c86b4bd2d085ff5699,687ed1b7e638a4cbf2f02089,688085e4f24c993615578122,,,,,,,,,,,,,33,1,,./stim/wavs/cuban_mismatch_interrogative-total-yn_Mi-novio-viene-del-lago.wav,,,,,,,,,,,,,,,,,,,,,,239.0264,241.521,1,1,1.9647,,0,7,7,32,1,1,cuban,,,,,,,,,,,,,,,,,,,,,,,,,,,,,,,,,,,,,,,,,,,,,,,,,,,,,,,,
,,,,,,,,,67db78c86b4bd2d085ff5699,Mexican,13 or older,"no, only English or Spanish",yes,2025-07-23_02h51.26.020,empathy_intonation_perc,2024.2.4,Win32,59.88023952,67db78c86b4bd2d085ff5699,687ed1b7e638a4cbf2f02089,688085e4f24c993615578122,,,,,,,,,,,,,45,0,,./stim/wavs/castilian_match_declarative-broad-focus_David-leia-el-libro.wav,,,,,,,,,,,,,,,,,,,,,,241.5538,244.151,1,0,2.0633,,0,8,8,44,1,0,castilian,,,,,,,,,,,,,,,,,,,,,,,,,,,,,,,,,,,,,,,,,,,,,,,,,,,,,,,,
,,,,,,,,,67db78c86b4bd2d085ff5699,Mexican,13 or older,"no, only English or Spanish",yes,2025-07-23_02h51.26.020,empathy_intonation_perc,2024.2.4,Win32,59.88023952,67db78c86b4bd2d085ff5699,687ed1b7e638a4cbf2f02089,688085e4f24c993615578122,,,,,,,,,,,,,15,1,,./stim/wavs/mexican_match_interrogative-total-yn_David-leia-el-libro.wav,,,,,,,,,,,,,,,,,,,,,,244.1535,246.215,0,0,1.5318,,0,9,9,14,1,0,mexican,,,,,,,,,,,,,,,,,,,,,,,,,,,,,,,,,,,,,,,,,,,,,,,,,,,,,,,,
,,,,,,,,,67db78c86b4bd2d085ff5699,Mexican,13 or older,"no, only English or Spanish",yes,2025-07-23_02h51.26.020,empathy_intonation_perc,2024.2.4,Win32,59.88023952,67db78c86b4bd2d085ff5699,687ed1b7e638a4cbf2f02089,688085e4f24c993615578122,,,,,,,,,,,,,74,0,,./stim/wavs/cuban_mismatch_declarative-broad-focus_El-bebe-comia-muy-bien.wav,,,,,,,,,,,,,,,,,,,,,,246.2169,248.4297,0,1,1.6866,,0,10,10,73,1,0,cuban,,,,,,,,,,,,,,,,,,,,,,,,,,,,,,,,,,,,,,,,,,,,,,,,,,,,,,,,
,,,,,,,,,67db78c86b4bd2d085ff5699,Mexican,13 or older,"no, only English or Spanish",yes,2025-07-23_02h51.26.020,empathy_intonation_perc,2024.2.4,Win32,59.88023952,67db78c86b4bd2d085ff5699,687ed1b7e638a4cbf2f02089,688085e4f24c993615578122,,,,,,,,,,,,,46,0,,./stim/wavs/castilian_match_declarative-broad-focus_Emilio-ama-la-marcha.wav,,,,,,,,,,,,,,,,,,,,,,248.4322,250.9083,0,1,1.9541,,0,11,11,45,1,0,castilian,,,,,,,,,,,,,,,,,,,,,,,,,,,,,,,,,,,,,,,,,,,,,,,,,,,,,,,,
,,,,,,,,,67db78c86b4bd2d085ff5699,Mexican,13 or older,"no, only English or Spanish",yes,2025-07-23_02h51.26.020,empathy_intonation_perc,2024.2.4,Win32,59.88023952,67db78c86b4bd2d085ff5699,687ed1b7e638a4cbf2f02089,688085e4f24c993615578122,,,,,,,,,,,,,29,1,,./stim/wavs/castilian_mismatch_interrogative-total-yn_Mi-tia-odia-la-lluvia.wav,,,,,,,,,,,,,,,,,,,,,,250.9105,253.2217,1,1,1.7825,,0,12,12,28,1,0,castilian,,,,,,,,,,,,,,,,,,,,,,,,,,,,,,,,,,,,,,,,,,,,,,,,,,,,,,,,
,,,,,,,,,67db78c86b4bd2d085ff5699,Mexican,13 or older,"no, only English or Spanish",yes,2025-07-23_02h51.26.020,empathy_intonation_perc,2024.2.4,Win32,59.88023952,67db78c86b4bd2d085ff5699,687ed1b7e638a4cbf2f02089,688085e4f24c993615578122,,,,,,,,,,,,,49,0,,./stim/wavs/castilian_match_declarative-broad-focus_Mariano-habla-del-tiempo.wav,,,,,,,,,,,,,,,,,,,,,,253.2534,255.3196,1,0,1.5499,,0,13,13,48,1,0,castilian,,,,,,,,,,,,,,,,,,,,,,,,,,,,,,,,,,,,,,,,,,,,,,,,,,,,,,,,
,,,,,,,,,67db78c86b4bd2d085ff5699,Mexican,13 or older,"no, only English or Spanish",yes,2025-07-23_02h51.26.020,empathy_intonation_perc,2024.2.4,Win32,59.88023952,67db78c86b4bd2d085ff5699,687ed1b7e638a4cbf2f02089,688085e4f24c993615578122,,,,,,,,,,,,,70,0,,./stim/wavs/castilian_mismatch_declarative-broad-focus_La-maestra-vive-en-Paris.wav,,,,,,,,,,,,,,,,,,,,,,255.3219,258.1323,0,1,2.2883,,0,14,14,69,1,0,castilian,,,,,,,,,,,,,,,,,,,,,,,,,,,,,,,,,,,,,,,,,,,,,,,,,,,,,,,,
,,,,,,,,,67db78c86b4bd2d085ff5699,Mexican,13 or older,"no, only English or Spanish",yes,2025-07-23_02h51.26.020,empathy_intonation_perc,2024.2.4,Win32,59.88023952,67db78c86b4bd2d085ff5699,687ed1b7e638a4cbf2f02089,688085e4f24c993615578122,,,,,,,,,,,,,1,1,,./stim/wavs/castilian_match_interrogative-total-yn_David-leia-el-libro.wav,,,,,,,,,,,,,,,,,,,,,,258.1352,260.7616,1,1,2.0975,,0,15,15,0,1,0,castilian,,,,,,,,,,,,,,,,,,,,,,,,,,,,,,,,,,,,,,,,,,,,,,,,,,,,,,,,
,,,,,,,,,67db78c86b4bd2d085ff5699,Mexican,13 or older,"no, only English or Spanish",yes,2025-07-23_02h51.26.020,empathy_intonation_perc,2024.2.4,Win32,59.88023952,67db78c86b4bd2d085ff5699,687ed1b7e638a4cbf2f02089,688085e4f24c993615578122,,,,,,,,,,,,,48,0,,./stim/wavs/castilian_match_declarative-broad-focus_Maria-bebe-el-vino.wav,,,,,,,,,,,,,,,,,,,,,,260.7634,263.1087,0,1,1.8146,,0,16,16,47,1,0,castilian,,,,,,,,,,,,,,,,,,,,,,,,,,,,,,,,,,,,,,,,,,,,,,,,,,,,,,,,
,,,,,,,,,67db78c86b4bd2d085ff5699,Mexican,13 or older,"no, only English or Spanish",yes,2025-07-23_02h51.26.020,empathy_intonation_perc,2024.2.4,Win32,59.88023952,67db78c86b4bd2d085ff5699,687ed1b7e638a4cbf2f02089,688085e4f24c993615578122,,,,,,,,,,,,,39,1,,./stim/wavs/mexican_mismatch_interrogative-total-yn_Mi-tia-odia-la-lluvia.wav,,,,,,,,,,,,,,,,,,,,,,263.1105,265.5555,0,0,1.9187,,0,17,17,38,1,0,mexican,,,,,,,,,,,,,,,,,,,,,,,,,,,,,,,,,,,,,,,,,,,,,,,,,,,,,,,,
,,,,,,,,,67db78c86b4bd2d085ff5699,Mexican,13 or older,"no, only English or Spanish",yes,2025-07-23_02h51.26.020,empathy_intonation_perc,2024.2.4,Win32,59.88023952,67db78c86b4bd2d085ff5699,687ed1b7e638a4cbf2f02089,688085e4f24c993615578122,,,,,,,,,,,,,4,1,,./stim/wavs/castilian_match_interrogative-total-yn_Maria-bebe-el-vino.wav,,,,,,,,,,,,,,,,,,,,,,265.5856,267.7365,1,1,1.6315,,0,18,18,3,1,0,castilian,,,,,,,,,,,,,,,,,,,,,,,,,,,,,,,,,,,,,,,,,,,,,,,,,,,,,,,,
,,,,,,,,,67db78c86b4bd2d085ff5699,Mexican,13 or older,"no, only English or Spanish",yes,2025-07-23_02h51.26.020,empathy_intonation_perc,2024.2.4,Win32,59.88023952,67db78c86b4bd2d085ff5699,687ed1b7e638a4cbf2f02089,688085e4f24c993615578122,,,,,,,,,,,,,30,1,,./stim/wavs/cuban_mismatch_interrogative-total-yn_El-hombre-mira-la-luna.wav,,,,,,,,,,,,,,,,,,,,,,267.739,270.0166,1,1,1.7433,,0,19,19,29,1,1,cuban,,,,,,,,,,,,,,,,,,,,,,,,,,,,,,,,,,,,,,,,,,,,,,,,,,,,,,,,
,,,,,,,,,67db78c86b4bd2d085ff5699,Mexican,13 or older,"no, only English or Spanish",yes,2025-07-23_02h51.26.020,empathy_intonation_perc,2024.2.4,Win32,59.88023952,67db78c86b4bd2d085ff5699,687ed1b7e638a4cbf2f02089,688085e4f24c993615578122,,,,,,,,,,,,,63,0,,./stim/wavs/puertorican_match_declarative-broad-focus_Ana-lleva-el-abrigo.wav,,,,,,,,,,,,,,,,,,,,,,270.0187,272.1305,1,0,1.5847,,0,20,20,62,1,0,puertorican,,,,,,,,,,,,,,,,,,,,,,,,,,,,,,,,,,,,,,,,,,,,,,,,,,,,,,,,
,,,,,,,,,67db78c86b4bd2d085ff5699,Mexican,13 or older,"no, only English or Spanish",yes,2025-07-23_02h51.26.020,empathy_intonation_perc,2024.2.4,Win32,59.88023952,67db78c86b4bd2d085ff5699,687ed1b7e638a4cbf2f02089,688085e4f24c993615578122,,,,,,,,,,,,,23,1,,./stim/wavs/puertorican_match_interrogative-total-yn_Manuela-vende-el-carro.wav,,,,,,,,,,,,,,,,,,,,,,272.1326,274.2777,0,0,1.6239,,0,21,21,22,1,1,puertorican,,,,,,,,,,,,,,,,,,,,,,,,,,,,,,,,,,,,,,,,,,,,,,,,,,,,,,,,
,,,,,,,,,67db78c86b4bd2d085ff5699,Mexican,13 or older,"no, only English or Spanish",yes,2025-07-23_02h51.26.020,empathy_intonation_perc,2024.2.4,Win32,59.88023952,67db78c86b4bd2d085ff5699,687ed1b7e638a4cbf2f02089,688085e4f24c993615578122,,,,,,,,,,,,,56,0,,./stim/wavs/cuban_match_declarative-broad-focus_Marta-abre-el-regalo.wav,,,,,,,,,,,,,,,,,,,,,,274.2801,276.4243,1,0,1.6233,,0,22,22,55,1,0,cuban,,,,,,,,,,,,,,,,,,,,,,,,,,,,,,,,,,,,,,,,,,,,,,,,,,,,,,,,
,,,,,,,,,67db78c86b4bd2d085ff5699,Mexican,13 or older,"no, only English or Spanish",yes,2025-07-23_02h51.26.020,empathy_intonation_perc,2024.2.4,Win32,59.88023952,67db78c86b4bd2d085ff5699,687ed1b7e638a4cbf2f02089,688085e4f24c993615578122,,,,,,,,,,,,,43,1,,./stim/wavs/puertorican_mismatch_interrogative-total-yn_La-nina-lava-el-plato.wav,,,,,,,,,,,,,,,,,,,,,,276.4262,278.6053,0,0,1.6493,,0,23,23,42,1,1,puertorican,,,,,,,,,,,,,,,,,,,,,,,,,,,,,,,,,,,,,,,,,,,,,,,,,,,,,,,,
,,,,,,,,,67db78c86b4bd2d085ff5699,Mexican,13 or older,"no, only English or Spanish",yes,2025-07-23_02h51.26.020,empathy_intonation_perc,2024.2.4,Win32,59.88023952,67db78c86b4bd2d085ff5699,687ed1b7e638a4cbf2f02089,688085e4f24c993615578122,,,,,,,,,,,,,40,1,,./stim/wavs/puertorican_mismatch_interrogative-total-yn_El-hombre-mira-la-luna.wav,,,,,,,,,,,,,,,,,,,,,,278.6075,280.6197,1,1,1.4841,,0,24,24,39,1,1,puertorican,,,,,,,,,,,,,,,,,,,,,,,,,,,,,,,,,,,,,,,,,,,,,,,,,,,,,,,,
,,,,,,,,,67db78c86b4bd2d085ff5699,Mexican,13 or older,"no, only English or Spanish",yes,2025-07-23_02h51.26.020,empathy_intonation_perc,2024.2.4,Win32,59.88023952,67db78c86b4bd2d085ff5699,687ed1b7e638a4cbf2f02089,688085e4f24c993615578122,,,,,,,,,,,,,36,1,,./stim/wavs/mexican_mismatch_interrogative-total-yn_El-nino-oye-el-rio.wav,,,,,,,,,,,,,,,,,,,,,,280.6217,282.5831,1,1,1.4225,,0,25,25,35,1,0,mexican,,,,,,,,,,,,,,,,,,,,,,,,,,,,,,,,,,,,,,,,,,,,,,,,,,,,,,,,
,,,,,,,,,67db78c86b4bd2d085ff5699,Mexican,13 or older,"no, only English or Spanish",yes,2025-07-23_02h51.26.020,empathy_intonation_perc,2024.2.4,Win32,59.88023952,67db78c86b4bd2d085ff5699,687ed1b7e638a4cbf2f02089,688085e4f24c993615578122,,,,,,,,,,,,,31,1,,./stim/wavs/cuban_mismatch_interrogative-total-yn_El-nino-oye-el-rio.wav,,,,,,,,,,,,,,,,,,,,,,282.5856,284.4309,1,1,1.3164,,0,26,26,30,1,1,cuban,,,,,,,,,,,,,,,,,,,,,,,,,,,,,,,,,,,,,,,,,,,,,,,,,,,,,,,,
,,,,,,,,,67db78c86b4bd2d085ff5699,Mexican,13 or older,"no, only English or Spanish",yes,2025-07-23_02h51.26.020,empathy_intonation_perc,2024.2.4,Win32,59.88023952,67db78c86b4bd2d085ff5699,687ed1b7e638a4cbf2f02089,688085e4f24c993615578122,,,,,,,,,,,,,80,0,,./stim/wavs/mexican_mismatch_declarative-broad-focus_El-hombre-mira-la-luna.wav,,,,,,,,,,,,,,,,,,,,,,284.433,286.4452,1,0,1.4832,,0,27,27,79,1,0,mexican,,,,,,,,,,,,,,,,,,,,,,,,,,,,,,,,,,,,,,,,,,,,,,,,,,,,,,,,
,,,,,,,,,67db78c86b4bd2d085ff5699,Mexican,13 or older,"no, only English or Spanish",yes,2025-07-23_02h51.26.020,empathy_intonation_perc,2024.2.4,Win32,59.88023952,67db78c86b4bd2d085ff5699,687ed1b7e638a4cbf2f02089,688085e4f24c993615578122,,,,,,,,,,,,,34,1,,./stim/wavs/cuban_mismatch_interrogative-total-yn_Mi-tia-odia-la-lluvia.wav,,,,,,,,,,,,,,,,,,,,,,286.4477,288.5261,0,0,1.5422,,0,28,28,33,1,1,cuban,,,,,,,,,,,,,,,,,,,,,,,,,,,,,,,,,,,,,,,,,,,,,,,,,,,,,,,,
,,,,,,,,,67db78c86b4bd2d085ff5699,Mexican,13 or older,"no, only English or Spanish",yes,2025-07-23_02h51.26.020,empathy_intonation_perc,2024.2.4,Win32,59.88023952,67db78c86b4bd2d085ff5699,687ed1b7e638a4cbf2f02089,688085e4f24c993615578122,,,,,,,,,,,,,62,0,,./stim/wavs/mexican_match_declarative-broad-focus_Marta-abre-el-regalo.wav,,,,,,,,,,,,,,,,,,,,,,288.5281,290.8811,1,0,1.8292,,0,29,29,61,1,0,mexican,,,,,,,,,,,,,,,,,,,,,,,,,,,,,,,,,,,,,,,,,,,,,,,,,,,,,,,,
,,,,,,,,,67db78c86b4bd2d085ff5699,Mexican,13 or older,"no, only English or Spanish",yes,2025-07-23_02h51.26.020,empathy_intonation_perc,2024.2.4,Win32,59.88023952,67db78c86b4bd2d085ff5699,687ed1b7e638a4cbf2f02089,688085e4f24c993615578122,,,,,,,,,,,,,41,1,,./stim/wavs/puertorican_mismatch_interrogative-total-yn_El-nino-oye-el-rio.wav,,,,,,,,,,,,,,,,,,,,,,290.8829,292.8196,0,0,1.4172,,0,30,30,40,1,1,puertorican,,,,,,,,,,,,,,,,,,,,,,,,,,,,,,,,,,,,,,,,,,,,,,,,,,,,,,,,
,,,,,,,,,67db78c86b4bd2d085ff5699,Mexican,13 or older,"no, only English or Spanish",yes,2025-07-23_02h51.26.020,empathy_intonation_perc,2024.2.4,Win32,59.88023952,67db78c86b4bd2d085ff5699,687ed1b7e638a4cbf2f02089,688085e4f24c993615578122,,,,,,,,,,,,,59,0,,./stim/wavs/mexican_match_declarative-broad-focus_David-leia-el-libro.wav,,,,,,,,,,,,,,,,,,,,,,292.8219,294.1177,1,0,0.7655,,0,31,31,58,1,0,mexican,,,,,,,,,,,,,,,,,,,,,,,,,,,,,,,,,,,,,,,,,,,,,,,,,,,,,,,,
,,,,,,,,,67db78c86b4bd2d085ff5699,Mexican,13 or older,"no, only English or Spanish",yes,2025-07-23_02h51.26.020,empathy_intonation_perc,2024.2.4,Win32,59.88023952,67db78c86b4bd2d085ff5699,687ed1b7e638a4cbf2f02089,688085e4f24c993615578122,,,,,,,,,,,,,12,1,,./stim/wavs/cuban_match_interrogative-total-yn_Marta-abre-el-regalo.wav,,,,,,,,,,,,,,,,,,,,,,294.1208,296.3159,0,0,1.6501,,0,32,32,11,1,1,cuban,,,,,,,,,,,,,,,,,,,,,,,,,,,,,,,,,,,,,,,,,,,,,,,,,,,,,,,,
,,,,,,,,,67db78c86b4bd2d085ff5699,Mexican,13 or older,"no, only English or Spanish",yes,2025-07-23_02h51.26.020,empathy_intonation_perc,2024.2.4,Win32,59.88023952,67db78c86b4bd2d085ff5699,687ed1b7e638a4cbf2f02089,688085e4f24c993615578122,,,,,,,,,,,,,72,0,,./stim/wavs/castilian_mismatch_declarative-broad-focus_Mi-novio-viene-del-lago.wav,,,,,,,,,,,,,,,,,,,,,,296.3181,298.7456,0,1,1.8976,,0,33,33,71,1,0,castilian,,,,,,,,,,,,,,,,,,,,,,,,,,,,,,,,,,,,,,,,,,,,,,,,,,,,,,,,
,,,,,,,,,67db78c86b4bd2d085ff5699,Mexican,13 or older,"no, only English or Spanish",yes,2025-07-23_02h51.26.020,empathy_intonation_perc,2024.2.4,Win32,59.88023952,67db78c86b4bd2d085ff5699,687ed1b7e638a4cbf2f02089,688085e4f24c993615578122,,,,,,,,,,,,,79,0,,./stim/wavs/mexican_mismatch_declarative-broad-focus_El-bebe-comia-muy-bien.wav,,,,,,,,,,,,,,,,,,,,,,298.748,300.7926,1,0,1.5155,,0,34,34,78,1,0,mexican,,,,,,,,,,,,,,,,,,,,,,,,,,,,,,,,,,,,,,,,,,,,,,,,,,,,,,,,
,,,,,,,,,67db78c86b4bd2d085ff5699,Mexican,13 or older,"no, only English or Spanish",yes,2025-07-23_02h51.26.020,empathy_intonation_perc,2024.2.4,Win32,59.88023952,67db78c86b4bd2d085ff5699,687ed1b7e638a4cbf2f02089,688085e4f24c993615578122,,,,,,,,,,,,,14,1,,./stim/wavs/mexican_match_interrogative-total-yn_Daniel-iba-a-Bolivia.wav,,,,,,,,,,,,,,,,,,,,,,300.7947,303.3892,1,1,2.0646,,0,35,35,13,1,0,mexican,,,,,,,,,,,,,,,,,,,,,,,,,,,,,,,,,,,,,,,,,,,,,,,,,,,,,,,,
,,,,,,,,,67db78c86b4bd2d085ff5699,Mexican,13 or older,"no, only English or Spanish",yes,2025-07-23_02h51.26.020,empathy_intonation_perc,2024.2.4,Win32,59.88023952,67db78c86b4bd2d085ff5699,687ed1b7e638a4cbf2f02089,688085e4f24c993615578122,,,,,,,,,,,,,35,1,,./stim/wavs/mexican_mismatch_interrogative-total-yn_El-hombre-mira-la-luna.wav,,,,,,,,,,,,,,,,,,,,,,303.391,305.4862,1,1,1.5702,,0,36,36,34,1,0,mexican,,,,,,,,,,,,,,,,,,,,,,,,,,,,,,,,,,,,,,,,,,,,,,,,,,,,,,,,
,,,,,,,,,67db78c86b4bd2d085ff5699,Mexican,13 or older,"no, only English or Spanish",yes,2025-07-23_02h51.26.020,empathy_intonation_perc,2024.2.4,Win32,59.88023952,67db78c86b4bd2d085ff5699,687ed1b7e638a4cbf2f02089,688085e4f24c993615578122,,,,,,,,,,,,,84,0,,./stim/wavs/puertorican_mismatch_declarative-broad-focus_El-bebe-comia-muy-bien.wav,,,,,,,,,,,,,,,,,,,,,,305.5168,307.6834,0,1,1.6495,,0,37,37,83,1,0,puertorican,,,,,,,,,,,,,,,,,,,,,,,,,,,,,,,,,,,,,,,,,,,,,,,,,,,,,,,,
,,,,,,,,,67db78c86b4bd2d085ff5699,Mexican,13 or older,"no, only English or Spanish",yes,2025-07-23_02h51.26.020,empathy_intonation_perc,2024.2.4,Win32,59.88023952,67db78c86b4bd2d085ff5699,687ed1b7e638a4cbf2f02089,688085e4f24c993615578122,,,,,,,,,,,,,50,0,,./stim/wavs/castilian_match_declarative-broad-focus_Marta-abre-el-regalo.wav,,,,,,,,,,,,,,,,,,,,,,307.6855,310.0134,0,1,1.8027,,0,38,38,49,1,0,castilian,,,,,,,,,,,,,,,,,,,,,,,,,,,,,,,,,,,,,,,,,,,,,,,,,,,,,,,,
,,,,,,,,,67db78c86b4bd2d085ff5699,Mexican,13 or older,"no, only English or Spanish",yes,2025-07-23_02h51.26.020,empathy_intonation_perc,2024.2.4,Win32,59.88023952,67db78c86b4bd2d085ff5699,687ed1b7e638a4cbf2f02089,688085e4f24c993615578122,,,,,,,,,,,,,26,1,,./stim/wavs/castilian_mismatch_interrogative-total-yn_La-nina-lava-el-plato.wav,,,,,,,,,,,,,,,,,,,,,,310.0151,312.3937,1,1,1.8482,,0,39,39,25,1,0,castilian,,,,,,,,,,,,,,,,,,,,,,,,,,,,,,,,,,,,,,,,,,,,,,,,,,,,,,,,
,,,,,,,,,67db78c86b4bd2d085ff5699,Mexican,13 or older,"no, only English or Spanish",yes,2025-07-23_02h51.26.020,empathy_intonation_perc,2024.2.4,Win32,59.88023952,67db78c86b4bd2d085ff5699,687ed1b7e638a4cbf2f02089,688085e4f24c993615578122,,,,,,,,,,,,,77,0,,./stim/wavs/cuban_mismatch_declarative-broad-focus_Mi-novio-viene-del-lago.wav,,,,,,,,,,,,,,,,,,,,,,312.3956,314.6573,0,1,1.7316,,0,40,40,76,1,0,cuban,,,,,,,,,,,,,,,,,,,,,,,,,,,,,,,,,,,,,,,,,,,,,,,,,,,,,,,,
,,,,,,,,,67db78c86b4bd2d085ff5699,Mexican,13 or older,"no, only English or Spanish",yes,2025-07-23_02h51.26.020,empathy_intonation_perc,2024.2.4,Win32,59.88023952,67db78c86b4bd2d085ff5699,687ed1b7e638a4cbf2f02089,688085e4f24c993615578122,,,,,,,,,,,,,24,1,,./stim/wavs/puertorican_match_interrogative-total-yn_Maria-bebe-el-vino.wav,,,,,,,,,,,,,,,,,,,,,,314.6589,316.8045,1,1,1.6165,,0,41,41,23,1,1,puertorican,,,,,,,,,,,,,,,,,,,,,,,,,,,,,,,,,,,,,,,,,,,,,,,,,,,,,,,,
,,,,,,,,,67db78c86b4bd2d085ff5699,Mexican,13 or older,"no, only English or Spanish",yes,2025-07-23_02h51.26.020,empathy_intonation_perc,2024.2.4,Win32,59.88023952,67db78c86b4bd2d085ff5699,687ed1b7e638a4cbf2f02089,688085e4f24c993615578122,,,,,,,,,,,,,38,1,,./stim/wavs/mexican_mismatch_interrogative-total-yn_Mi-novio-viene-del-lago.wav,,,,,,,,,,,,,,,,,,,,,,316.8068,319.1194,1,1,1.7823,,0,42,42,37,1,0,mexican,,,,,,,,,,,,,,,,,,,,,,,,,,,,,,,,,,,,,,,,,,,,,,,,,,,,,,,,
,,,,,,,,,67db78c86b4bd2d085ff5699,Mexican,13 or older,"no, only English or Spanish",yes,2025-07-23_02h51.26.020,empathy_intonation_perc,2024.2.4,Win32,59.88023952,67db78c86b4bd2d085ff5699,687ed1b7e638a4cbf2f02089,688085e4f24c993615578122,,,,,,,,,,,,,11,1,,./stim/wavs/cuban_match_interrogative-total-yn_Mariano-habla-del-tiempo.wav,,,,,,,,,,,,,,,,,,,,,,319.1216,321.6736,0,0,2.0292,,0,43,43,10,1,1,cuban,,,,,,,,,,,,,,,,,,,,,,,,,,,,,,,,,,,,,,,,,,,,,,,,,,,,,,,,
,,,,,,,,,67db78c86b4bd2d085ff5699,Mexican,13 or older,"no, only English or Spanish",yes,2025-07-23_02h51.26.020,empathy_intonation_perc,2024.2.4,Win32,59.88023952,67db78c86b4bd2d085ff5699,687ed1b7e638a4cbf2f02089,688085e4f24c993615578122,,,,,,,,,,,,,78,0,,./stim/wavs/cuban_mismatch_declarative-broad-focus_Mi-tia-odia-la-lluvia.wav,,,,,,,,,,,,,,,,,,,,,,321.7061,323.8624,0,1,1.6342,,0,44,44,77,1,0,cuban,,,,,,,,,,,,,,,,,,,,,,,,,,,,,,,,,,,,,,,,,,,,,,,,,,,,,,,,
,,,,,,,,,67db78c86b4bd2d085ff5699,Mexican,13 or older,"no, only English or Spanish",yes,2025-07-23_02h51.26.020,empathy_intonation_perc,2024.2.4,Win32,59.88023952,67db78c86b4bd2d085ff5699,687ed1b7e638a4cbf2f02089,688085e4f24c993615578122,,,,,,,,,,,,,16,1,,./stim/wavs/mexican_match_interrogative-total-yn_Emilio-ama-la-marcha.wav,,,,,,,,,,,,,,,,,,,,,,323.8645,325.9927,1,1,1.601,,0,45,45,15,1,0,mexican,,,,,,,,,,,,,,,,,,,,,,,,,,,,,,,,,,,,,,,,,,,,,,,,,,,,,,,,
,,,,,,,,,67db78c86b4bd2d085ff5699,Mexican,13 or older,"no, only English or Spanish",yes,2025-07-23_02h51.26.020,empathy_intonation_perc,2024.2.4,Win32,59.88023952,67db78c86b4bd2d085ff5699,687ed1b7e638a4cbf2f02089,688085e4f24c993615578122,,,,,,,,,,,,,69,0,,./stim/wavs/castilian_mismatch_declarative-broad-focus_El-nino-oye-el-rio.wav,,,,,,,,,,,,,,,,,,,,,,325.9943,328.4896,1,0,1.972,,0,46,46,68,1,0,castilian,,,,,,,,,,,,,,,,,,,,,,,,,,,,,,,,,,,,,,,,,,,,,,,,,,,,,,,,
,,,,,,,,,67db78c86b4bd2d085ff5699,Mexican,13 or older,"no, only English or Spanish",yes,2025-07-23_02h51.26.020,empathy_intonation_perc,2024.2.4,Win32,59.88023952,67db78c86b4bd2d085ff5699,687ed1b7e638a4cbf2f02089,688085e4f24c993615578122,,,,,,,,,,,,,17,1,,./stim/wavs/mexican_match_interrogative-total-yn_Mariano-habla-del-tiempo.wav,,,,,,,,,,,,,,,,,,,,,,328.4913,330.7361,1,1,1.7162,,0,47,47,16,1,0,mexican,,,,,,,,,,,,,,,,,,,,,,,,,,,,,,,,,,,,,,,,,,,,,,,,,,,,,,,,
,,,,,,,,,67db78c86b4bd2d085ff5699,Mexican,13 or older,"no, only English or Spanish",yes,2025-07-23_02h51.26.020,empathy_intonation_perc,2024.2.4,Win32,59.88023952,67db78c86b4bd2d085ff5699,687ed1b7e638a4cbf2f02089,688085e4f24c993615578122,,,,,,,,,,,,,65,0,,./stim/wavs/puertorican_match_declarative-broad-focus_David-leia-el-libro.wav,,,,,,,,,,,,,,,,,,,,,,330.7382,332.6667,0,1,1.4058,,0,48,48,64,1,0,puertorican,,,,,,,,,,,,,,,,,,,,,,,,,,,,,,,,,,,,,,,,,,,,,,,,,,,,,,,,
,,,,,,,,,67db78c86b4bd2d085ff5699,Mexican,13 or older,"no, only English or Spanish",yes,2025-07-23_02h51.26.020,empathy_intonation_perc,2024.2.4,Win32,59.88023952,67db78c86b4bd2d085ff5699,687ed1b7e638a4cbf2f02089,688085e4f24c993615578122,,,,,,,,,,,,,28,1,,./stim/wavs/castilian_mismatch_interrogative-total-yn_Mi-novio-viene-del-lago.wav,,,,,,,,,,,,,,,,,,,,,,332.6687,335.0639,0,0,1.8644,,0,49,49,27,1,0,castilian,,,,,,,,,,,,,,,,,,,,,,,,,,,,,,,,,,,,,,,,,,,,,,,,,,,,,,,,
,,,,,,,,,67db78c86b4bd2d085ff5699,Mexican,13 or older,"no, only English or Spanish",yes,2025-07-23_02h51.26.020,empathy_intonation_perc,2024.2.4,Win32,59.88023952,67db78c86b4bd2d085ff5699,687ed1b7e638a4cbf2f02089,688085e4f24c993615578122,,,,,,,,,,,,,58,0,,./stim/wavs/mexican_match_declarative-broad-focus_Daniel-iba-a-Bolivia.wav,,,,,,,,,,,,,,,,,,,,,,335.0653,337.5107,0,1,1.9157,,0,50,50,57,1,0,mexican,,,,,,,,,,,,,,,,,,,,,,,,,,,,,,,,,,,,,,,,,,,,,,,,,,,,,,,,
,,,,,,,,,67db78c86b4bd2d085ff5699,Mexican,13 or older,"no, only English or Spanish",yes,2025-07-23_02h51.26.020,empathy_intonation_perc,2024.2.4,Win32,59.88023952,67db78c86b4bd2d085ff5699,687ed1b7e638a4cbf2f02089,688085e4f24c993615578122,,,,,,,,,,,,,20,1,,./stim/wavs/puertorican_match_interrogative-total-yn_Daniel-iba-a-Bolivia.wav,,,,,,,,,,,,,,,,,,,,,,337.513,339.6354,0,0,1.5986,,0,51,51,19,1,1,puertorican,,,,,,,,,,,,,,,,,,,,,,,,,,,,,,,,,,,,,,,,,,,,,,,,,,,,,,,,
,,,,,,,,,67db78c86b4bd2d085ff5699,Mexican,13 or older,"no, only English or Spanish",yes,2025-07-23_02h51.26.020,empathy_intonation_perc,2024.2.4,Win32,59.88023952,67db78c86b4bd2d085ff5699,687ed1b7e638a4cbf2f02089,688085e4f24c993615578122,,,,,,,,,,,,,53,0,,./stim/wavs/cuban_match_declarative-broad-focus_Manuela-vende-el-carro.wav,,,,,,,,,,,,,,,,,,,,,,339.6654,341.9884,1,0,1.7973,,0,52,52,52,1,0,cuban,,,,,,,,,,,,,,,,,,,,,,,,,,,,,,,,,,,,,,,,,,,,,,,,,,,,,,,,
,,,,,,,,,67db78c86b4bd2d085ff5699,Mexican,13 or older,"no, only English or Spanish",yes,2025-07-23_02h51.26.020,empathy_intonation_perc,2024.2.4,Win32,59.88023952,67db78c86b4bd2d085ff5699,687ed1b7e638a4cbf2f02089,688085e4f24c993615578122,,,,,,,,,,,,,22,1,,./stim/wavs/puertorican_match_interrogative-total-yn_Emilio-ama-la-marcha.wav,,,,,,,,,,,,,,,,,,,,,,341.9903,344.6192,1,1,2.1053,,0,53,53,21,1,1,puertorican,,,,,,,,,,,,,,,,,,,,,,,,,,,,,,,,,,,,,,,,,,,,,,,,,,,,,,,,
,,,,,,,,,67db78c86b4bd2d085ff5699,Mexican,13 or older,"no, only English or Spanish",yes,2025-07-23_02h51.26.020,empathy_intonation_perc,2024.2.4,Win32,59.88023952,67db78c86b4bd2d085ff5699,687ed1b7e638a4cbf2f02089,688085e4f24c993615578122,,,,,,,,,,,,,76,0,,./stim/wavs/cuban_mismatch_declarative-broad-focus_La-nina-lava-el-plato.wav,,,,,,,,,,,,,,,,,,,,,,344.6216,346.5984,0,1,1.4513,,0,54,54,75,1,0,cuban,,,,,,,,,,,,,,,,,,,,,,,,,,,,,,,,,,,,,,,,,,,,,,,,,,,,,,,,
,,,,,,,,,67db78c86b4bd2d085ff5699,Mexican,13 or older,"no, only English or Spanish",yes,2025-07-23_02h51.26.020,empathy_intonation_perc,2024.2.4,Win32,59.88023952,67db78c86b4bd2d085ff5699,687ed1b7e638a4cbf2f02089,688085e4f24c993615578122,,,,,,,,,,,,,6,1,,./stim/wavs/castilian_match_interrogative-total-yn_Marta-abre-el-regalo.wav,,,,,,,,,,,,,,,,,,,,,,346.6001,348.7456,0,0,1.6178,,0,55,55,5,1,0,castilian,,,,,,,,,,,,,,,,,,,,,,,,,,,,,,,,,,,,,,,,,,,,,,,,,,,,,,,,
,,,,,,,,,67db78c86b4bd2d085ff5699,Mexican,13 or older,"no, only English or Spanish",yes,2025-07-23_02h51.26.020,empathy_intonation_perc,2024.2.4,Win32,59.88023952,67db78c86b4bd2d085ff5699,687ed1b7e638a4cbf2f02089,688085e4f24c993615578122,,,,,,,,,,,,,21,1,,./stim/wavs/puertorican_match_interrogative-total-yn_David-leia-el-libro.wav,,,,,,,,,,,,,,,,,,,,,,348.7479,351.4428,1,1,2.1664,,0,56,56,20,1,1,puertorican,,,,,,,,,,,,,,,,,,,,,,,,,,,,,,,,,,,,,,,,,,,,,,,,,,,,,,,,
,,,,,,,,,67db78c86b4bd2d085ff5699,Mexican,13 or older,"no, only English or Spanish",yes,2025-07-23_02h51.26.020,empathy_intonation_perc,2024.2.4,Win32,59.88023952,67db78c86b4bd2d085ff5699,687ed1b7e638a4cbf2f02089,688085e4f24c993615578122,,,,,,,,,,,,,68,0,,./stim/wavs/puertorican_match_declarative-broad-focus_Maria-bebe-el-vino.wav,,,,,,,,,,,,,,,,,,,,,,351.4446,354.4717,0,1,2.4959,,0,57,57,67,1,0,puertorican,,,,,,,,,,,,,,,,,,,,,,,,,,,,,,,,,,,,,,,,,,,,,,,,,,,,,,,,
,,,,,,,,,67db78c86b4bd2d085ff5699,Mexican,13 or older,"no, only English or Spanish",yes,2025-07-23_02h51.26.020,empathy_intonation_perc,2024.2.4,Win32,59.88023952,67db78c86b4bd2d085ff5699,687ed1b7e638a4cbf2f02089,688085e4f24c993615578122,,,,,,,,,,,,,64,0,,./stim/wavs/puertorican_match_declarative-broad-focus_Daniel-iba-a-Bolivia.wav,,,,,,,,,,,,,,,,,,,,,,354.5021,357.5338,0,1,2.514,,0,58,58,63,1,0,puertorican,,,,,,,,,,,,,,,,,,,,,,,,,,,,,,,,,,,,,,,,,,,,,,,,,,,,,,,,
,,,,,,,,,67db78c86b4bd2d085ff5699,Mexican,13 or older,"no, only English or Spanish",yes,2025-07-23_02h51.26.020,empathy_intonation_perc,2024.2.4,Win32,59.88023952,67db78c86b4bd2d085ff5699,687ed1b7e638a4cbf2f02089,688085e4f24c993615578122,,,,,,,,,,,,,67,0,,./stim/wavs/puertorican_match_declarative-broad-focus_Manuela-vende-el-carro.wav,,,,,,,,,,,,,,,,,,,,,,357.5353,360.5474,1,0,2.4871,,0,59,59,66,1,0,puertorican,,,,,,,,,,,,,,,,,,,,,,,,,,,,,,,,,,,,,,,,,,,,,,,,,,,,,,,,
,,,,,,,,,67db78c86b4bd2d085ff5699,Mexican,13 or older,"no, only English or Spanish",yes,2025-07-23_02h51.26.020,empathy_intonation_perc,2024.2.4,Win32,59.88023952,67db78c86b4bd2d085ff5699,687ed1b7e638a4cbf2f02089,688085e4f24c993615578122,,,,,,,,,,,,,66,0,,./stim/wavs/puertorican_match_declarative-broad-focus_Emilio-ama-la-marcha.wav,,,,,,,,,,,,,,,,,,,,,,360.5791,363.11,1,0,2.021,,0,60,60,65,1,0,puertorican,,,,,,,,,,,,,,,,,,,,,,,,,,,,,,,,,,,,,,,,,,,,,,,,,,,,,,,,
,,,,,,,,,67db78c86b4bd2d085ff5699,Mexican,13 or older,"no, only English or Spanish",yes,2025-07-23_02h51.26.020,empathy_intonation_perc,2024.2.4,Win32,59.88023952,67db78c86b4bd2d085ff5699,687ed1b7e638a4cbf2f02089,688085e4f24c993615578122,,,,,,,,,,,,,51,0,,./stim/wavs/cuban_match_declarative-broad-focus_Ana-lleva-el-abrigo.wav,,,,,,,,,,,,,,,,,,,,,,363.112,365.79,1,0,2.1491,,0,61,61,50,1,0,cuban,,,,,,,,,,,,,,,,,,,,,,,,,,,,,,,,,,,,,,,,,,,,,,,,,,,,,,,,
,,,,,,,,,67db78c86b4bd2d085ff5699,Mexican,13 or older,"no, only English or Spanish",yes,2025-07-23_02h51.26.020,empathy_intonation_perc,2024.2.4,Win32,59.88023952,67db78c86b4bd2d085ff5699,687ed1b7e638a4cbf2f02089,688085e4f24c993615578122,,,,,,,,,,,,,13,1,,./stim/wavs/mexican_match_interrogative-total-yn_Ana-lleva-el-abrigo.wav,,,,,,,,,,,,,,,,,,,,,,365.82,368.3537,1,1,1.9996,,0,62,62,12,1,0,mexican,,,,,,,,,,,,,,,,,,,,,,,,,,,,,,,,,,,,,,,,,,,,,,,,,,,,,,,,
,,,,,,,,,67db78c86b4bd2d085ff5699,Mexican,13 or older,"no, only English or Spanish",yes,2025-07-23_02h51.26.020,empathy_intonation_perc,2024.2.4,Win32,59.88023952,67db78c86b4bd2d085ff5699,687ed1b7e638a4cbf2f02089,688085e4f24c993615578122,,,,,,,,,,,,,88,0,,./stim/wavs/puertorican_mismatch_declarative-broad-focus_La-nina-lava-el-plato.wav,,,,,,,,,,,,,,,,,,,,,,368.3559,370.5093,0,1,1.631,,0,63,63,87,1,0,puertorican,,,,,,,,,,,,,,,,,,,,,,,,,,,,,,,,,,,,,,,,,,,,,,,,,,,,,,,,
,,,,,,,,,67db78c86b4bd2d085ff5699,Mexican,13 or older,"no, only English or Spanish",yes,2025-07-23_02h51.26.020,empathy_intonation_perc,2024.2.4,Win32,59.88023952,67db78c86b4bd2d085ff5699,687ed1b7e638a4cbf2f02089,688085e4f24c993615578122,,,,,,,,,,,,,87,0,,./stim/wavs/puertorican_mismatch_declarative-broad-focus_La-maestra-vive-en-Paris.wav,,,,,,,,,,,,,,,,,,,,,,370.5116,372.7995,0,1,1.7729,,0,64,64,86,1,0,puertorican,,,,,,,,,,,,,,,,,,,,,,,,,,,,,,,,,,,,,,,,,,,,,,,,,,,,,,,,
,,,,,,,,,67db78c86b4bd2d085ff5699,Mexican,13 or older,"no, only English or Spanish",yes,2025-07-23_02h51.26.020,empathy_intonation_perc,2024.2.4,Win32,59.88023952,67db78c86b4bd2d085ff5699,687ed1b7e638a4cbf2f02089,688085e4f24c993615578122,,,,,,,,,,,,,82,0,,./stim/wavs/mexican_mismatch_declarative-broad-focus_Mi-novio-viene-del-lago.wav,,,,,,,,,,,,,,,,,,,,,,372.8022,375.2863,1,0,1.9635,,0,65,65,81,1,0,mexican,,,,,,,,,,,,,,,,,,,,,,,,,,,,,,,,,,,,,,,,,,,,,,,,,,,,,,,,
,,,,,,,,,67db78c86b4bd2d085ff5699,Mexican,13 or older,"no, only English or Spanish",yes,2025-07-23_02h51.26.020,empathy_intonation_perc,2024.2.4,Win32,59.88023952,67db78c86b4bd2d085ff5699,687ed1b7e638a4cbf2f02089,688085e4f24c993615578122,,,,,,,,,,,,,71,0,,./stim/wavs/castilian_mismatch_declarative-broad-focus_La-nina-lava-el-plato.wav,,,,,,,,,,,,,,,,,,,,,,375.288,378.2078,1,0,2.3993,,0,66,66,70,1,0,castilian,,,,,,,,,,,,,,,,,,,,,,,,,,,,,,,,,,,,,,,,,,,,,,,,,,,,,,,,
,,,,,,,,,67db78c86b4bd2d085ff5699,Mexican,13 or older,"no, only English or Spanish",yes,2025-07-23_02h51.26.020,empathy_intonation_perc,2024.2.4,Win32,59.88023952,67db78c86b4bd2d085ff5699,687ed1b7e638a4cbf2f02089,688085e4f24c993615578122,,,,,,,,,,,,,5,1,,./stim/wavs/castilian_match_interrogative-total-yn_Mariano-habla-del-tiempo.wav,,,,,,,,,,,,,,,,,,,,,,378.2474,380.9863,1,1,2.2145,,0,67,67,4,1,0,castilian,,,,,,,,,,,,,,,,,,,,,,,,,,,,,,,,,,,,,,,,,,,,,,,,,,,,,,,,
,,,,,,,,,67db78c86b4bd2d085ff5699,Mexican,13 or older,"no, only English or Spanish",yes,2025-07-23_02h51.26.020,empathy_intonation_perc,2024.2.4,Win32,59.88023952,67db78c86b4bd2d085ff5699,687ed1b7e638a4cbf2f02089,688085e4f24c993615578122,,,,,,,,,,,,,75,0,,./stim/wavs/cuban_mismatch_declarative-broad-focus_El-hombre-mira-la-luna.wav,,,,,,,,,,,,,,,,,,,,,,380.9879,383.6828,1,0,2.1647,,0,68,68,74,1,0,cuban,,,,,,,,,,,,,,,,,,,,,,,,,,,,,,,,,,,,,,,,,,,,,,,,,,,,,,,,
,,,,,,,,,67db78c86b4bd2d085ff5699,Mexican,13 or older,"no, only English or Spanish",yes,2025-07-23_02h51.26.020,empathy_intonation_perc,2024.2.4,Win32,59.88023952,67db78c86b4bd2d085ff5699,687ed1b7e638a4cbf2f02089,688085e4f24c993615578122,,,,,,,,,,,,,81,0,,./stim/wavs/mexican_mismatch_declarative-broad-focus_La-maestra-vive-en-Paris.wav,,,,,,,,,,,,,,,,,,,,,,383.7129,386.5295,1,0,2.2985,,0,69,69,80,1,0,mexican,,,,,,,,,,,,,,,,,,,,,,,,,,,,,,,,,,,,,,,,,,,,,,,,,,,,,,,,
,,,,,,,,,67db78c86b4bd2d085ff5699,Mexican,13 or older,"no, only English or Spanish",yes,2025-07-23_02h51.26.020,empathy_intonation_perc,2024.2.4,Win32,59.88023952,67db78c86b4bd2d085ff5699,687ed1b7e638a4cbf2f02089,688085e4f24c993615578122,,,,,,,,,,,,,37,1,,./stim/wavs/mexican_mismatch_interrogative-total-yn_La-maestra-vive-en-Paris.wav,,,,,,,,,,,,,,,,,,,,,,386.5312,389.1096,1,1,2.0552,,0,70,70,36,1,0,mexican,,,,,,,,,,,,,,,,,,,,,,,,,,,,,,,,,,,,,,,,,,,,,,,,,,,,,,,,
,,,,,,,,,67db78c86b4bd2d085ff5699,Mexican,13 or older,"no, only English or Spanish",yes,2025-07-23_02h51.26.020,empathy_intonation_perc,2024.2.4,Win32,59.88023952,67db78c86b4bd2d085ff5699,687ed1b7e638a4cbf2f02089,688085e4f24c993615578122,,,,,,,,,,,,,19,1,,./stim/wavs/puertorican_match_interrogative-total-yn_Ana-lleva-el-abrigo.wav,,,,,,,,,,,,,,,,,,,,,,389.1109,391.6902,1,1,2.049,,0,71,71,18,1,1,puertorican,,,,,,,,,,,,,,,,,,,,,,,,,,,,,,,,,,,,,,,,,,,,,,,,,,,,,,,,
,,,,,,,,,67db78c86b4bd2d085ff5699,Mexican,13 or older,"no, only English or Spanish",yes,2025-07-23_02h51.26.020,empathy_intonation_perc,2024.2.4,Win32,59.88023952,67db78c86b4bd2d085ff5699,687ed1b7e638a4cbf2f02089,688085e4f24c993615578122,,,,,,,,,,,,,42,1,,./stim/wavs/puertorican_mismatch_interrogative-total-yn_La-maestra-vive-en-Paris.wav,,,,,,,,,,,,,,,,,,,,,,391.7214,394.4853,1,1,2.2474,,0,72,72,41,1,1,puertorican,,,,,,,,,,,,,,,,,,,,,,,,,,,,,,,,,,,,,,,,,,,,,,,,,,,,,,,,
,,,,,,,,,67db78c86b4bd2d085ff5699,Mexican,13 or older,"no, only English or Spanish",yes,2025-07-23_02h51.26.020,empathy_intonation_perc,2024.2.4,Win32,59.88023952,67db78c86b4bd2d085ff5699,687ed1b7e638a4cbf2f02089,688085e4f24c993615578122,,,,,,,,,,,,,47,0,,./stim/wavs/castilian_match_declarative-broad-focus_Manuela-vende-el-carro.wav,,,,,,,,,,,,,,,,,,,,,,394.4871,397.5812,1,0,2.5637,,0,73,73,46,1,0,castilian,,,,,,,,,,,,,,,,,,,,,,,,,,,,,,,,,,,,,,,,,,,,,,,,,,,,,,,,
,,,,,,,,,67db78c86b4bd2d085ff5699,Mexican,13 or older,"no, only English or Spanish",yes,2025-07-23_02h51.26.020,empathy_intonation_perc,2024.2.4,Win32,59.88023952,67db78c86b4bd2d085ff5699,687ed1b7e638a4cbf2f02089,688085e4f24c993615578122,,,,,,,,,,,,,55,0,,./stim/wavs/cuban_match_declarative-broad-focus_Mariano-habla-del-tiempo.wav,,,,,,,,,,,,,,,,,,,,,,397.5827,400.5273,1,0,2.4137,,0,74,74,54,1,0,cuban,,,,,,,,,,,,,,,,,,,,,,,,,,,,,,,,,,,,,,,,,,,,,,,,,,,,,,,,
,,,,,,,,,67db78c86b4bd2d085ff5699,Mexican,13 or older,"no, only English or Spanish",yes,2025-07-23_02h51.26.020,empathy_intonation_perc,2024.2.4,Win32,59.88023952,67db78c86b4bd2d085ff5699,687ed1b7e638a4cbf2f02089,688085e4f24c993615578122,,,,,,,,,,,,,25,1,,./stim/wavs/castilian_mismatch_interrogative-total-yn_La-maestra-vive-en-Paris.wav,,,,,,,,,,,,,,,,,,,,,,400.5577,403.4899,1,1,2.4207,,0,75,75,24,1,0,castilian,,,,,,,,,,,,,,,,,,,,,,,,,,,,,,,,,,,,,,,,,,,,,,,,,,,,,,,,
,,,,,,,,,67db78c86b4bd2d085ff5699,Mexican,13 or older,"no, only English or Spanish",yes,2025-07-23_02h51.26.020,empathy_intonation_perc,2024.2.4,Win32,59.88023952,67db78c86b4bd2d085ff5699,687ed1b7e638a4cbf2f02089,688085e4f24c993615578122,,,,,,,,,,,,,2,1,,./stim/wavs/castilian_match_interrogative-total-yn_Emilio-ama-la-marcha.wav,,,,,,,,,,,,,,,,,,,,,,403.4915,406.2033,1,1,2.1858,,0,76,76,1,1,0,castilian,,,,,,,,,,,,,,,,,,,,,,,,,,,,,,,,,,,,,,,,,,,,,,,,,,,,,,,,
,,,,,,,,,67db78c86b4bd2d085ff5699,Mexican,13 or older,"no, only English or Spanish",yes,2025-07-23_02h51.26.020,empathy_intonation_perc,2024.2.4,Win32,59.88023952,67db78c86b4bd2d085ff5699,687ed1b7e638a4cbf2f02089,688085e4f24c993615578122,,,,,,,,,,,,,10,1,,./stim/wavs/cuban_match_interrogative-total-yn_Maria-bebe-el-vino.wav,,,,,,,,,,,,,,,,,,,,,,406.2328,408.5672,0,0,1.8136,,0,77,77,9,1,1,cuban,,,,,,,,,,,,,,,,,,,,,,,,,,,,,,,,,,,,,,,,,,,,,,,,,,,,,,,,
,,,,,,,,,67db78c86b4bd2d085ff5699,Mexican,13 or older,"no, only English or Spanish",yes,2025-07-23_02h51.26.020,empathy_intonation_perc,2024.2.4,Win32,59.88023952,67db78c86b4bd2d085ff5699,687ed1b7e638a4cbf2f02089,688085e4f24c993615578122,,,,,,,,,,,,,83,0,,./stim/wavs/mexican_mismatch_declarative-broad-focus_Mi-tia-odia-la-lluvia.wav,,,,,,,,,,,,,,,,,,,,,,408.5699,410.9643,0,1,1.874,,0,78,78,82,1,0,mexican,,,,,,,,,,,,,,,,,,,,,,,,,,,,,,,,,,,,,,,,,,,,,,,,,,,,,,,,
,,,,,,,,,67db78c86b4bd2d085ff5699,Mexican,13 or older,"no, only English or Spanish",yes,2025-07-23_02h51.26.020,empathy_intonation_perc,2024.2.4,Win32,59.88023952,67db78c86b4bd2d085ff5699,687ed1b7e638a4cbf2f02089,688085e4f24c993615578122,,,,,,,,,,,,,61,0,,./stim/wavs/mexican_match_declarative-broad-focus_Mariano-habla-del-tiempo.wav,,,,,,,,,,,,,,,,,,,,,,410.9663,413.4436,0,1,1.9493,,0,79,79,60,1,0,mexican,,,,,,,,,,,,,,,,,,,,,,,,,,,,,,,,,,,,,,,,,,,,,,,,,,,,,,,,
,,,,,,,,,67db78c86b4bd2d085ff5699,Mexican,13 or older,"no, only English or Spanish",yes,2025-07-23_02h51.26.020,empathy_intonation_perc,2024.2.4,Win32,59.88023952,67db78c86b4bd2d085ff5699,687ed1b7e638a4cbf2f02089,688085e4f24c993615578122,,,,,,,,,,,,,73,0,,./stim/wavs/castilian_mismatch_declarative-broad-focus_Mi-tia-odia-la-lluvia.wav,,,,,,,,,,,,,,,,,,,,,,413.4458,416.4897,1,0,2.5143,,0,80,80,72,1,0,castilian,,,,,,,,,,,,,,,,,,,,,,,,,,,,,,,,,,,,,,,,,,,,,,,,,,,,,,,,
,,,,,,,,,67db78c86b4bd2d085ff5699,Mexican,13 or older,"no, only English or Spanish",yes,2025-07-23_02h51.26.020,empathy_intonation_perc,2024.2.4,Win32,59.88023952,67db78c86b4bd2d085ff5699,687ed1b7e638a4cbf2f02089,688085e4f24c993615578122,,,,,,,,,,,,,86,0,,./stim/wavs/puertorican_mismatch_declarative-broad-focus_El-nino-oye-el-rio.wav,,,,,,,,,,,,,,,,,,,,,,416.5205,419.5027,1,0,2.4517,,0,81,81,85,1,0,puertorican,,,,,,,,,,,,,,,,,,,,,,,,,,,,,,,,,,,,,,,,,,,,,,,,,,,,,,,,
,,,,,,,,,67db78c86b4bd2d085ff5699,Mexican,13 or older,"no, only English or Spanish",yes,2025-07-23_02h51.26.020,empathy_intonation_perc,2024.2.4,Win32,59.88023952,67db78c86b4bd2d085ff5699,687ed1b7e638a4cbf2f02089,688085e4f24c993615578122,,,,,,,,,,,,,18,1,,./stim/wavs/mexican_match_interrogative-total-yn_Marta-abre-el-regalo.wav,,,,,,,,,,,,,,,,,,,,,,419.5047,422.1552,0,0,2.1267,,0,82,82,17,1,0,mexican,,,,,,,,,,,,,,,,,,,,,,,,,,,,,,,,,,,,,,,,,,,,,,,,,,,,,,,,
,,,,,,,,,67db78c86b4bd2d085ff5699,Mexican,13 or older,"no, only English or Spanish",yes,2025-07-23_02h51.26.020,empathy_intonation_perc,2024.2.4,Win32,59.88023952,67db78c86b4bd2d085ff5699,687ed1b7e638a4cbf2f02089,688085e4f24c993615578122,,,,,,,,,,,,,85,0,,./stim/wavs/puertorican_mismatch_declarative-broad-focus_El-hombre-mira-la-luna.wav,,,,,,,,,,,,,,,,,,,,,,422.1883,424.8622,0,1,2.1468,,0,83,83,84,1,0,puertorican,,,,,,,,,,,,,,,,,,,,,,,,,,,,,,,,,,,,,,,,,,,,,,,,,,,,,,,,
,,,,,,,,,67db78c86b4bd2d085ff5699,Mexican,13 or older,"no, only English or Spanish",yes,2025-07-23_02h51.26.020,empathy_intonation_perc,2024.2.4,Win32,59.88023952,67db78c86b4bd2d085ff5699,687ed1b7e638a4cbf2f02089,688085e4f24c993615578122,,,,,,,,,,,,,3,1,,./stim/wavs/castilian_match_interrogative-total-yn_Manuela-vende-el-carro.wav,,,,,,,,,,,,,,,,,,,,,,424.8652,428.1909,0,0,2.7972,,0,84,84,2,1,0,castilian,,,,,,,,,,,,,,,,,,,,,,,,,,,,,,,,,,,,,,,,,,,,,,,,,,,,,,,,
,,,,,,,,,67db78c86b4bd2d085ff5699,Mexican,13 or older,"no, only English or Spanish",yes,2025-07-23_02h51.26.020,empathy_intonation_perc,2024.2.4,Win32,59.88023952,67db78c86b4bd2d085ff5699,687ed1b7e638a4cbf2f02089,688085e4f24c993615578122,,,,,,,,,,,,,52,0,,./stim/wavs/cuban_match_declarative-broad-focus_Daniel-iba-a-Bolivia.wav,,,,,,,,,,,,,,,,,,,,,,428.2232,431.4364,1,0,2.6977,,0,85,85,51,1,0,cuban,,,,,,,,,,,,,,,,,,,,,,,,,,,,,,,,,,,,,,,,,,,,,,,,,,,,,,,,
,,,,,,,,,67db78c86b4bd2d085ff5699,Mexican,13 or older,"no, only English or Spanish",yes,2025-07-23_02h51.26.020,empathy_intonation_perc,2024.2.4,Win32,59.88023952,67db78c86b4bd2d085ff5699,687ed1b7e638a4cbf2f02089,688085e4f24c993615578122,,,,,,,,,,,,,7,1,,./stim/wavs/cuban_match_interrogative-total-yn_Ana-lleva-el-abrigo.wav,,,,,,,,,,,,,,,,,,,,,,431.4379,434.2498,0,0,2.2827,,0,86,86,6,1,1,cuban,,,,,,,,,,,,,,,,,,,,,,,,,,,,,,,,,,,,,,,,,,,,,,,,,,,,,,,,
,,,,,,,,,67db78c86b4bd2d085ff5699,Mexican,13 or older,"no, only English or Spanish",yes,2025-07-23_02h51.26.020,empathy_intonation_perc,2024.2.4,Win32,59.88023952,67db78c86b4bd2d085ff5699,687ed1b7e638a4cbf2f02089,688085e4f24c993615578122,,,,,,,,,,,,,8,1,,./stim/wavs/cuban_match_interrogative-total-yn_Daniel-iba-a-Bolivia.wav,,,,,,,,,,,,,,,,,,,,,,434.2801,437.3953,0,0,2.5977,,0,87,87,7,1,1,cuban,,,,,,,,,,,,,,,,,,,,,,,,,,,,,,,,,,,,,,,,,,,,,,,,,,,,,,,,
,,,,,,,"Great! Now we will move on. The next task consists of about 60 trials, in each of which you will see a string of letters. 
  
  Your task is to decide whether this is a real Spanish word or not.", (press the spacebar to continue),67db78c86b4bd2d085ff5699,Mexican,13 or older,"no, only English or Spanish",yes,2025-07-23_02h51.26.020,empathy_intonation_perc,2024.2.4,Win32,59.88023952,67db78c86b4bd2d085ff5699,687ed1b7e638a4cbf2f02089,688085e4f24c993615578122,,,,,,,,,,,,,,,,,,,,,,,,,,,,,,,,,,,,,,,,,,,,,,,,,,,437.4191,451.6633,0,0,0,0,1,,,,,,,,,,,,,,,,,,,,,,,,,,,,,,,,,,,,,,,,,,,,,,,,,
,,,,,,,"If you think it is an existing Spanish word, you type '1' (for 'REAL'), and if you think it is not an existing Spanish word, you type '0' (for 'FAKE').", (press the spacebar to continue),67db78c86b4bd2d085ff5699,Mexican,13 or older,"no, only English or Spanish",yes,2025-07-23_02h51.26.020,empathy_intonation_perc,2024.2.4,Win32,59.88023952,67db78c86b4bd2d085ff5699,687ed1b7e638a4cbf2f02089,688085e4f24c993615578122,,,,,,,,,,,,,,,,,,,,,,,,,,,,,,,,,,,,,,,,,,,,,,,,,,,451.7017,454.0415,0,1,1,1,1,,,,,,,,,,,,,,,,,,,,,,,,,,,,,,,,,,,,,,,,,,,,,,,,,
,,,,,,,"If you are sure that the word exists, even though you don’t know its exact meaning, you may still respond '1' (REAL). 
  
  But if you are not sure if it is an existing word, you should respond '0' (FAKE).
  
  Let's do a practice round...", (press the spacebar to continue),67db78c86b4bd2d085ff5699,Mexican,13 or older,"no, only English or Spanish",yes,2025-07-23_02h51.26.020,empathy_intonation_perc,2024.2.4,Win32,59.88023952,67db78c86b4bd2d085ff5699,687ed1b7e638a4cbf2f02089,688085e4f24c993615578122,,,,,,,,,,,,,,,,,,,,,,,,,,,,,,,,,,,,,,,,,,,,,,,,,,,454.0507,462.4794,0,2,2,2,1,,,,,,,,,,,,,,,,,,,,,,,,,,,,,,,,,,,,,,,,,,,,,,,,,
,,,,,,,,,67db78c86b4bd2d085ff5699,Mexican,13 or older,"no, only English or Spanish",yes,2025-07-23_02h51.26.020,empathy_intonation_perc,2024.2.4,Win32,59.88023952,67db78c86b4bd2d085ff5699,687ed1b7e638a4cbf2f02089,688085e4f24c993615578122,,,,,,,,,,,,,,0,,,,,,,,,,,,,,,,,,,,,,,,,,,,,,,,,,,,,,,,,,,,462.5263,465.6931,1,0,2.6361,,465.6944,466.6925,0,0,0,0,1,0,depiste,REAL,FAKE,,,,,,,,,,,,,,,,,,,,,,,,,,,,,,,,
,,,,,,,,,67db78c86b4bd2d085ff5699,Mexican,13 or older,"no, only English or Spanish",yes,2025-07-23_02h51.26.020,empathy_intonation_perc,2024.2.4,Win32,59.88023952,67db78c86b4bd2d085ff5699,687ed1b7e638a4cbf2f02089,688085e4f24c993615578122,,,,,,,,,,,,,,1,,,,,,,,,,,,,,,,,,,,,,,,,,,,,,,,,,,,,,,,,,,,466.6991,470.2949,0,0,3.0652,,470.2952,471.2845,0,1,1,1,1,0,sí,REAL,FAKE,,,,,,,,,,,,,,,,,,,,,,,,,,,,,,,,
,,,,,,,,,67db78c86b4bd2d085ff5699,Mexican,13 or older,"no, only English or Spanish",yes,2025-07-23_02h51.26.020,empathy_intonation_perc,2024.2.4,Win32,59.88023952,67db78c86b4bd2d085ff5699,687ed1b7e638a4cbf2f02089,688085e4f24c993615578122,,,,,,,,,,,,,,0,,,,,,,,,,,,,,,,,,,,,,,,,,,,,,,,,,,,,,,,,,,,471.3213,473.8471,1,0,1.9895,,473.8473,474.8461,0,2,2,2,1,0,coné,REAL,FAKE,,,,,,,,,,,,,,,,,,,,,,,,,,,,,,,,
,,,,,,,,,67db78c86b4bd2d085ff5699,Mexican,13 or older,"no, only English or Spanish",yes,2025-07-23_02h51.26.020,empathy_intonation_perc,2024.2.4,Win32,59.88023952,67db78c86b4bd2d085ff5699,687ed1b7e638a4cbf2f02089,688085e4f24c993615578122,,,,,,,,,,,,,,0,,,,,,,,,,,,,,,,,,,,,,,,,,,,,,,,,,,,,,,,,,,,474.8781,476.045,1,0,0.6339,,476.0452,477.0438,0,3,3,3,1,0,calpar,REAL,FAKE,,,,,,,,,,,,,,,,,,,,,,,,,,,,,,,,
,,,,,,,,,67db78c86b4bd2d085ff5699,Mexican,13 or older,"no, only English or Spanish",yes,2025-07-23_02h51.26.020,empathy_intonation_perc,2024.2.4,Win32,59.88023952,67db78c86b4bd2d085ff5699,687ed1b7e638a4cbf2f02089,688085e4f24c993615578122,,,,,,,,,,,,,,0,,,,,,,,,,,,,,,,,,,,,,,,,,,,,,,,,,,,,,,,,,,,477.0484,478.0801,1,0,0.497,,478.0803,479.0743,0,4,4,4,1,0,joten,REAL,FAKE,,,,,,,,,,,,,,,,,,,,,,,,,,,,,,,,
,,,,,,,,,67db78c86b4bd2d085ff5699,Mexican,13 or older,"no, only English or Spanish",yes,2025-07-23_02h51.26.020,empathy_intonation_perc,2024.2.4,Win32,59.88023952,67db78c86b4bd2d085ff5699,687ed1b7e638a4cbf2f02089,688085e4f24c993615578122,,,,,,,,,,,,,,1,,,,,,,,,,,,,,,,,,,,,,,,,,,,,,,,,,,,,,,,,,,,479.0778,480.3393,1,1,0.7215,,480.342,481.3378,0,5,5,5,1,0,sacapuntas,REAL,FAKE,,,,,,,,,,,,,,,,,,,,,,,,,,,,,,,,
,,,,,,,,,67db78c86b4bd2d085ff5699,Mexican,13 or older,"no, only English or Spanish",yes,2025-07-23_02h51.26.020,empathy_intonation_perc,2024.2.4,Win32,59.88023952,67db78c86b4bd2d085ff5699,687ed1b7e638a4cbf2f02089,688085e4f24c993615578122,,,,,,,,,,,,,,0,,,,,,,,,,,,,,,,,,,,,,,,,,,,,,,,,,,,,,,,,,,,481.3428,483.0357,1,0,1.1584,,483.0387,484.0351,0,6,6,6,1,0,priba,REAL,FAKE,,,,,,,,,,,,,,,,,,,,,,,,,,,,,,,,
,,,,,,,,,67db78c86b4bd2d085ff5699,Mexican,13 or older,"no, only English or Spanish",yes,2025-07-23_02h51.26.020,empathy_intonation_perc,2024.2.4,Win32,59.88023952,67db78c86b4bd2d085ff5699,687ed1b7e638a4cbf2f02089,688085e4f24c993615578122,,,,,,,,,,,,,,0,,,,,,,,,,,,,,,,,,,,,,,,,,,,,,,,,,,,,,,,,,,,484.0386,485.3324,1,0,0.753,,485.3327,486.3314,0,7,7,7,1,0,pelasula,REAL,FAKE,,,,,,,,,,,,,,,,,,,,,,,,,,,,,,,,
,,,,,,,,,67db78c86b4bd2d085ff5699,Mexican,13 or older,"no, only English or Spanish",yes,2025-07-23_02h51.26.020,empathy_intonation_perc,2024.2.4,Win32,59.88023952,67db78c86b4bd2d085ff5699,687ed1b7e638a4cbf2f02089,688085e4f24c993615578122,,,,,,,,,,,,,,1,,,,,,,,,,,,,,,,,,,,,,,,,,,,,,,,,,,,,,,,,,,,486.335,487.5297,1,1,0.6561,,487.5321,488.5286,0,8,8,8,1,0,bien,REAL,FAKE,,,,,,,,,,,,,,,,,,,,,,,,,,,,,,,,
,,,,,,,,,67db78c86b4bd2d085ff5699,Mexican,13 or older,"no, only English or Spanish",yes,2025-07-23_02h51.26.020,empathy_intonation_perc,2024.2.4,Win32,59.88023952,67db78c86b4bd2d085ff5699,687ed1b7e638a4cbf2f02089,688085e4f24c993615578122,,,,,,,,,,,,,,1,,,,,,,,,,,,,,,,,,,,,,,,,,,,,,,,,,,,,,,,,,,,488.5321,490.5835,1,1,1.5146,,490.5837,491.5745,0,9,9,9,1,0,casa,REAL,FAKE,,,,,,,,,,,,,,,,,,,,,,,,,,,,,,,,
,,,,,,,,,67db78c86b4bd2d085ff5699,Mexican,13 or older,"no, only English or Spanish",yes,2025-07-23_02h51.26.020,empathy_intonation_perc,2024.2.4,Win32,59.88023952,67db78c86b4bd2d085ff5699,687ed1b7e638a4cbf2f02089,688085e4f24c993615578122,,,,,,,,,,,,,,0,,,,,,,,,,,,,,,,,,,,,,,,,,,,,,,,,,,,,,,,,,,,491.6082,493.0774,0,1,0.9304,,493.0775,494.0711,0,10,10,10,1,0,lejo,REAL,FAKE,,,,,,,,,,,,,,,,,,,,,,,,,,,,,,,,
,,,,,,,,,67db78c86b4bd2d085ff5699,Mexican,13 or older,"no, only English or Spanish",yes,2025-07-23_02h51.26.020,empathy_intonation_perc,2024.2.4,Win32,59.88023952,67db78c86b4bd2d085ff5699,687ed1b7e638a4cbf2f02089,688085e4f24c993615578122,,,,,,,,,,,,,,0,,,,,,,,,,,,,,,,,,,,,,,,,,,,,,,,,,,,,,,,,,,,494.0756,496.6688,1,0,2.0581,,496.6717,497.6672,0,11,11,11,1,0,pretantas,REAL,FAKE,,,,,,,,,,,,,,,,,,,,,,,,,,,,,,,,
,,,,,,,,,67db78c86b4bd2d085ff5699,Mexican,13 or older,"no, only English or Spanish",yes,2025-07-23_02h51.26.020,empathy_intonation_perc,2024.2.4,Win32,59.88023952,67db78c86b4bd2d085ff5699,687ed1b7e638a4cbf2f02089,688085e4f24c993615578122,,,,,,,,,,,,,,,,,,,,,,,,,,,,,,,,,,,,,,,,,,,,,,,,,,,,,,,,,,,,,,,,,,,,,,,,,,,497.6697,499.5006,,,,,,,,,,,,,,,,,,,,,,,,,,,,,,
,,,,,,,,,67db78c86b4bd2d085ff5699,Mexican,13 or older,"no, only English or Spanish",yes,2025-07-23_02h51.26.020,empathy_intonation_perc,2024.2.4,Win32,59.88023952,67db78c86b4bd2d085ff5699,687ed1b7e638a4cbf2f02089,688085e4f24c993615578122,,,,,,,,,,,,,,1,,,,,,,,,,,,,,,,,,,,,,,,,,,,,,,,,,,,,,,,,,,,,,,,,,,,,,,,,71,polvoriento,,,,,499.5565,502.1115,1,1,2.0202,,0,0,0,70,1,REAL,FAKE,,,,,,,,,,,,,,,,,
,,,,,,,,,67db78c86b4bd2d085ff5699,Mexican,13 or older,"no, only English or Spanish",yes,2025-07-23_02h51.26.020,empathy_intonation_perc,2024.2.4,Win32,59.88023952,67db78c86b4bd2d085ff5699,687ed1b7e638a4cbf2f02089,688085e4f24c993615578122,,,,,,,,,,,,,,1,,,,,,,,,,,,,,,,,,,,,,,,,,,,,,,,,,,,,,,,,,,,,,,,,,,,,,,,,48,ladrón,,,,,502.1167,505.5729,1,1,2.9176,,0,1,1,47,1,REAL,FAKE,,,,,,,,,,,,,,,,,
,,,,,,,,,67db78c86b4bd2d085ff5699,Mexican,13 or older,"no, only English or Spanish",yes,2025-07-23_02h51.26.020,empathy_intonation_perc,2024.2.4,Win32,59.88023952,67db78c86b4bd2d085ff5699,687ed1b7e638a4cbf2f02089,688085e4f24c993615578122,,,,,,,,,,,,,,1,,,,,,,,,,,,,,,,,,,,,,,,,,,,,,,,,,,,,,,,,,,,,,,,,,,,,,,,,55,nevar,,,,,505.6056,506.679,0,0,0.5509,,0,2,2,54,1,REAL,FAKE,,,,,,,,,,,,,,,,,
,,,,,,,,,67db78c86b4bd2d085ff5699,Mexican,13 or older,"no, only English or Spanish",yes,2025-07-23_02h51.26.020,empathy_intonation_perc,2024.2.4,Win32,59.88023952,67db78c86b4bd2d085ff5699,687ed1b7e638a4cbf2f02089,688085e4f24c993615578122,,,,,,,,,,,,,,1,,,,,,,,,,,,,,,,,,,,,,,,,,,,,,,,,,,,,,,,,,,,,,,,,,,,,,,,,51,candado,,,,,506.6823,509.9675,1,1,2.7505,,0,3,3,50,1,REAL,FAKE,,,,,,,,,,,,,,,,,
,,,,,,,,,67db78c86b4bd2d085ff5699,Mexican,13 or older,"no, only English or Spanish",yes,2025-07-23_02h51.26.020,empathy_intonation_perc,2024.2.4,Win32,59.88023952,67db78c86b4bd2d085ff5699,687ed1b7e638a4cbf2f02089,688085e4f24c993615578122,,,,,,,,,,,,,,1,,,,,,,,,,,,,,,,,,,,,,,,,,,,,,,,,,,,,,,,,,,,,,,,,,,,,,,,,2,pellizcar,,,,,509.9722,511.4485,0,0,0.9355,,0,4,4,1,1,REAL,FAKE,,,,,,,,,,,,,,,,,
,,,,,,,,,67db78c86b4bd2d085ff5699,Mexican,13 or older,"no, only English or Spanish",yes,2025-07-23_02h51.26.020,empathy_intonation_perc,2024.2.4,Win32,59.88023952,67db78c86b4bd2d085ff5699,687ed1b7e638a4cbf2f02089,688085e4f24c993615578122,,,,,,,,,,,,,,1,,,,,,,,,,,,,,,,,,,,,,,,,,,,,,,,,,,,,,,,,,,,,,,,,,,,,,,,,83,guante,,,,,511.4519,513.6781,0,0,1.6883,,0,5,5,82,1,REAL,FAKE,,,,,,,,,,,,,,,,,
,,,,,,,,,67db78c86b4bd2d085ff5699,Mexican,13 or older,"no, only English or Spanish",yes,2025-07-23_02h51.26.020,empathy_intonation_perc,2024.2.4,Win32,59.88023952,67db78c86b4bd2d085ff5699,687ed1b7e638a4cbf2f02089,688085e4f24c993615578122,,,,,,,,,,,,,,1,,,,,,,,,,,,,,,,,,,,,,,,,,,,,,,,,,,,,,,,,,,,,,,,,,,,,,,,,13,helar,,,,,513.6822,514.977,0,0,0.7523,,0,6,6,12,1,REAL,FAKE,,,,,,,,,,,,,,,,,
,,,,,,,,,67db78c86b4bd2d085ff5699,Mexican,13 or older,"no, only English or Spanish",yes,2025-07-23_02h51.26.020,empathy_intonation_perc,2024.2.4,Win32,59.88023952,67db78c86b4bd2d085ff5699,687ed1b7e638a4cbf2f02089,688085e4f24c993615578122,,,,,,,,,,,,,,1,,,,,,,,,,,,,,,,,,,,,,,,,,,,,,,,,,,,,,,,,,,,,,,,,,,,,,,,,90,clavel,,,,,514.9804,516.6006,1,1,1.0847,,0,7,7,89,1,REAL,FAKE,,,,,,,,,,,,,,,,,
,,,,,,,,,67db78c86b4bd2d085ff5699,Mexican,13 or older,"no, only English or Spanish",yes,2025-07-23_02h51.26.020,empathy_intonation_perc,2024.2.4,Win32,59.88023952,67db78c86b4bd2d085ff5699,687ed1b7e638a4cbf2f02089,688085e4f24c993615578122,,,,,,,,,,,,,,0,,,,,,,,,,,,,,,,,,,,,,,,,,,,,,,,,,,,,,,,,,,,,,,,,,,,,,,,,84,escuto,,,,,516.6037,518.0748,1,0,0.944,,0,8,8,83,1,REAL,FAKE,,,,,,,,,,,,,,,,,
,,,,,,,,,67db78c86b4bd2d085ff5699,Mexican,13 or older,"no, only English or Spanish",yes,2025-07-23_02h51.26.020,empathy_intonation_perc,2024.2.4,Win32,59.88023952,67db78c86b4bd2d085ff5699,687ed1b7e638a4cbf2f02089,688085e4f24c993615578122,,,,,,,,,,,,,,1,,,,,,,,,,,,,,,,,,,,,,,,,,,,,,,,,,,,,,,,,,,,,,,,,,,,,,,,,57,tacaño,,,,,518.0795,520.5199,1,1,1.8994,,0,9,9,56,1,REAL,FAKE,,,,,,,,,,,,,,,,,
,,,,,,,,,67db78c86b4bd2d085ff5699,Mexican,13 or older,"no, only English or Spanish",yes,2025-07-23_02h51.26.020,empathy_intonation_perc,2024.2.4,Win32,59.88023952,67db78c86b4bd2d085ff5699,687ed1b7e638a4cbf2f02089,688085e4f24c993615578122,,,,,,,,,,,,,,1,,,,,,,,,,,,,,,,,,,,,,,,,,,,,,,,,,,,,,,,,,,,,,,,,,,,,,,,,31,pandilla,,,,,520.5232,522.5171,1,1,1.4524,,0,10,10,30,1,REAL,FAKE,,,,,,,,,,,,,,,,,
,,,,,,,,,67db78c86b4bd2d085ff5699,Mexican,13 or older,"no, only English or Spanish",yes,2025-07-23_02h51.26.020,empathy_intonation_perc,2024.2.4,Win32,59.88023952,67db78c86b4bd2d085ff5699,687ed1b7e638a4cbf2f02089,688085e4f24c993615578122,,,,,,,,,,,,,,0,,,,,,,,,,,,,,,,,,,,,,,,,,,,,,,,,,,,,,,,,,,,,,,,,,,,,,,,,92,click the 0 key.,,,,,522.5215,525.3878,0,1,2.331,,0,11,11,91,1,REAL,FAKE,,,,,,,,,,,,,,,,,
,,,,,,,,,67db78c86b4bd2d085ff5699,Mexican,13 or older,"no, only English or Spanish",yes,2025-07-23_02h51.26.020,empathy_intonation_perc,2024.2.4,Win32,59.88023952,67db78c86b4bd2d085ff5699,687ed1b7e638a4cbf2f02089,688085e4f24c993615578122,,,,,,,,,,,,,,1,,,,,,,,,,,,,,,,,,,,,,,,,,,,,,,,,,,,,,,,,,,,,,,,,,,,,,,,,86,barato,,,,,525.4194,527.9594,0,0,2.0071,,0,12,12,85,1,REAL,FAKE,,,,,,,,,,,,,,,,,
,,,,,,,,,67db78c86b4bd2d085ff5699,Mexican,13 or older,"no, only English or Spanish",yes,2025-07-23_02h51.26.020,empathy_intonation_perc,2024.2.4,Win32,59.88023952,67db78c86b4bd2d085ff5699,687ed1b7e638a4cbf2f02089,688085e4f24c993615578122,,,,,,,,,,,,,,0,,,,,,,,,,,,,,,,,,,,,,,,,,,,,,,,,,,,,,,,,,,,,,,,,,,,,,,,,10,antar,,,,,527.9635,529.6411,0,1,1.1431,,0,13,13,9,1,REAL,FAKE,,,,,,,,,,,,,,,,,
,,,,,,,,,67db78c86b4bd2d085ff5699,Mexican,13 or older,"no, only English or Spanish",yes,2025-07-23_02h51.26.020,empathy_intonation_perc,2024.2.4,Win32,59.88023952,67db78c86b4bd2d085ff5699,687ed1b7e638a4cbf2f02089,688085e4f24c993615578122,,,,,,,,,,,,,,1,,,,,,,,,,,,,,,,,,,,,,,,,,,,,,,,,,,,,,,,,,,,,,,,,,,,,,,,,46,martillo,,,,,529.6456,531.3554,1,1,1.1768,,0,14,14,45,1,REAL,FAKE,,,,,,,,,,,,,,,,,
,,,,,,,,,67db78c86b4bd2d085ff5699,Mexican,13 or older,"no, only English or Spanish",yes,2025-07-23_02h51.26.020,empathy_intonation_perc,2024.2.4,Win32,59.88023952,67db78c86b4bd2d085ff5699,687ed1b7e638a4cbf2f02089,688085e4f24c993615578122,,,,,,,,,,,,,,0,,,,,,,,,,,,,,,,,,,,,,,,,,,,,,,,,,,,,,,,,,,,,,,,,,,,,,,,,42,cadallo,,,,,531.3588,534.0852,1,0,2.1924,,0,15,15,41,1,REAL,FAKE,,,,,,,,,,,,,,,,,
,,,,,,,,,67db78c86b4bd2d085ff5699,Mexican,13 or older,"no, only English or Spanish",yes,2025-07-23_02h51.26.020,empathy_intonation_perc,2024.2.4,Win32,59.88023952,67db78c86b4bd2d085ff5699,687ed1b7e638a4cbf2f02089,688085e4f24c993615578122,,,,,,,,,,,,,,1,,,,,,,,,,,,,,,,,,,,,,,,,,,,,,,,,,,,,,,,,,,,,,,,,,,,,,,,,54,fomentar,,,,,534.09,535.7329,1,1,1.1112,,0,16,16,53,1,REAL,FAKE,,,,,,,,,,,,,,,,,
,,,,,,,,,67db78c86b4bd2d085ff5699,Mexican,13 or older,"no, only English or Spanish",yes,2025-07-23_02h51.26.020,empathy_intonation_perc,2024.2.4,Win32,59.88023952,67db78c86b4bd2d085ff5699,687ed1b7e638a4cbf2f02089,688085e4f24c993615578122,,,,,,,,,,,,,,0,,,,,,,,,,,,,,,,,,,,,,,,,,,,,,,,,,,,,,,,,,,,,,,,,,,,,,,,,18,arsa,,,,,535.7375,536.7479,0,1,0.4767,,0,17,17,17,1,REAL,FAKE,,,,,,,,,,,,,,,,,
,,,,,,,,,67db78c86b4bd2d085ff5699,Mexican,13 or older,"no, only English or Spanish",yes,2025-07-23_02h51.26.020,empathy_intonation_perc,2024.2.4,Win32,59.88023952,67db78c86b4bd2d085ff5699,687ed1b7e638a4cbf2f02089,688085e4f24c993615578122,,,,,,,,,,,,,,0,,,,,,,,,,,,,,,,,,,,,,,,,,,,,,,,,,,,,,,,,,,,,,,,,,,,,,,,,21,capillo,,,,,536.7509,538.0628,0,1,0.7768,,0,18,18,20,1,REAL,FAKE,,,,,,,,,,,,,,,,,
,,,,,,,,,67db78c86b4bd2d085ff5699,Mexican,13 or older,"no, only English or Spanish",yes,2025-07-23_02h51.26.020,empathy_intonation_perc,2024.2.4,Win32,59.88023952,67db78c86b4bd2d085ff5699,687ed1b7e638a4cbf2f02089,688085e4f24c993615578122,,,,,,,,,,,,,,1,,,,,,,,,,,,,,,,,,,,,,,,,,,,,,,,,,,,,,,,,,,,,,,,,,,,,,,,,34,aviso,,,,,538.0669,539.9438,0,0,1.3441,,0,19,19,33,1,REAL,FAKE,,,,,,,,,,,,,,,,,
,,,,,,,,,67db78c86b4bd2d085ff5699,Mexican,13 or older,"no, only English or Spanish",yes,2025-07-23_02h51.26.020,empathy_intonation_perc,2024.2.4,Win32,59.88023952,67db78c86b4bd2d085ff5699,687ed1b7e638a4cbf2f02089,688085e4f24c993615578122,,,,,,,,,,,,,,1,,,,,,,,,,,,,,,,,,,,,,,,,,,,,,,,,,,,,,,,,,,,,,,,,,,,,,,,,76,atar,,,,,539.9478,542.1742,0,0,1.6966,,0,20,20,75,1,REAL,FAKE,,,,,,,,,,,,,,,,,
,,,,,,,,,67db78c86b4bd2d085ff5699,Mexican,13 or older,"no, only English or Spanish",yes,2025-07-23_02h51.26.020,empathy_intonation_perc,2024.2.4,Win32,59.88023952,67db78c86b4bd2d085ff5699,687ed1b7e638a4cbf2f02089,688085e4f24c993615578122,,,,,,,,,,,,,,1,,,,,,,,,,,,,,,,,,,,,,,,,,,,,,,,,,,,,,,,,,,,,,,,,,,,,,,,,89,prisa,,,,,542.1784,543.6391,1,1,0.9268,,0,21,21,88,1,REAL,FAKE,,,,,,,,,,,,,,,,,
,,,,,,,,,67db78c86b4bd2d085ff5699,Mexican,13 or older,"no, only English or Spanish",yes,2025-07-23_02h51.26.020,empathy_intonation_perc,2024.2.4,Win32,59.88023952,67db78c86b4bd2d085ff5699,687ed1b7e638a4cbf2f02089,688085e4f24c993615578122,,,,,,,,,,,,,,1,,,,,,,,,,,,,,,,,,,,,,,,,,,,,,,,,,,,,,,,,,,,,,,,,,,,,,,,,6,tergiversar,,,,,543.6428,545.8861,1,1,1.7087,,0,22,22,5,1,REAL,FAKE,,,,,,,,,,,,,,,,,
,,,,,,,,,67db78c86b4bd2d085ff5699,Mexican,13 or older,"no, only English or Spanish",yes,2025-07-23_02h51.26.020,empathy_intonation_perc,2024.2.4,Win32,59.88023952,67db78c86b4bd2d085ff5699,687ed1b7e638a4cbf2f02089,688085e4f24c993615578122,,,,,,,,,,,,,,0,,,,,,,,,,,,,,,,,,,,,,,,,,,,,,,,,,,,,,,,,,,,,,,,,,,,,,,,,58,plaudir,,,,,545.8913,547.018,0,1,0.5911,,0,23,23,57,1,REAL,FAKE,,,,,,,,,,,,,,,,,
,,,,,,,,,67db78c86b4bd2d085ff5699,Mexican,13 or older,"no, only English or Spanish",yes,2025-07-23_02h51.26.020,empathy_intonation_perc,2024.2.4,Win32,59.88023952,67db78c86b4bd2d085ff5699,687ed1b7e638a4cbf2f02089,688085e4f24c993615578122,,,,,,,,,,,,,,1,,,,,,,,,,,,,,,,,,,,,,,,,,,,,,,,,,,,,,,,,,,,,,,,,,,,,,,,,5,zapato,,,,,547.0218,548.4832,0,0,0.9266,,0,24,24,4,1,REAL,FAKE,,,,,,,,,,,,,,,,,
,,,,,,,,,67db78c86b4bd2d085ff5699,Mexican,13 or older,"no, only English or Spanish",yes,2025-07-23_02h51.26.020,empathy_intonation_perc,2024.2.4,Win32,59.88023952,67db78c86b4bd2d085ff5699,687ed1b7e638a4cbf2f02089,688085e4f24c993615578122,,,,,,,,,,,,,,0,,,,,,,,,,,,,,,,,,,,,,,,,,,,,,,,,,,,,,,,,,,,,,,,,,,,,,,,,1,terzo,,,,,548.4871,549.6647,1,0,0.6461,,0,25,25,0,1,REAL,FAKE,,,,,,,,,,,,,,,,,
,,,,,,,,,67db78c86b4bd2d085ff5699,Mexican,13 or older,"no, only English or Spanish",yes,2025-07-23_02h51.26.020,empathy_intonation_perc,2024.2.4,Win32,59.88023952,67db78c86b4bd2d085ff5699,687ed1b7e638a4cbf2f02089,688085e4f24c993615578122,,,,,,,,,,,,,,1,,,,,,,,,,,,,,,,,,,,,,,,,,,,,,,,,,,,,,,,,,,,,,,,,,,,,,,,,81,pozo,,,,,549.6696,551.2626,0,0,1.0605,,0,26,26,80,1,REAL,FAKE,,,,,,,,,,,,,,,,,
,,,,,,,,,67db78c86b4bd2d085ff5699,Mexican,13 or older,"no, only English or Spanish",yes,2025-07-23_02h51.26.020,empathy_intonation_perc,2024.2.4,Win32,59.88023952,67db78c86b4bd2d085ff5699,687ed1b7e638a4cbf2f02089,688085e4f24c993615578122,,,,,,,,,,,,,,1,,,,,,,,,,,,,,,,,,,,,,,,,,,,,,,,,,,,,,,,,,,,,,,,,,,,,,,,,73,hervidor,,,,,551.2662,552.76,1,1,0.9636,,0,27,27,72,1,REAL,FAKE,,,,,,,,,,,,,,,,,
,,,,,,,,,67db78c86b4bd2d085ff5699,Mexican,13 or older,"no, only English or Spanish",yes,2025-07-23_02h51.26.020,empathy_intonation_perc,2024.2.4,Win32,59.88023952,67db78c86b4bd2d085ff5699,687ed1b7e638a4cbf2f02089,688085e4f24c993615578122,,,,,,,,,,,,,,0,,,,,,,,,,,,,,,,,,,,,,,,,,,,,,,,,,,,,,,,,,,,,,,,,,,,,,,,,32,fatacidad,,,,,552.7645,554.0087,1,0,0.7121,,0,28,28,31,1,REAL,FAKE,,,,,,,,,,,,,,,,,
,,,,,,,,,67db78c86b4bd2d085ff5699,Mexican,13 or older,"no, only English or Spanish",yes,2025-07-23_02h51.26.020,empathy_intonation_perc,2024.2.4,Win32,59.88023952,67db78c86b4bd2d085ff5699,687ed1b7e638a4cbf2f02089,688085e4f24c993615578122,,,,,,,,,,,,,,1,,,,,,,,,,,,,,,,,,,,,,,,,,,,,,,,,,,,,,,,,,,,,,,,,,,,,,,,,28,merodear,,,,,554.0131,555.6066,0,0,1.0651,,0,29,29,27,1,REAL,FAKE,,,,,,,,,,,,,,,,,
,,,,,,,,,67db78c86b4bd2d085ff5699,Mexican,13 or older,"no, only English or Spanish",yes,2025-07-23_02h51.26.020,empathy_intonation_perc,2024.2.4,Win32,59.88023952,67db78c86b4bd2d085ff5699,687ed1b7e638a4cbf2f02089,688085e4f24c993615578122,,,,,,,,,,,,,,1,,,,,,,,,,,,,,,,,,,,,,,,,,,,,,,,,,,,,,,,,,,,,,,,,,,,,,,,,75,yacer,,,,,555.6113,556.7717,0,0,0.6283,,0,30,30,74,1,REAL,FAKE,,,,,,,,,,,,,,,,,
,,,,,,,,,67db78c86b4bd2d085ff5699,Mexican,13 or older,"no, only English or Spanish",yes,2025-07-23_02h51.26.020,empathy_intonation_perc,2024.2.4,Win32,59.88023952,67db78c86b4bd2d085ff5699,687ed1b7e638a4cbf2f02089,688085e4f24c993615578122,,,,,,,,,,,,,,1,,,,,,,,,,,,,,,,,,,,,,,,,,,,,,,,,,,,,,,,,,,,,,,,,,,,,,,,,41,rebuscar,,,,,556.7754,557.9206,1,1,0.6174,,0,31,31,40,1,REAL,FAKE,,,,,,,,,,,,,,,,,
,,,,,,,,,67db78c86b4bd2d085ff5699,Mexican,13 or older,"no, only English or Spanish",yes,2025-07-23_02h51.26.020,empathy_intonation_perc,2024.2.4,Win32,59.88023952,67db78c86b4bd2d085ff5699,687ed1b7e638a4cbf2f02089,688085e4f24c993615578122,,,,,,,,,,,,,,1,,,,,,,,,,,,,,,,,,,,,,,,,,,,,,,,,,,,,,,,,,,,,,,,,,,,,,,,,64,orgulloso,,,,,557.9253,559.6849,0,0,1.2264,,0,32,32,63,1,REAL,FAKE,,,,,,,,,,,,,,,,,
,,,,,,,,,67db78c86b4bd2d085ff5699,Mexican,13 or older,"no, only English or Spanish",yes,2025-07-23_02h51.26.020,empathy_intonation_perc,2024.2.4,Win32,59.88023952,67db78c86b4bd2d085ff5699,687ed1b7e638a4cbf2f02089,688085e4f24c993615578122,,,,,,,,,,,,,,0,,,,,,,,,,,,,,,,,,,,,,,,,,,,,,,,,,,,,,,,,,,,,,,,,,,,,,,,,19,brecedad,,,,,559.6896,560.9337,1,0,0.7097,,0,33,33,18,1,REAL,FAKE,,,,,,,,,,,,,,,,,
,,,,,,,,,67db78c86b4bd2d085ff5699,Mexican,13 or older,"no, only English or Spanish",yes,2025-07-23_02h51.26.020,empathy_intonation_perc,2024.2.4,Win32,59.88023952,67db78c86b4bd2d085ff5699,687ed1b7e638a4cbf2f02089,688085e4f24c993615578122,,,,,,,,,,,,,,1,,,,,,,,,,,,,,,,,,,,,,,,,,,,,,,,,,,,,,,,,,,,,,,,,,,,,,,,,22,lacayo,,,,,560.9373,561.9488,1,1,0.4779,,0,34,34,21,1,REAL,FAKE,,,,,,,,,,,,,,,,,
,,,,,,,,,67db78c86b4bd2d085ff5699,Mexican,13 or older,"no, only English or Spanish",yes,2025-07-23_02h51.26.020,empathy_intonation_perc,2024.2.4,Win32,59.88023952,67db78c86b4bd2d085ff5699,687ed1b7e638a4cbf2f02089,688085e4f24c993615578122,,,,,,,,,,,,,,0,,,,,,,,,,,,,,,,,,,,,,,,,,,,,,,,,,,,,,,,,,,,,,,,,,,,,,,,,87,grodo,,,,,561.9533,562.8647,1,0,0.3776,,0,35,35,86,1,REAL,FAKE,,,,,,,,,,,,,,,,,
,,,,,,,,,67db78c86b4bd2d085ff5699,Mexican,13 or older,"no, only English or Spanish",yes,2025-07-23_02h51.26.020,empathy_intonation_perc,2024.2.4,Win32,59.88023952,67db78c86b4bd2d085ff5699,687ed1b7e638a4cbf2f02089,688085e4f24c993615578122,,,,,,,,,,,,,,1,,,,,,,,,,,,,,,,,,,,,,,,,,,,,,,,,,,,,,,,,,,,,,,,,,,,,,,,,20,ávido,,,,,562.8713,563.7795,0,0,0.376,,0,36,36,19,1,REAL,FAKE,,,,,,,,,,,,,,,,,
,,,,,,,,,67db78c86b4bd2d085ff5699,Mexican,13 or older,"no, only English or Spanish",yes,2025-07-23_02h51.26.020,empathy_intonation_perc,2024.2.4,Win32,59.88023952,67db78c86b4bd2d085ff5699,687ed1b7e638a4cbf2f02089,688085e4f24c993615578122,,,,,,,,,,,,,,0,,,,,,,,,,,,,,,,,,,,,,,,,,,,,,,,,,,,,,,,,,,,,,,,,,,,,,,,,33,pauca,,,,,563.7837,564.6951,0,1,0.3783,,0,37,37,32,1,REAL,FAKE,,,,,,,,,,,,,,,,,
,,,,,,,,,67db78c86b4bd2d085ff5699,Mexican,13 or older,"no, only English or Spanish",yes,2025-07-23_02h51.26.020,empathy_intonation_perc,2024.2.4,Win32,59.88023952,67db78c86b4bd2d085ff5699,687ed1b7e638a4cbf2f02089,688085e4f24c993615578122,,,,,,,,,,,,,,1,,,,,,,,,,,,,,,,,,,,,,,,,,,,,,,,,,,,,,,,,,,,,,,,,,,,,,,,,65,bizcocho,,,,,564.6999,565.7433,1,1,0.516,,0,38,38,64,1,REAL,FAKE,,,,,,,,,,,,,,,,,
,,,,,,,,,67db78c86b4bd2d085ff5699,Mexican,13 or older,"no, only English or Spanish",yes,2025-07-23_02h51.26.020,empathy_intonation_perc,2024.2.4,Win32,59.88023952,67db78c86b4bd2d085ff5699,687ed1b7e638a4cbf2f02089,688085e4f24c993615578122,,,,,,,,,,,,,,1,,,,,,,,,,,,,,,,,,,,,,,,,,,,,,,,,,,,,,,,,,,,,,,,,,,,,,,,,80,hormiga,,,,,565.7485,566.6256,0,0,0.3445,,0,39,39,79,1,REAL,FAKE,,,,,,,,,,,,,,,,,
,,,,,,,,,67db78c86b4bd2d085ff5699,Mexican,13 or older,"no, only English or Spanish",yes,2025-07-23_02h51.26.020,empathy_intonation_perc,2024.2.4,Win32,59.88023952,67db78c86b4bd2d085ff5699,687ed1b7e638a4cbf2f02089,688085e4f24c993615578122,,,,,,,,,,,,,,1,,,,,,,,,,,,,,,,,,,,,,,,,,,,,,,,,,,,,,,,,,,,,,,,,,,,,,,,,45,jilguero,,,,,566.6305,567.6903,0,0,0.5315,,0,40,40,44,1,REAL,FAKE,,,,,,,,,,,,,,,,,
,,,,,,,,,67db78c86b4bd2d085ff5699,Mexican,13 or older,"no, only English or Spanish",yes,2025-07-23_02h51.26.020,empathy_intonation_perc,2024.2.4,Win32,59.88023952,67db78c86b4bd2d085ff5699,687ed1b7e638a4cbf2f02089,688085e4f24c993615578122,,,,,,,,,,,,,,1,,,,,,,,,,,,,,,,,,,,,,,,,,,,,,,,,,,,,,,,,,,,,,,,,,,,,,,,,39,torpe,,,,,567.6943,568.823,0,0,0.5944,,0,41,41,38,1,REAL,FAKE,,,,,,,,,,,,,,,,,
,,,,,,,,,67db78c86b4bd2d085ff5699,Mexican,13 or older,"no, only English or Spanish",yes,2025-07-23_02h51.26.020,empathy_intonation_perc,2024.2.4,Win32,59.88023952,67db78c86b4bd2d085ff5699,687ed1b7e638a4cbf2f02089,688085e4f24c993615578122,,,,,,,,,,,,,,1,,,,,,,,,,,,,,,,,,,,,,,,,,,,,,,,,,,,,,,,,,,,,,,,,,,,,,,,,78,frondoso,,,,,568.8268,569.7382,1,1,0.3761,,0,42,42,77,1,REAL,FAKE,,,,,,,,,,,,,,,,,
,,,,,,,,,67db78c86b4bd2d085ff5699,Mexican,13 or older,"no, only English or Spanish",yes,2025-07-23_02h51.26.020,empathy_intonation_perc,2024.2.4,Win32,59.88023952,67db78c86b4bd2d085ff5699,687ed1b7e638a4cbf2f02089,688085e4f24c993615578122,,,,,,,,,,,,,,0,,,,,,,,,,,,,,,,,,,,,,,,,,,,,,,,,,,,,,,,,,,,,,,,,,,,,,,,,4,batillón,,,,,569.7439,570.8199,1,0,0.5464,,0,43,43,3,1,REAL,FAKE,,,,,,,,,,,,,,,,,
,,,,,,,,,67db78c86b4bd2d085ff5699,Mexican,13 or older,"no, only English or Spanish",yes,2025-07-23_02h51.26.020,empathy_intonation_perc,2024.2.4,Win32,59.88023952,67db78c86b4bd2d085ff5699,687ed1b7e638a4cbf2f02089,688085e4f24c993615578122,,,,,,,,,,,,,,1,,,,,,,,,,,,,,,,,,,,,,,,,,,,,,,,,,,,,,,,,,,,,,,,,,,,,,,,,15,regar,,,,,570.8249,572.1184,0,0,0.7607,,0,44,44,14,1,REAL,FAKE,,,,,,,,,,,,,,,,,
,,,,,,,,,67db78c86b4bd2d085ff5699,Mexican,13 or older,"no, only English or Spanish",yes,2025-07-23_02h51.26.020,empathy_intonation_perc,2024.2.4,Win32,59.88023952,67db78c86b4bd2d085ff5699,687ed1b7e638a4cbf2f02089,688085e4f24c993615578122,,,,,,,,,,,,,,0,,,,,,,,,,,,,,,,,,,,,,,,,,,,,,,,,,,,,,,,,,,,,,,,,,,,,,,,,30,alardio,,,,,572.1231,573.2668,1,0,0.6095,,0,45,45,29,1,REAL,FAKE,,,,,,,,,,,,,,,,,
,,,,,,,,,67db78c86b4bd2d085ff5699,Mexican,13 or older,"no, only English or Spanish",yes,2025-07-23_02h51.26.020,empathy_intonation_perc,2024.2.4,Win32,59.88023952,67db78c86b4bd2d085ff5699,687ed1b7e638a4cbf2f02089,688085e4f24c993615578122,,,,,,,,,,,,,,1,,,,,,,,,,,,,,,,,,,,,,,,,,,,,,,,,,,,,,,,,,,,,,,,,,,,,,,,,91,click the 1 key.,,,,,573.2733,574.8145,1,1,1.0165,,0,46,46,90,1,REAL,FAKE,,,,,,,,,,,,,,,,,
,,,,,,,,,67db78c86b4bd2d085ff5699,Mexican,13 or older,"no, only English or Spanish",yes,2025-07-23_02h51.26.020,empathy_intonation_perc,2024.2.4,Win32,59.88023952,67db78c86b4bd2d085ff5699,687ed1b7e638a4cbf2f02089,688085e4f24c993615578122,,,,,,,,,,,,,,1,,,,,,,,,,,,,,,,,,,,,,,,,,,,,,,,,,,,,,,,,,,,,,,,,,,,,,,,,3,pulmones,,,,,574.8188,575.9965,1,1,0.6446,,0,47,47,2,1,REAL,FAKE,,,,,,,,,,,,,,,,,
,,,,,,,,,67db78c86b4bd2d085ff5699,Mexican,13 or older,"no, only English or Spanish",yes,2025-07-23_02h51.26.020,empathy_intonation_perc,2024.2.4,Win32,59.88023952,67db78c86b4bd2d085ff5699,687ed1b7e638a4cbf2f02089,688085e4f24c993615578122,,,,,,,,,,,,,,0,,,,,,,,,,,,,,,,,,,,,,,,,,,,,,,,,,,,,,,,,,,,,,,,,,,,,,,,,50,flamida,,,,,576.0008,577.1274,0,1,0.5983,,0,48,48,49,1,REAL,FAKE,,,,,,,,,,,,,,,,,
,,,,,,,,,67db78c86b4bd2d085ff5699,Mexican,13 or older,"no, only English or Spanish",yes,2025-07-23_02h51.26.020,empathy_intonation_perc,2024.2.4,Win32,59.88023952,67db78c86b4bd2d085ff5699,687ed1b7e638a4cbf2f02089,688085e4f24c993615578122,,,,,,,,,,,,,,1,,,,,,,,,,,,,,,,,,,,,,,,,,,,,,,,,,,,,,,,,,,,,,,,,,,,,,,,,36,loro,,,,,577.1317,578.1932,1,1,0.5301,,0,49,49,35,1,REAL,FAKE,,,,,,,,,,,,,,,,,
,,,,,,,,,67db78c86b4bd2d085ff5699,Mexican,13 or older,"no, only English or Spanish",yes,2025-07-23_02h51.26.020,empathy_intonation_perc,2024.2.4,Win32,59.88023952,67db78c86b4bd2d085ff5699,687ed1b7e638a4cbf2f02089,688085e4f24c993615578122,,,,,,,,,,,,,,1,,,,,,,,,,,,,,,,,,,,,,,,,,,,,,,,,,,,,,,,,,,,,,,,,,,,,,,,,44,cuchara,,,,,578.1976,579.2255,1,1,0.4952,,0,50,50,43,1,REAL,FAKE,,,,,,,,,,,,,,,,,
,,,,,,,,,67db78c86b4bd2d085ff5699,Mexican,13 or older,"no, only English or Spanish",yes,2025-07-23_02h51.26.020,empathy_intonation_perc,2024.2.4,Win32,59.88023952,67db78c86b4bd2d085ff5699,687ed1b7e638a4cbf2f02089,688085e4f24c993615578122,,,,,,,,,,,,,,1,,,,,,,,,,,,,,,,,,,,,,,,,,,,,,,,,,,,,,,,,,,,,,,,,,,,,,,,,24,látigo,,,,,579.2287,580.3574,0,0,0.596,,0,51,51,23,1,REAL,FAKE,,,,,,,,,,,,,,,,,
,,,,,,,,,67db78c86b4bd2d085ff5699,Mexican,13 or older,"no, only English or Spanish",yes,2025-07-23_02h51.26.020,empathy_intonation_perc,2024.2.4,Win32,59.88023952,67db78c86b4bd2d085ff5699,687ed1b7e638a4cbf2f02089,688085e4f24c993615578122,,,,,,,,,,,,,,0,,,,,,,,,,,,,,,,,,,,,,,,,,,,,,,,,,,,,,,,,,,,,,,,,,,,,,,,,17,floroso,,,,,580.3633,581.5221,0,1,0.6311,,0,52,52,16,1,REAL,FAKE,,,,,,,,,,,,,,,,,
,,,,,,,,,67db78c86b4bd2d085ff5699,Mexican,13 or older,"no, only English or Spanish",yes,2025-07-23_02h51.26.020,empathy_intonation_perc,2024.2.4,Win32,59.88023952,67db78c86b4bd2d085ff5699,687ed1b7e638a4cbf2f02089,688085e4f24c993615578122,,,,,,,,,,,,,,1,,,,,,,,,,,,,,,,,,,,,,,,,,,,,,,,,,,,,,,,,,,,,,,,,,,,,,,,,52,camisa,,,,,581.527,582.7376,0,0,0.6765,,0,53,53,51,1,REAL,FAKE,,,,,,,,,,,,,,,,,
,,,,,,,,,67db78c86b4bd2d085ff5699,Mexican,13 or older,"no, only English or Spanish",yes,2025-07-23_02h51.26.020,empathy_intonation_perc,2024.2.4,Win32,59.88023952,67db78c86b4bd2d085ff5699,687ed1b7e638a4cbf2f02089,688085e4f24c993615578122,,,,,,,,,,,,,,1,,,,,,,,,,,,,,,,,,,,,,,,,,,,,,,,,,,,,,,,,,,,,,,,,,,,,,,,,85,laúd,,,,,582.7427,584.1858,0,0,0.9107,,0,54,54,84,1,REAL,FAKE,,,,,,,,,,,,,,,,,
,,,,,,,,,67db78c86b4bd2d085ff5699,Mexican,13 or older,"no, only English or Spanish",yes,2025-07-23_02h51.26.020,empathy_intonation_perc,2024.2.4,Win32,59.88023952,67db78c86b4bd2d085ff5699,687ed1b7e638a4cbf2f02089,688085e4f24c993615578122,,,,,,,,,,,,,,0,,,,,,,,,,,,,,,,,,,,,,,,,,,,,,,,,,,,,,,,,,,,,,,,,,,,,,,,,27,acutación,,,,,584.1903,585.2679,1,0,0.5414,,0,55,55,26,1,REAL,FAKE,,,,,,,,,,,,,,,,,
,,,,,,,,,67db78c86b4bd2d085ff5699,Mexican,13 or older,"no, only English or Spanish",yes,2025-07-23_02h51.26.020,empathy_intonation_perc,2024.2.4,Win32,59.88023952,67db78c86b4bd2d085ff5699,687ed1b7e638a4cbf2f02089,688085e4f24c993615578122,,,,,,,,,,,,,,0,,,,,,,,,,,,,,,,,,,,,,,,,,,,,,,,,,,,,,,,,,,,,,,,,,,,,,,,,35,rompido,,,,,585.2721,588.4469,1,0,2.6463,,0,56,56,34,1,REAL,FAKE,,,,,,,,,,,,,,,,,
,,,,,,,,,67db78c86b4bd2d085ff5699,Mexican,13 or older,"no, only English or Spanish",yes,2025-07-23_02h51.26.020,empathy_intonation_perc,2024.2.4,Win32,59.88023952,67db78c86b4bd2d085ff5699,687ed1b7e638a4cbf2f02089,688085e4f24c993615578122,,,,,,,,,,,,,,1,,,,,,,,,,,,,,,,,,,,,,,,,,,,,,,,,,,,,,,,,,,,,,,,,,,,,,,,,9,hacha,,,,,588.4517,589.4786,1,1,0.4977,,0,57,57,8,1,REAL,FAKE,,,,,,,,,,,,,,,,,
,,,,,,,,,67db78c86b4bd2d085ff5699,Mexican,13 or older,"no, only English or Spanish",yes,2025-07-23_02h51.26.020,empathy_intonation_perc,2024.2.4,Win32,59.88023952,67db78c86b4bd2d085ff5699,687ed1b7e638a4cbf2f02089,688085e4f24c993615578122,,,,,,,,,,,,,,1,,,,,,,,,,,,,,,,,,,,,,,,,,,,,,,,,,,,,,,,,,,,,,,,,,,,,,,,,11,cenefa,,,,,589.4836,590.8103,0,0,0.7939,,0,58,58,10,1,REAL,FAKE,,,,,,,,,,,,,,,,,
,,,,,,,,,67db78c86b4bd2d085ff5699,Mexican,13 or older,"no, only English or Spanish",yes,2025-07-23_02h51.26.020,empathy_intonation_perc,2024.2.4,Win32,59.88023952,67db78c86b4bd2d085ff5699,687ed1b7e638a4cbf2f02089,688085e4f24c993615578122,,,,,,,,,,,,,,1,,,,,,,,,,,,,,,,,,,,,,,,,,,,,,,,,,,,,,,,,,,,,,,,,,,,,,,,,61,seda,,,,,590.8141,592.608,0,0,1.2589,,0,59,59,60,1,REAL,FAKE,,,,,,,,,,,,,,,,,
,,,,,,,,,67db78c86b4bd2d085ff5699,Mexican,13 or older,"no, only English or Spanish",yes,2025-07-23_02h51.26.020,empathy_intonation_perc,2024.2.4,Win32,59.88023952,67db78c86b4bd2d085ff5699,687ed1b7e638a4cbf2f02089,688085e4f24c993615578122,,,,,,,,,,,,,,1,,,,,,,,,,,,,,,,,,,,,,,,,,,,,,,,,,,,,,,,,,,,,,,,,,,,,,,,,69,engatusar,,,,,592.6124,593.8397,1,1,0.693,,0,60,60,68,1,REAL,FAKE,,,,,,,,,,,,,,,,,
,,,,,,,,,67db78c86b4bd2d085ff5699,Mexican,13 or older,"no, only English or Spanish",yes,2025-07-23_02h51.26.020,empathy_intonation_perc,2024.2.4,Win32,59.88023952,67db78c86b4bd2d085ff5699,687ed1b7e638a4cbf2f02089,688085e4f24c993615578122,,,,,,,,,,,,,,0,,,,,,,,,,,,,,,,,,,,,,,,,,,,,,,,,,,,,,,,,,,,,,,,,,,,,,,,,53,vegada,,,,,593.8447,595.6042,0,1,1.226,,0,61,61,52,1,REAL,FAKE,,,,,,,,,,,,,,,,,
,,,,,,,,,67db78c86b4bd2d085ff5699,Mexican,13 or older,"no, only English or Spanish",yes,2025-07-23_02h51.26.020,empathy_intonation_perc,2024.2.4,Win32,59.88023952,67db78c86b4bd2d085ff5699,687ed1b7e638a4cbf2f02089,688085e4f24c993615578122,,,,,,,,,,,,,,0,,,,,,,,,,,,,,,,,,,,,,,,,,,,,,,,,,,,,,,,,,,,,,,,,,,,,,,,,16,abracer,,,,,595.6087,597.8177,1,0,1.6769,,0,62,62,15,1,REAL,FAKE,,,,,,,,,,,,,,,,,
,,,,,,,,,67db78c86b4bd2d085ff5699,Mexican,13 or older,"no, only English or Spanish",yes,2025-07-23_02h51.26.020,empathy_intonation_perc,2024.2.4,Win32,59.88023952,67db78c86b4bd2d085ff5699,687ed1b7e638a4cbf2f02089,688085e4f24c993615578122,,,,,,,,,,,,,,0,,,,,,,,,,,,,,,,,,,,,,,,,,,,,,,,,,,,,,,,,,,,,,,,,,,,,,,,,29,decar,,,,,597.8214,599.1659,0,1,0.811,,0,63,63,28,1,REAL,FAKE,,,,,,,,,,,,,,,,,
,,,,,,,,,67db78c86b4bd2d085ff5699,Mexican,13 or older,"no, only English or Spanish",yes,2025-07-23_02h51.26.020,empathy_intonation_perc,2024.2.4,Win32,59.88023952,67db78c86b4bd2d085ff5699,687ed1b7e638a4cbf2f02089,688085e4f24c993615578122,,,,,,,,,,,,,,1,,,,,,,,,,,,,,,,,,,,,,,,,,,,,,,,,,,,,,,,,,,,,,,,,,,,,,,,,59,besar,,,,,599.1705,600.6142,0,0,0.9117,,0,64,64,58,1,REAL,FAKE,,,,,,,,,,,,,,,,,
,,,,,,,,,67db78c86b4bd2d085ff5699,Mexican,13 or older,"no, only English or Spanish",yes,2025-07-23_02h51.26.020,empathy_intonation_perc,2024.2.4,Win32,59.88023952,67db78c86b4bd2d085ff5699,687ed1b7e638a4cbf2f02089,688085e4f24c993615578122,,,,,,,,,,,,,,1,,,,,,,,,,,,,,,,,,,,,,,,,,,,,,,,,,,,,,,,,,,,,,,,,,,,,,,,,38,estornudar,,,,,600.6188,601.8788,1,1,0.7281,,0,65,65,37,1,REAL,FAKE,,,,,,,,,,,,,,,,,
,,,,,,,,,67db78c86b4bd2d085ff5699,Mexican,13 or older,"no, only English or Spanish",yes,2025-07-23_02h51.26.020,empathy_intonation_perc,2024.2.4,Win32,59.88023952,67db78c86b4bd2d085ff5699,687ed1b7e638a4cbf2f02089,688085e4f24c993615578122,,,,,,,,,,,,,,1,,,,,,,,,,,,,,,,,,,,,,,,,,,,,,,,,,,,,,,,,,,,,,,,,,,,,,,,,25,bisagra,,,,,601.8822,603.2111,1,1,0.7961,,0,66,66,24,1,REAL,FAKE,,,,,,,,,,,,,,,,,
,,,,,,,,,67db78c86b4bd2d085ff5699,Mexican,13 or older,"no, only English or Spanish",yes,2025-07-23_02h51.26.020,empathy_intonation_perc,2024.2.4,Win32,59.88023952,67db78c86b4bd2d085ff5699,687ed1b7e638a4cbf2f02089,688085e4f24c993615578122,,,,,,,,,,,,,,1,,,,,,,,,,,,,,,,,,,,,,,,,,,,,,,,,,,,,,,,,,,,,,,,,,,,,,,,,7,pésimo,,,,,603.2154,604.7087,1,1,0.9609,,0,67,67,6,1,REAL,FAKE,,,,,,,,,,,,,,,,,
,,,,,,,,,67db78c86b4bd2d085ff5699,Mexican,13 or older,"no, only English or Spanish",yes,2025-07-23_02h51.26.020,empathy_intonation_perc,2024.2.4,Win32,59.88023952,67db78c86b4bd2d085ff5699,687ed1b7e638a4cbf2f02089,688085e4f24c993615578122,,,,,,,,,,,,,,1,,,,,,,,,,,,,,,,,,,,,,,,,,,,,,,,,,,,,,,,,,,,,,,,,,,,,,,,,56,musgo,,,,,604.7126,606.0903,0,0,0.8443,,0,68,68,55,1,REAL,FAKE,,,,,,,,,,,,,,,,,
,,,,,,,,,67db78c86b4bd2d085ff5699,Mexican,13 or older,"no, only English or Spanish",yes,2025-07-23_02h51.26.020,empathy_intonation_perc,2024.2.4,Win32,59.88023952,67db78c86b4bd2d085ff5699,687ed1b7e638a4cbf2f02089,688085e4f24c993615578122,,,,,,,,,,,,,,0,,,,,,,,,,,,,,,,,,,,,,,,,,,,,,,,,,,,,,,,,,,,,,,,,,,,,,,,,63,esposante,,,,,606.0957,607.5056,1,0,0.8769,,0,69,69,62,1,REAL,FAKE,,,,,,,,,,,,,,,,,
,,,,,,,,,67db78c86b4bd2d085ff5699,Mexican,13 or older,"no, only English or Spanish",yes,2025-07-23_02h51.26.020,empathy_intonation_perc,2024.2.4,Win32,59.88023952,67db78c86b4bd2d085ff5699,687ed1b7e638a4cbf2f02089,688085e4f24c993615578122,,,,,,,,,,,,,,0,,,,,,,,,,,,,,,,,,,,,,,,,,,,,,,,,,,,,,,,,,,,,,,,,,,,,,,,,47,cartinar,,,,,607.5097,609.6023,1,0,1.5608,,0,70,70,46,1,REAL,FAKE,,,,,,,,,,,,,,,,,
,,,,,,,,,67db78c86b4bd2d085ff5699,Mexican,13 or older,"no, only English or Spanish",yes,2025-07-23_02h51.26.020,empathy_intonation_perc,2024.2.4,Win32,59.88023952,67db78c86b4bd2d085ff5699,687ed1b7e638a4cbf2f02089,688085e4f24c993615578122,,,,,,,,,,,,,,1,,,,,,,,,,,,,,,,,,,,,,,,,,,,,,,,,,,,,,,,,,,,,,,,,,,,,,,,,68,alegre,,,,,609.6069,610.8671,0,0,0.726,,0,71,71,67,1,REAL,FAKE,,,,,,,,,,,,,,,,,
,,,,,,,,,67db78c86b4bd2d085ff5699,Mexican,13 or older,"no, only English or Spanish",yes,2025-07-23_02h51.26.020,empathy_intonation_perc,2024.2.4,Win32,59.88023952,67db78c86b4bd2d085ff5699,687ed1b7e638a4cbf2f02089,688085e4f24c993615578122,,,,,,,,,,,,,,1,,,,,,,,,,,,,,,,,,,,,,,,,,,,,,,,,,,,,,,,,,,,,,,,,,,,,,,,,43,canela,,,,,610.8708,612.182,0,0,0.7774,,0,72,72,42,1,REAL,FAKE,,,,,,,,,,,,,,,,,
,,,,,,,,,67db78c86b4bd2d085ff5699,Mexican,13 or older,"no, only English or Spanish",yes,2025-07-23_02h51.26.020,empathy_intonation_perc,2024.2.4,Win32,59.88023952,67db78c86b4bd2d085ff5699,687ed1b7e638a4cbf2f02089,688085e4f24c993615578122,,,,,,,,,,,,,,0,,,,,,,,,,,,,,,,,,,,,,,,,,,,,,,,,,,,,,,,,,,,,,,,,,,,,,,,,82,empirador,,,,,612.1854,613.6477,0,1,0.9327,,0,73,73,81,1,REAL,FAKE,,,,,,,,,,,,,,,,,
,,,,,,,,,67db78c86b4bd2d085ff5699,Mexican,13 or older,"no, only English or Spanish",yes,2025-07-23_02h51.26.020,empathy_intonation_perc,2024.2.4,Win32,59.88023952,67db78c86b4bd2d085ff5699,687ed1b7e638a4cbf2f02089,688085e4f24c993615578122,,,,,,,,,,,,,,1,,,,,,,,,,,,,,,,,,,,,,,,,,,,,,,,,,,,,,,,,,,,,,,,,,,,,,,,,49,ganar,,,,,613.6521,614.9618,0,0,0.7786,,0,74,74,48,1,REAL,FAKE,,,,,,,,,,,,,,,,,
,,,,,,,,,67db78c86b4bd2d085ff5699,Mexican,13 or older,"no, only English or Spanish",yes,2025-07-23_02h51.26.020,empathy_intonation_perc,2024.2.4,Win32,59.88023952,67db78c86b4bd2d085ff5699,687ed1b7e638a4cbf2f02089,688085e4f24c993615578122,,,,,,,,,,,,,,0,,,,,,,,,,,,,,,,,,,,,,,,,,,,,,,,,,,,,,,,,,,,,,,,,,,,,,,,,66,hacido,,,,,614.9664,616.3927,1,0,0.8957,,0,75,75,65,1,REAL,FAKE,,,,,,,,,,,,,,,,,
,,,,,,,,,67db78c86b4bd2d085ff5699,Mexican,13 or older,"no, only English or Spanish",yes,2025-07-23_02h51.26.020,empathy_intonation_perc,2024.2.4,Win32,59.88023952,67db78c86b4bd2d085ff5699,687ed1b7e638a4cbf2f02089,688085e4f24c993615578122,,,,,,,,,,,,,,0,,,,,,,,,,,,,,,,,,,,,,,,,,,,,,,,,,,,,,,,,,,,,,,,,,,,,,,,,70,temblo,,,,,616.3976,617.5915,1,0,0.662,,0,76,76,69,1,REAL,FAKE,,,,,,,,,,,,,,,,,
,,,,,,,,,67db78c86b4bd2d085ff5699,Mexican,13 or older,"no, only English or Spanish",yes,2025-07-23_02h51.26.020,empathy_intonation_perc,2024.2.4,Win32,59.88023952,67db78c86b4bd2d085ff5699,687ed1b7e638a4cbf2f02089,688085e4f24c993615578122,,,,,,,,,,,,,,1,,,,,,,,,,,,,,,,,,,,,,,,,,,,,,,,,,,,,,,,,,,,,,,,,,,,,,,,,26,secuestro,,,,,617.5955,618.7068,1,1,0.5788,,0,77,77,25,1,REAL,FAKE,,,,,,,,,,,,,,,,,
,,,,,,,,,67db78c86b4bd2d085ff5699,Mexican,13 or older,"no, only English or Spanish",yes,2025-07-23_02h51.26.020,empathy_intonation_perc,2024.2.4,Win32,59.88023952,67db78c86b4bd2d085ff5699,687ed1b7e638a4cbf2f02089,688085e4f24c993615578122,,,,,,,,,,,,,,0,,,,,,,,,,,,,,,,,,,,,,,,,,,,,,,,,,,,,,,,,,,,,,,,,,,,,,,,,23,lampera,,,,,618.7115,619.6556,0,1,0.411,,0,78,78,22,1,REAL,FAKE,,,,,,,,,,,,,,,,,
,,,,,,,,,67db78c86b4bd2d085ff5699,Mexican,13 or older,"no, only English or Spanish",yes,2025-07-23_02h51.26.020,empathy_intonation_perc,2024.2.4,Win32,59.88023952,67db78c86b4bd2d085ff5699,687ed1b7e638a4cbf2f02089,688085e4f24c993615578122,,,,,,,,,,,,,,1,,,,,,,,,,,,,,,,,,,,,,,,,,,,,,,,,,,,,,,,,,,,,,,,,,,,,,,,,67,cabello,,,,,619.659,620.9535,1,1,0.7588,,0,79,79,66,1,REAL,FAKE,,,,,,,,,,,,,,,,,
,,,,,,,,,67db78c86b4bd2d085ff5699,Mexican,13 or older,"no, only English or Spanish",yes,2025-07-23_02h51.26.020,empathy_intonation_perc,2024.2.4,Win32,59.88023952,67db78c86b4bd2d085ff5699,687ed1b7e638a4cbf2f02089,688085e4f24c993615578122,,,,,,,,,,,,,,0,,,,,,,,,,,,,,,,,,,,,,,,,,,,,,,,,,,,,,,,,,,,,,,,,,,,,,,,,8,cadeña,,,,,620.9568,622.5186,0,1,1.0244,,0,80,80,7,1,REAL,FAKE,,,,,,,,,,,,,,,,,
,,,,,,,,,67db78c86b4bd2d085ff5699,Mexican,13 or older,"no, only English or Spanish",yes,2025-07-23_02h51.26.020,empathy_intonation_perc,2024.2.4,Win32,59.88023952,67db78c86b4bd2d085ff5699,687ed1b7e638a4cbf2f02089,688085e4f24c993615578122,,,,,,,,,,,,,,0,,,,,,,,,,,,,,,,,,,,,,,,,,,,,,,,,,,,,,,,,,,,,,,,,,,,,,,,,72,pemición,,,,,622.5224,623.9668,0,1,0.9103,,0,81,81,71,1,REAL,FAKE,,,,,,,,,,,,,,,,,
,,,,,,,,,67db78c86b4bd2d085ff5699,Mexican,13 or older,"no, only English or Spanish",yes,2025-07-23_02h51.26.020,empathy_intonation_perc,2024.2.4,Win32,59.88023952,67db78c86b4bd2d085ff5699,687ed1b7e638a4cbf2f02089,688085e4f24c993615578122,,,,,,,,,,,,,,1,,,,,,,,,,,,,,,,,,,,,,,,,,,,,,,,,,,,,,,,,,,,,,,,,,,,,,,,,77,tiburón,,,,,623.9701,625.5816,1,1,1.0762,,0,82,82,76,1,REAL,FAKE,,,,,,,,,,,,,,,,,
,,,,,,,,,67db78c86b4bd2d085ff5699,Mexican,13 or older,"no, only English or Spanish",yes,2025-07-23_02h51.26.020,empathy_intonation_perc,2024.2.4,Win32,59.88023952,67db78c86b4bd2d085ff5699,687ed1b7e638a4cbf2f02089,688085e4f24c993615578122,,,,,,,,,,,,,,1,,,,,,,,,,,,,,,,,,,,,,,,,,,,,,,,,,,,,,,,,,,,,,,,,,,,,,,,,37,granuja,,,,,625.5852,627.4621,0,0,1.3436,,0,83,83,36,1,REAL,FAKE,,,,,,,,,,,,,,,,,
,,,,,,,,,67db78c86b4bd2d085ff5699,Mexican,13 or older,"no, only English or Spanish",yes,2025-07-23_02h51.26.020,empathy_intonation_perc,2024.2.4,Win32,59.88023952,67db78c86b4bd2d085ff5699,687ed1b7e638a4cbf2f02089,688085e4f24c993615578122,,,,,,,,,,,,,,1,,,,,,,,,,,,,,,,,,,,,,,,,,,,,,,,,,,,,,,,,,,,,,,,,,,,,,,,,88,acantilado,,,,,627.4664,628.6105,1,1,0.6078,,0,84,84,87,1,REAL,FAKE,,,,,,,,,,,,,,,,,
,,,,,,,,,67db78c86b4bd2d085ff5699,Mexican,13 or older,"no, only English or Spanish",yes,2025-07-23_02h51.26.020,empathy_intonation_perc,2024.2.4,Win32,59.88023952,67db78c86b4bd2d085ff5699,687ed1b7e638a4cbf2f02089,688085e4f24c993615578122,,,,,,,,,,,,,,1,,,,,,,,,,,,,,,,,,,,,,,,,,,,,,,,,,,,,,,,,,,,,,,,,,,,,,,,,60,matar,,,,,628.6143,630.5748,0,0,1.4316,,0,85,85,59,1,REAL,FAKE,,,,,,,,,,,,,,,,,
,,,,,,,,,67db78c86b4bd2d085ff5699,Mexican,13 or older,"no, only English or Spanish",yes,2025-07-23_02h51.26.020,empathy_intonation_perc,2024.2.4,Win32,59.88023952,67db78c86b4bd2d085ff5699,687ed1b7e638a4cbf2f02089,688085e4f24c993615578122,,,,,,,,,,,,,,1,,,,,,,,,,,,,,,,,,,,,,,,,,,,,,,,,,,,,,,,,,,,,,,,,,,,,,,,,14,yunque,,,,,630.5795,632.2725,1,1,1.1608,,0,86,86,13,1,REAL,FAKE,,,,,,,,,,,,,,,,,
,,,,,,,,,67db78c86b4bd2d085ff5699,Mexican,13 or older,"no, only English or Spanish",yes,2025-07-23_02h51.26.020,empathy_intonation_perc,2024.2.4,Win32,59.88023952,67db78c86b4bd2d085ff5699,687ed1b7e638a4cbf2f02089,688085e4f24c993615578122,,,,,,,,,,,,,,1,,,,,,,,,,,,,,,,,,,,,,,,,,,,,,,,,,,,,,,,,,,,,,,,,,,,,,,,,12,asesinato,,,,,632.2767,633.4037,1,1,0.597,,0,87,87,11,1,REAL,FAKE,,,,,,,,,,,,,,,,,
,,,,,,,,,67db78c86b4bd2d085ff5699,Mexican,13 or older,"no, only English or Spanish",yes,2025-07-23_02h51.26.020,empathy_intonation_perc,2024.2.4,Win32,59.88023952,67db78c86b4bd2d085ff5699,687ed1b7e638a4cbf2f02089,688085e4f24c993615578122,,,,,,,,,,,,,,0,,,,,,,,,,,,,,,,,,,,,,,,,,,,,,,,,,,,,,,,,,,,,,,,,,,,,,,,,79,tropaje,,,,,633.4086,634.8858,0,1,0.943,,0,88,88,78,1,REAL,FAKE,,,,,,,,,,,,,,,,,
,,,,,,,,,67db78c86b4bd2d085ff5699,Mexican,13 or older,"no, only English or Spanish",yes,2025-07-23_02h51.26.020,empathy_intonation_perc,2024.2.4,Win32,59.88023952,67db78c86b4bd2d085ff5699,687ed1b7e638a4cbf2f02089,688085e4f24c993615578122,,,,,,,,,,,,,,0,,,,,,,,,,,,,,,,,,,,,,,,,,,,,,,,,,,,,,,,,,,,,,,,,,,,,,,,,74,cintro,,,,,634.8907,636.8,0,1,1.3759,,0,89,89,73,1,REAL,FAKE,,,,,,,,,,,,,,,,,
,,,,,,,,,67db78c86b4bd2d085ff5699,Mexican,13 or older,"no, only English or Spanish",yes,2025-07-23_02h51.26.020,empathy_intonation_perc,2024.2.4,Win32,59.88023952,67db78c86b4bd2d085ff5699,687ed1b7e638a4cbf2f02089,688085e4f24c993615578122,,,,,,,,,,,,,,1,,,,,,,,,,,,,,,,,,,,,,,,,,,,,,,,,,,,,,,,,,,,,,,,,,,,,,,,,62,flaco,,,,,636.8049,638.1484,0,0,0.8122,,0,90,90,61,1,REAL,FAKE,,,,,,,,,,,,,,,,,
,,,,,,,,,67db78c86b4bd2d085ff5699,Mexican,13 or older,"no, only English or Spanish",yes,2025-07-23_02h51.26.020,empathy_intonation_perc,2024.2.4,Win32,59.88023952,67db78c86b4bd2d085ff5699,687ed1b7e638a4cbf2f02089,688085e4f24c993615578122,,,,,,,,,,,,,,1,,,,,,,,,,,,,,,,,,,,,,,,,,,,,,,,,,,,,,,,,,,,,,,,,,,,,,,,,40,alfombra,,,,,638.152,639.4959,1,1,0.8082,,0,91,91,39,1,REAL,FAKE,,,,,,,,,,,,,,,,,
,,,,,,,,,67db78c86b4bd2d085ff5699,Mexican,13 or older,"no, only English or Spanish",yes,2025-07-23_02h51.26.020,empathy_intonation_perc,2024.2.4,Win32,59.88023952,67db78c86b4bd2d085ff5699,687ed1b7e638a4cbf2f02089,688085e4f24c993615578122,,,,,,,,,,,,,,,,,,,,,,,,,,,,,,,,,,,,,,,,,,,,,,,,,,,,,,,,,,,,,,,,,,,,,,,,,,,,,,,,,,,,,,,,,,639.4986,655.5282,,,,,,,,,,,,,,,
,,,,,,,,,67db78c86b4bd2d085ff5699,Mexican,13 or older,"no, only English or Spanish",yes,2025-07-23_02h51.26.020,empathy_intonation_perc,2024.2.4,Win32,59.88023952,67db78c86b4bd2d085ff5699,687ed1b7e638a4cbf2f02089,688085e4f24c993615578122,,,,,,,,,,,,,1,,,,,,,,,,,,,,,,,,,,,,,,,,,,,,,,,,,,,,,,,,,,,,,,,,,,,,,,,,,,,,,,,,,,,,,,,,,,,,,655.5947,666.8618,slightly agree,0,0,0,0,1,I can easily tell if someone else wants to enter a conversation.,1,0,1,0,,
,,,,,,,,,67db78c86b4bd2d085ff5699,Mexican,13 or older,"no, only English or Spanish",yes,2025-07-23_02h51.26.020,empathy_intonation_perc,2024.2.4,Win32,59.88023952,67db78c86b4bd2d085ff5699,687ed1b7e638a4cbf2f02089,688085e4f24c993615578122,,,,,,,,,,,,,2,,,,,,,,,,,,,,,,,,,,,,,,,,,,,,,,,,,,,,,,,,,,,,,,,,,,,,,,,,,,,,,,,,,,,,,,,,,,,,,666.8693,670.7116,strongly disagree,0,1,1,1,1,I prefer animals to humans.,0,1,0,0,,
,,,,,,,,,67db78c86b4bd2d085ff5699,Mexican,13 or older,"no, only English or Spanish",yes,2025-07-23_02h51.26.020,empathy_intonation_perc,2024.2.4,Win32,59.88023952,67db78c86b4bd2d085ff5699,687ed1b7e638a4cbf2f02089,688085e4f24c993615578122,,,,,,,,,,,,,3,,,,,,,,,,,,,,,,,,,,,,,,,,,,,,,,,,,,,,,,,,,,,,,,,,,,,,,,,,,,,,,,,,,,,,,,,,,,,,,670.7185,676.4466,strongly agree,0,2,2,2,1,I try to keep up with the current trends and fashions.,0,1,0,0,,
,,,,,,,,,67db78c86b4bd2d085ff5699,Mexican,13 or older,"no, only English or Spanish",yes,2025-07-23_02h51.26.020,empathy_intonation_perc,2024.2.4,Win32,59.88023952,67db78c86b4bd2d085ff5699,687ed1b7e638a4cbf2f02089,688085e4f24c993615578122,,,,,,,,,,,,,4,,,,,,,,,,,,,,,,,,,,,,,,,,,,,,,,,,,,,,,,,,,,,,,,,,,,,,,,,,,,,,,,,,,,,,,,,,,,,,,676.4558,682.6055,slightly disagree,0,3,3,3,1,"I find it difficult to explain to others things that I understand easily,   when they don't understand it first time.",1,0,0,1,,
,,,,,,,,,67db78c86b4bd2d085ff5699,Mexican,13 or older,"no, only English or Spanish",yes,2025-07-23_02h51.26.020,empathy_intonation_perc,2024.2.4,Win32,59.88023952,67db78c86b4bd2d085ff5699,687ed1b7e638a4cbf2f02089,688085e4f24c993615578122,,,,,,,,,,,,,5,,,,,,,,,,,,,,,,,,,,,,,,,,,,,,,,,,,,,,,,,,,,,,,,,,,,,,,,,,,,,,,,,,,,,,,,,,,,,,,682.6106,687.4668,slightly disagree,0,4,4,4,1,I dream most nights.,0,1,0,0,,
,,,,,,,,,67db78c86b4bd2d085ff5699,Mexican,13 or older,"no, only English or Spanish",yes,2025-07-23_02h51.26.020,empathy_intonation_perc,2024.2.4,Win32,59.88023952,67db78c86b4bd2d085ff5699,687ed1b7e638a4cbf2f02089,688085e4f24c993615578122,,,,,,,,,,,,,6,,,,,,,,,,,,,,,,,,,,,,,,,,,,,,,,,,,,,,,,,,,,,,,,,,,,,,,,,,,,,,,,,,,,,,,,,,,,,,,687.4743,692.3431,strongly agree,0,5,5,5,1,I really enjoy caring for other people.,1,0,1,0,,
,,,,,,,,,67db78c86b4bd2d085ff5699,Mexican,13 or older,"no, only English or Spanish",yes,2025-07-23_02h51.26.020,empathy_intonation_perc,2024.2.4,Win32,59.88023952,67db78c86b4bd2d085ff5699,687ed1b7e638a4cbf2f02089,688085e4f24c993615578122,,,,,,,,,,,,,7,,,,,,,,,,,,,,,,,,,,,,,,,,,,,,,,,,,,,,,,,,,,,,,,,,,,,,,,,,,,,,,,,,,,,,,,,,,,,,,692.3514,701.582,slightly agree,0,6,6,6,1,I try to solve my own problems rather than discussing them with others.,0,1,0,0,,
,,,,,,,,,67db78c86b4bd2d085ff5699,Mexican,13 or older,"no, only English or Spanish",yes,2025-07-23_02h51.26.020,empathy_intonation_perc,2024.2.4,Win32,59.88023952,67db78c86b4bd2d085ff5699,687ed1b7e638a4cbf2f02089,688085e4f24c993615578122,,,,,,,,,,,,,8,,,,,,,,,,,,,,,,,,,,,,,,,,,,,,,,,,,,,,,,,,,,,,,,,,,,,,,,,,,,,,,,,,,,,,,,,,,,,,,701.5876,710.1694,slightly disagree,0,7,7,7,1,I find it hard to know what to do in a social situation.,1,0,0,1,,
,,,,,,,,,67db78c86b4bd2d085ff5699,Mexican,13 or older,"no, only English or Spanish",yes,2025-07-23_02h51.26.020,empathy_intonation_perc,2024.2.4,Win32,59.88023952,67db78c86b4bd2d085ff5699,687ed1b7e638a4cbf2f02089,688085e4f24c993615578122,,,,,,,,,,,,,9,,,,,,,,,,,,,,,,,,,,,,,,,,,,,,,,,,,,,,,,,,,,,,,,,,,,,,,,,,,,,,,,,,,,,,,,,,,,,,,710.1745,717.6259,strongly agree,0,8,8,8,1,I am at my best first thing in the morning.,0,1,0,0,,
