instructions_exposure.started,instructions_exposure.stopped,instructions_exposure_loop.thisRepN,instructions_exposure_loop.thisTrialN,instructions_exposure_loop.thisN,instructions_exposure_loop.thisIndex,instructions_exposure_loop.ran,instructions_text,continue_text,participant_id,"What variety of Spanish are you most familiar with? (e.g., Peruvian, Spanish, Mexican)",At what age did you begin learning Spanish?,Are you proficient in any languages other than English/Spanish?,"Are you familiar with Caribbean (e.g., Caribbean, Puerto Rican) or Galician Spanish?",date,expName,psychopyVersion,OS,frameRate,id,study_id,session,trial_exposure.started,trial_exposure.stopped,key_resp_exposure.keys,key_resp_exposure.corr,key_resp_exposure.rt,key_resp_exposure.duration,key_resp.keys,exposure_loop.thisRepN,exposure_loop.thisTrialN,exposure_loop.thisN,exposure_loop.thisIndex,exposure_loop.ran,item_num,correct_response,question,path,duration,instructions_2afc.started,instructions_2afc.stopped,instructions_2afc_loop.thisRepN,instructions_2afc_loop.thisTrialN,instructions_2afc_loop.thisN,instructions_2afc_loop.thisIndex,instructions_2afc_loop.ran,practice_2afc.started,practice_2afc.stopped,key_resp_2afc_practice.keys,key_resp_2afc_practice.corr,key_resp_2afc_practice.rt,key_resp_2afc_practice.duration,trials_2afc_practice_loop.thisRepN,trials_2afc_practice_loop.thisTrialN,trials_2afc_practice_loop.thisN,trials_2afc_practice_loop.thisIndex,trials_2afc_practice_loop.ran,check_2afc.started,check_2afc.stopped,trial_2afc.started,trial_2afc.stopped,key_resp_2afc_trial.keys,key_resp_2afc_trial.corr,key_resp_2afc_trial.rt,key_resp_2afc_trial.duration,trials_2afc_loop.thisRepN,trials_2afc_loop.thisTrialN,trials_2afc_loop.thisN,trials_2afc_loop.thisIndex,trials_2afc_loop.ran,target,variety,instructions_lextale.started,instructions_lextale.stopped,instructions_lextale_loop.thisRepN,instructions_lextale_loop.thisTrialN,instructions_lextale_loop.thisN,instructions_lextale_loop.thisIndex,instructions_lextale_loop.ran,practice_lextale.started,practice_lextale.stopped,key_resp_lextale_practice.keys,key_resp_lextale_practice.corr,key_resp_lextale_practice.rt,key_resp_lextale_practice.duration,practice_feedback_lextale.started,practice_feedback_lextale.stopped,trials_lextale_practice_loop.thisRepN,trials_lextale_practice_loop.thisTrialN,trials_lextale_practice_loop.thisN,trials_lextale_practice_loop.thisIndex,trials_lextale_practice_loop.ran,stim,word,prac_button_real,prac_button_false,check_lextale.started,check_lextale.stopped,trial_lextale.started,trial_lextale.stopped,key_resp_lextale_trial.keys,key_resp_lextale_trial.corr,key_resp_lextale_trial.rt,key_resp_lextale_trial.duration,trials_lextale_loop.thisRepN,trials_lextale_loop.thisTrialN,trials_lextale_loop.thisN,trials_lextale_loop.thisIndex,trials_lextale_loop.ran,button_real,button_false,instructions_eq.started,instructions_eq.stopped,trial_eq.started,trial_eq.stopped,slider_eq_trial.response,trials_eq_loop.thisRepN,trials_eq_loop.thisTrialN,trials_eq_loop.thisN,trials_eq_loop.thisIndex,trials_eq_loop.ran,item,is_test_item,is_distractor,is_agree_score,is_disagree_score,end_exp.started,end_exp.stopped
0.0181,2.8091,0,0,0,0,1,"In the following task, you are going to hear a series of conversations.", (press the space bar to continue),67dd4210d92f4c3aac8d944c,mexican,13 or older,"no, only English or Spanish",no,2025-07-22_20h52.07.555,empathy_intonation_perc,2024.2.4,Win32,48.54368932,67dd4210d92f4c3aac8d944c,687ed1b7e638a4cbf2f02089,688031c78502cde679798f48,,,,,,,,,,,,,,,,,,,,,,,,,,,,,,,,,,,,,,,,,,,,,,,,,,,,,,,,,,,,,,,,,,,,,,,,,,,,,,,,,,,,,,,,,,,,,,,,,,,,,,,,,,
2.8114,5.3703,0,1,1,1,1,It is okay if you don't not 100% understand them!, (press the space bar to continue),67dd4210d92f4c3aac8d944c,mexican,13 or older,"no, only English or Spanish",no,2025-07-22_20h52.07.555,empathy_intonation_perc,2024.2.4,Win32,48.54368932,67dd4210d92f4c3aac8d944c,687ed1b7e638a4cbf2f02089,688031c78502cde679798f48,,,,,,,,,,,,,,,,,,,,,,,,,,,,,,,,,,,,,,,,,,,,,,,,,,,,,,,,,,,,,,,,,,,,,,,,,,,,,,,,,,,,,,,,,,,,,,,,,,,,,,,,,,
5.3758,8.5581,0,2,2,2,1,"After, you will read a sentence about the conversation and decide if it's true or false.", (press the space bar to continue),67dd4210d92f4c3aac8d944c,mexican,13 or older,"no, only English or Spanish",no,2025-07-22_20h52.07.555,empathy_intonation_perc,2024.2.4,Win32,48.54368932,67dd4210d92f4c3aac8d944c,687ed1b7e638a4cbf2f02089,688031c78502cde679798f48,,,,,,,,,,,,,,,,,,,,,,,,,,,,,,,,,,,,,,,,,,,,,,,,,,,,,,,,,,,,,,,,,,,,,,,,,,,,,,,,,,,,,,,,,,,,,,,,,,,,,,,,,,
8.5657,10.9342,0,3,3,3,1,"If it's true, press '1' (True) and if it's false press '0' (False).", (press the space bar to continue),67dd4210d92f4c3aac8d944c,mexican,13 or older,"no, only English or Spanish",no,2025-07-22_20h52.07.555,empathy_intonation_perc,2024.2.4,Win32,48.54368932,67dd4210d92f4c3aac8d944c,687ed1b7e638a4cbf2f02089,688031c78502cde679798f48,,,,,,,,,,,,,,,,,,,,,,,,,,,,,,,,,,,,,,,,,,,,,,,,,,,,,,,,,,,,,,,,,,,,,,,,,,,,,,,,,,,,,,,,,,,,,,,,,,,,,,,,,,
,,,,,,,,,67dd4210d92f4c3aac8d944c,mexican,13 or older,"no, only English or Spanish",no,2025-07-22_20h52.07.555,empathy_intonation_perc,2024.2.4,Win32,48.54368932,67dd4210d92f4c3aac8d944c,687ed1b7e638a4cbf2f02089,688031c78502cde679798f48,10.9646,53.8916,1,0,6.8663,,,0,0,0,2,1,3,0,The mom already has rice.,./stim/exposure_wavs/pr_stimuli_convo.wav,36,,,,,,,,,,,,,,,,,,,,,,,,,,,,,,,,,,,,,,,,,,,,,,,,,,,,,,,,,,,,,,,,,,,,,,,,,,,,,,,,,,,,,,,,,
,,,,,,,,,67dd4210d92f4c3aac8d944c,mexican,13 or older,"no, only English or Spanish",no,2025-07-22_20h52.07.555,empathy_intonation_perc,2024.2.4,Win32,48.54368932,67dd4210d92f4c3aac8d944c,687ed1b7e638a4cbf2f02089,688031c78502cde679798f48,53.9016,122.7038,0,0,8.7722,,,0,1,1,1,1,2,1,The mom asked the daughter if she already went to the supermarket.,./stim/exposure_wavs/dr_stimuli_convo.wav,60,,,,,,,,,,,,,,,,,,,,,,,,,,,,,,,,,,,,,,,,,,,,,,,,,,,,,,,,,,,,,,,,,,,,,,,,,,,,,,,,,,,,,,,,,
,,,,,,,,,67dd4210d92f4c3aac8d944c,mexican,13 or older,"no, only English or Spanish",no,2025-07-22_20h52.07.555,empathy_intonation_perc,2024.2.4,Win32,48.54368932,67dd4210d92f4c3aac8d944c,687ed1b7e638a4cbf2f02089,688031c78502cde679798f48,122.7091,175.1613,1,1,5.399,,,0,2,2,0,1,1,1,The son asked the mom if Aunt Marina is okay.,./stim/exposure_wavs/ga_stimuli_convo.wav,47,,,,,,,,,,,,,,,,,,,,,,,,,,,,,,,,,,,,,,,,,,,,,,,,,,,,,,,,,,,,,,,,,,,,,,,,,,,,,,,,,,,,,,,,,
,,,,,,,"In the following task you are going to hear a series of utterances. 

  You will decide if the utterances sound like questions or not using your keyboard.", (press the spacebar to continue),67dd4210d92f4c3aac8d944c,mexican,13 or older,"no, only English or Spanish",no,2025-07-22_20h52.07.555,empathy_intonation_perc,2024.2.4,Win32,48.54368932,67dd4210d92f4c3aac8d944c,687ed1b7e638a4cbf2f02089,688031c78502cde679798f48,,,,,,,,,,,,,,,,,,175.177,185.5162,0,0,0,0,1,,,,,,,,,,,,,,,,,,,,,,,,,,,,,,,,,,,,,,,,,,,,,,,,,,,,,,,,,,,,,,,,,,,,,,,,,,,,,,,,,,
,,,,,,,"If you believe the utterance is a question, type '1' (for 'yes') and if you do not 
  believe it is a question type '0' (for 'no').

  Let's practice a bit...", (press the spacebar to continue),67dd4210d92f4c3aac8d944c,mexican,13 or older,"no, only English or Spanish",no,2025-07-22_20h52.07.555,empathy_intonation_perc,2024.2.4,Win32,48.54368932,67dd4210d92f4c3aac8d944c,687ed1b7e638a4cbf2f02089,688031c78502cde679798f48,,,,,,,,,,,,,,,,,,185.5236,190.8074,0,1,1,1,1,,,,,,,,,,,,,,,,,,,,,,,,,,,,,,,,,,,,,,,,,,,,,,,,,,,,,,,,,,,,,,,,,,,,,,,,,,,,,,,,,,
,,,,,,,,,67dd4210d92f4c3aac8d944c,mexican,13 or older,"no, only English or Spanish",no,2025-07-22_20h52.07.555,empathy_intonation_perc,2024.2.4,Win32,48.54368932,67dd4210d92f4c3aac8d944c,687ed1b7e638a4cbf2f02089,688031c78502cde679798f48,,,,,,,,,,,,,,1,,./stim/wavs/mexican_question_filler_Felipe-no-tiene-contrasena.wav,,,,,,,,,190.8274,193.997,1,1,2.6488,,0,0,0,3,1,,,,,,,,,,,,,,,,,,,,,,,,,,,,,,,,,,,,,,,,,,,,,,,,,,,,,,,,,,,,,,,,,,,,,,,
,,,,,,,,,67dd4210d92f4c3aac8d944c,mexican,13 or older,"no, only English or Spanish",no,2025-07-22_20h52.07.555,empathy_intonation_perc,2024.2.4,Win32,48.54368932,67dd4210d92f4c3aac8d944c,687ed1b7e638a4cbf2f02089,688031c78502cde679798f48,,,,,,,,,,,,,,0,,./stim/wavs/puertorican_statement_filler_La-nina-pinta-con-su-amiga.wav,,,,,,,,,193.999,196.9536,0,1,2.4248,,0,1,1,7,1,,,,,,,,,,,,,,,,,,,,,,,,,,,,,,,,,,,,,,,,,,,,,,,,,,,,,,,,,,,,,,,,,,,,,,,
,,,,,,,,,67dd4210d92f4c3aac8d944c,mexican,13 or older,"no, only English or Spanish",no,2025-07-22_20h52.07.555,empathy_intonation_perc,2024.2.4,Win32,48.54368932,67dd4210d92f4c3aac8d944c,687ed1b7e638a4cbf2f02089,688031c78502cde679798f48,,,,,,,,,,,,,,0,,./stim/wavs/cuban_statement_filler_Cocinabas-por-la-noche.wav,,,,,,,,,196.9555,199.1821,0,1,1.6887,,0,2,2,4,1,,,,,,,,,,,,,,,,,,,,,,,,,,,,,,,,,,,,,,,,,,,,,,,,,,,,,,,,,,,,,,,,,,,,,,,
,,,,,,,,,67dd4210d92f4c3aac8d944c,mexican,13 or older,"no, only English or Spanish",no,2025-07-22_20h52.07.555,empathy_intonation_perc,2024.2.4,Win32,48.54368932,67dd4210d92f4c3aac8d944c,687ed1b7e638a4cbf2f02089,688031c78502cde679798f48,,,,,,,,,,,,,,0,,./stim/wavs/peruvian_statement_filler_El-nino-habla-con-su-madre.wav,,,,,,,,,199.1834,202.3076,0,1,2.5845,,0,3,3,6,1,,,,,,,,,,,,,,,,,,,,,,,,,,,,,,,,,,,,,,,,,,,,,,,,,,,,,,,,,,,,,,,,,,,,,,,
,,,,,,,,,67dd4210d92f4c3aac8d944c,mexican,13 or older,"no, only English or Spanish",no,2025-07-22_20h52.07.555,empathy_intonation_perc,2024.2.4,Win32,48.54368932,67dd4210d92f4c3aac8d944c,687ed1b7e638a4cbf2f02089,688031c78502cde679798f48,,,,,,,,,,,,,,1,,./stim/wavs/chilean_question_filler_Mi-padre-cantaba-bien.wav,,,,,,,,,202.3104,204.5362,1,1,1.6992,,0,4,4,2,1,,,,,,,,,,,,,,,,,,,,,,,,,,,,,,,,,,,,,,,,,,,,,,,,,,,,,,,,,,,,,,,,,,,,,,,
,,,,,,,,,67dd4210d92f4c3aac8d944c,mexican,13 or older,"no, only English or Spanish",no,2025-07-22_20h52.07.555,empathy_intonation_perc,2024.2.4,Win32,48.54368932,67dd4210d92f4c3aac8d944c,687ed1b7e638a4cbf2f02089,688031c78502cde679798f48,,,,,,,,,,,,,,1,,./stim/wavs/argentine_question_filler_Mi-vecino-habla-mucho.wav,,,,,,,,,204.5378,206.8288,1,1,1.752,,0,5,5,1,1,,,,,,,,,,,,,,,,,,,,,,,,,,,,,,,,,,,,,,,,,,,,,,,,,,,,,,,,,,,,,,,,,,,,,,,
,,,,,,,,,67dd4210d92f4c3aac8d944c,mexican,13 or older,"no, only English or Spanish",no,2025-07-22_20h52.07.555,empathy_intonation_perc,2024.2.4,Win32,48.54368932,67dd4210d92f4c3aac8d944c,687ed1b7e638a4cbf2f02089,688031c78502cde679798f48,,,,,,,,,,,,,,0,,./stim/wavs/andalusian_statement_filler_Alberto-nunca-se-afeita.wav,,,,,,,,,206.8312,209.2656,0,1,1.8949,,0,6,6,5,1,,,,,,,,,,,,,,,,,,,,,,,,,,,,,,,,,,,,,,,,,,,,,,,,,,,,,,,,,,,,,,,,,,,,,,,
,,,,,,,,,67dd4210d92f4c3aac8d944c,mexican,13 or older,"no, only English or Spanish",no,2025-07-22_20h52.07.555,empathy_intonation_perc,2024.2.4,Win32,48.54368932,67dd4210d92f4c3aac8d944c,687ed1b7e638a4cbf2f02089,688031c78502cde679798f48,,,,,,,,,,,,,,1,,./stim/wavs/castilian_question_filler_Mi-esposo-conoce-al-chico.wav,,,,,,,,,209.2679,211.6828,1,1,1.8791,,0,7,7,0,1,,,,,,,,,,,,,,,,,,,,,,,,,,,,,,,,,,,,,,,,,,,,,,,,,,,,,,,,,,,,,,,,,,,,,,,
,,,,,,,,,67dd4210d92f4c3aac8d944c,mexican,13 or older,"no, only English or Spanish",no,2025-07-22_20h52.07.555,empathy_intonation_perc,2024.2.4,Win32,48.54368932,67dd4210d92f4c3aac8d944c,687ed1b7e638a4cbf2f02089,688031c78502cde679798f48,,,,,,,,,,,,,,,,,,,,,,,,,,,,,,,,,,,,211.684,216.9744,,,,,,,,,,,,,,,,,,,,,,,,,,,,,,,,,,,,,,,,,,,,,,,,,,,,,,,,,,,,,,,,,,,,,
,,,,,,,,,67dd4210d92f4c3aac8d944c,mexican,13 or older,"no, only English or Spanish",no,2025-07-22_20h52.07.555,empathy_intonation_perc,2024.2.4,Win32,48.54368932,67dd4210d92f4c3aac8d944c,687ed1b7e638a4cbf2f02089,688031c78502cde679798f48,,,,,,,,,,,,,68,0,,./stim/wavs/puertorican_match_declarative-broad-focus_Maria-bebe-el-vino.wav,,,,,,,,,,,,,,,,,,,,,,217.0059,219.3275,1,0,1.793,,0,0,0,67,1,0,puertorican,,,,,,,,,,,,,,,,,,,,,,,,,,,,,,,,,,,,,,,,,,,,,,,,,,,,,,,,
,,,,,,,,,67dd4210d92f4c3aac8d944c,mexican,13 or older,"no, only English or Spanish",no,2025-07-22_20h52.07.555,empathy_intonation_perc,2024.2.4,Win32,48.54368932,67dd4210d92f4c3aac8d944c,687ed1b7e638a4cbf2f02089,688031c78502cde679798f48,,,,,,,,,,,,,12,1,,./stim/wavs/cuban_match_interrogative-total-yn_Marta-abre-el-regalo.wav,,,,,,,,,,,,,,,,,,,,,,219.3283,221.5158,0,0,1.6763,,0,1,1,11,1,1,cuban,,,,,,,,,,,,,,,,,,,,,,,,,,,,,,,,,,,,,,,,,,,,,,,,,,,,,,,,
,,,,,,,,,67dd4210d92f4c3aac8d944c,mexican,13 or older,"no, only English or Spanish",no,2025-07-22_20h52.07.555,empathy_intonation_perc,2024.2.4,Win32,48.54368932,67dd4210d92f4c3aac8d944c,687ed1b7e638a4cbf2f02089,688031c78502cde679798f48,,,,,,,,,,,,,52,0,,./stim/wavs/cuban_match_declarative-broad-focus_Daniel-iba-a-Bolivia.wav,,,,,,,,,,,,,,,,,,,,,,221.517,224.0991,1,0,2.0422,,0,2,2,51,1,0,cuban,,,,,,,,,,,,,,,,,,,,,,,,,,,,,,,,,,,,,,,,,,,,,,,,,,,,,,,,
,,,,,,,,,67dd4210d92f4c3aac8d944c,mexican,13 or older,"no, only English or Spanish",no,2025-07-22_20h52.07.555,empathy_intonation_perc,2024.2.4,Win32,48.54368932,67dd4210d92f4c3aac8d944c,687ed1b7e638a4cbf2f02089,688031c78502cde679798f48,,,,,,,,,,,,,84,0,,./stim/wavs/puertorican_mismatch_declarative-broad-focus_El-bebe-comia-muy-bien.wav,,,,,,,,,,,,,,,,,,,,,,224.1003,226.9949,0,1,2.3551,,0,3,3,83,1,0,puertorican,,,,,,,,,,,,,,,,,,,,,,,,,,,,,,,,,,,,,,,,,,,,,,,,,,,,,,,,
,,,,,,,,,67dd4210d92f4c3aac8d944c,mexican,13 or older,"no, only English or Spanish",no,2025-07-22_20h52.07.555,empathy_intonation_perc,2024.2.4,Win32,48.54368932,67dd4210d92f4c3aac8d944c,687ed1b7e638a4cbf2f02089,688031c78502cde679798f48,,,,,,,,,,,,,2,1,,./stim/wavs/castilian_match_interrogative-total-yn_Emilio-ama-la-marcha.wav,,,,,,,,,,,,,,,,,,,,,,226.996,229.2238,1,1,1.6923,,0,4,4,1,1,0,castilian,,,,,,,,,,,,,,,,,,,,,,,,,,,,,,,,,,,,,,,,,,,,,,,,,,,,,,,,
,,,,,,,,,67dd4210d92f4c3aac8d944c,mexican,13 or older,"no, only English or Spanish",no,2025-07-22_20h52.07.555,empathy_intonation_perc,2024.2.4,Win32,48.54368932,67dd4210d92f4c3aac8d944c,687ed1b7e638a4cbf2f02089,688031c78502cde679798f48,,,,,,,,,,,,,49,0,,./stim/wavs/castilian_match_declarative-broad-focus_Mariano-habla-del-tiempo.wav,,,,,,,,,,,,,,,,,,,,,,229.2252,231.724,0,1,1.9659,,0,5,5,48,1,0,castilian,,,,,,,,,,,,,,,,,,,,,,,,,,,,,,,,,,,,,,,,,,,,,,,,,,,,,,,,
,,,,,,,,,67dd4210d92f4c3aac8d944c,mexican,13 or older,"no, only English or Spanish",no,2025-07-22_20h52.07.555,empathy_intonation_perc,2024.2.4,Win32,48.54368932,67dd4210d92f4c3aac8d944c,687ed1b7e638a4cbf2f02089,688031c78502cde679798f48,,,,,,,,,,,,,8,1,,./stim/wavs/cuban_match_interrogative-total-yn_Daniel-iba-a-Bolivia.wav,,,,,,,,,,,,,,,,,,,,,,231.7254,233.9951,0,0,1.7362,,0,6,6,7,1,1,cuban,,,,,,,,,,,,,,,,,,,,,,,,,,,,,,,,,,,,,,,,,,,,,,,,,,,,,,,,
,,,,,,,,,67dd4210d92f4c3aac8d944c,mexican,13 or older,"no, only English or Spanish",no,2025-07-22_20h52.07.555,empathy_intonation_perc,2024.2.4,Win32,48.54368932,67dd4210d92f4c3aac8d944c,687ed1b7e638a4cbf2f02089,688031c78502cde679798f48,,,,,,,,,,,,,42,1,,./stim/wavs/puertorican_mismatch_interrogative-total-yn_La-maestra-vive-en-Paris.wav,,,,,,,,,,,,,,,,,,,,,,233.9965,236.6201,0,0,2.0935,,0,7,7,41,1,1,puertorican,,,,,,,,,,,,,,,,,,,,,,,,,,,,,,,,,,,,,,,,,,,,,,,,,,,,,,,,
,,,,,,,,,67dd4210d92f4c3aac8d944c,mexican,13 or older,"no, only English or Spanish",no,2025-07-22_20h52.07.555,empathy_intonation_perc,2024.2.4,Win32,48.54368932,67dd4210d92f4c3aac8d944c,687ed1b7e638a4cbf2f02089,688031c78502cde679798f48,,,,,,,,,,,,,33,1,,./stim/wavs/cuban_mismatch_interrogative-total-yn_Mi-novio-viene-del-lago.wav,,,,,,,,,,,,,,,,,,,,,,236.6214,239.2031,0,0,2.0451,,0,8,8,32,1,1,cuban,,,,,,,,,,,,,,,,,,,,,,,,,,,,,,,,,,,,,,,,,,,,,,,,,,,,,,,,
,,,,,,,,,67dd4210d92f4c3aac8d944c,mexican,13 or older,"no, only English or Spanish",no,2025-07-22_20h52.07.555,empathy_intonation_perc,2024.2.4,Win32,48.54368932,67dd4210d92f4c3aac8d944c,687ed1b7e638a4cbf2f02089,688031c78502cde679798f48,,,,,,,,,,,,,18,1,,./stim/wavs/mexican_match_interrogative-total-yn_Marta-abre-el-regalo.wav,,,,,,,,,,,,,,,,,,,,,,239.2043,241.2027,1,1,1.4702,,0,9,9,17,1,0,mexican,,,,,,,,,,,,,,,,,,,,,,,,,,,,,,,,,,,,,,,,,,,,,,,,,,,,,,,,
,,,,,,,,,67dd4210d92f4c3aac8d944c,mexican,13 or older,"no, only English or Spanish",no,2025-07-22_20h52.07.555,empathy_intonation_perc,2024.2.4,Win32,48.54368932,67dd4210d92f4c3aac8d944c,687ed1b7e638a4cbf2f02089,688031c78502cde679798f48,,,,,,,,,,,,,76,0,,./stim/wavs/cuban_mismatch_declarative-broad-focus_La-nina-lava-el-plato.wav,,,,,,,,,,,,,,,,,,,,,,241.2037,243.6198,0,1,1.8764,,0,10,10,75,1,0,cuban,,,,,,,,,,,,,,,,,,,,,,,,,,,,,,,,,,,,,,,,,,,,,,,,,,,,,,,,
,,,,,,,,,67dd4210d92f4c3aac8d944c,mexican,13 or older,"no, only English or Spanish",no,2025-07-22_20h52.07.555,empathy_intonation_perc,2024.2.4,Win32,48.54368932,67dd4210d92f4c3aac8d944c,687ed1b7e638a4cbf2f02089,688031c78502cde679798f48,,,,,,,,,,,,,63,0,,./stim/wavs/puertorican_match_declarative-broad-focus_Ana-lleva-el-abrigo.wav,,,,,,,,,,,,,,,,,,,,,,243.621,245.7861,0,1,1.6377,,0,11,11,62,1,0,puertorican,,,,,,,,,,,,,,,,,,,,,,,,,,,,,,,,,,,,,,,,,,,,,,,,,,,,,,,,
,,,,,,,,,67dd4210d92f4c3aac8d944c,mexican,13 or older,"no, only English or Spanish",no,2025-07-22_20h52.07.555,empathy_intonation_perc,2024.2.4,Win32,48.54368932,67dd4210d92f4c3aac8d944c,687ed1b7e638a4cbf2f02089,688031c78502cde679798f48,,,,,,,,,,,,,5,1,,./stim/wavs/castilian_match_interrogative-total-yn_Mariano-habla-del-tiempo.wav,,,,,,,,,,,,,,,,,,,,,,245.7872,248.1612,1,1,1.8363,,0,12,12,4,1,0,castilian,,,,,,,,,,,,,,,,,,,,,,,,,,,,,,,,,,,,,,,,,,,,,,,,,,,,,,,,
,,,,,,,,,67dd4210d92f4c3aac8d944c,mexican,13 or older,"no, only English or Spanish",no,2025-07-22_20h52.07.555,empathy_intonation_perc,2024.2.4,Win32,48.54368932,67dd4210d92f4c3aac8d944c,687ed1b7e638a4cbf2f02089,688031c78502cde679798f48,,,,,,,,,,,,,22,1,,./stim/wavs/puertorican_match_interrogative-total-yn_Emilio-ama-la-marcha.wav,,,,,,,,,,,,,,,,,,,,,,248.1625,250.4533,0,0,1.7513,,0,13,13,21,1,1,puertorican,,,,,,,,,,,,,,,,,,,,,,,,,,,,,,,,,,,,,,,,,,,,,,,,,,,,,,,,
,,,,,,,,,67dd4210d92f4c3aac8d944c,mexican,13 or older,"no, only English or Spanish",no,2025-07-22_20h52.07.555,empathy_intonation_perc,2024.2.4,Win32,48.54368932,67dd4210d92f4c3aac8d944c,687ed1b7e638a4cbf2f02089,688031c78502cde679798f48,,,,,,,,,,,,,25,1,,./stim/wavs/castilian_mismatch_interrogative-total-yn_La-maestra-vive-en-Paris.wav,,,,,,,,,,,,,,,,,,,,,,250.4551,252.9324,1,1,1.9427,,0,14,14,24,1,0,castilian,,,,,,,,,,,,,,,,,,,,,,,,,,,,,,,,,,,,,,,,,,,,,,,,,,,,,,,,
,,,,,,,,,67dd4210d92f4c3aac8d944c,mexican,13 or older,"no, only English or Spanish",no,2025-07-22_20h52.07.555,empathy_intonation_perc,2024.2.4,Win32,48.54368932,67dd4210d92f4c3aac8d944c,687ed1b7e638a4cbf2f02089,688031c78502cde679798f48,,,,,,,,,,,,,85,0,,./stim/wavs/puertorican_mismatch_declarative-broad-focus_El-hombre-mira-la-luna.wav,,,,,,,,,,,,,,,,,,,,,,252.934,255.1822,0,1,1.7087,,0,15,15,84,1,0,puertorican,,,,,,,,,,,,,,,,,,,,,,,,,,,,,,,,,,,,,,,,,,,,,,,,,,,,,,,,
,,,,,,,,,67dd4210d92f4c3aac8d944c,mexican,13 or older,"no, only English or Spanish",no,2025-07-22_20h52.07.555,empathy_intonation_perc,2024.2.4,Win32,48.54368932,67dd4210d92f4c3aac8d944c,687ed1b7e638a4cbf2f02089,688031c78502cde679798f48,,,,,,,,,,,,,41,1,,./stim/wavs/puertorican_mismatch_interrogative-total-yn_El-nino-oye-el-rio.wav,,,,,,,,,,,,,,,,,,,,,,255.1835,257.3285,0,0,1.6046,,0,16,16,40,1,1,puertorican,,,,,,,,,,,,,,,,,,,,,,,,,,,,,,,,,,,,,,,,,,,,,,,,,,,,,,,,
,,,,,,,,,67dd4210d92f4c3aac8d944c,mexican,13 or older,"no, only English or Spanish",no,2025-07-22_20h52.07.555,empathy_intonation_perc,2024.2.4,Win32,48.54368932,67dd4210d92f4c3aac8d944c,687ed1b7e638a4cbf2f02089,688031c78502cde679798f48,,,,,,,,,,,,,80,0,,./stim/wavs/mexican_mismatch_declarative-broad-focus_El-hombre-mira-la-luna.wav,,,,,,,,,,,,,,,,,,,,,,257.3299,259.5993,0,1,1.7393,,0,17,17,79,1,0,mexican,,,,,,,,,,,,,,,,,,,,,,,,,,,,,,,,,,,,,,,,,,,,,,,,,,,,,,,,
,,,,,,,,,67dd4210d92f4c3aac8d944c,mexican,13 or older,"no, only English or Spanish",no,2025-07-22_20h52.07.555,empathy_intonation_perc,2024.2.4,Win32,48.54368932,67dd4210d92f4c3aac8d944c,687ed1b7e638a4cbf2f02089,688031c78502cde679798f48,,,,,,,,,,,,,69,0,,./stim/wavs/castilian_mismatch_declarative-broad-focus_El-nino-oye-el-rio.wav,,,,,,,,,,,,,,,,,,,,,,259.6006,262.1612,0,1,2.021,,0,18,18,68,1,0,castilian,,,,,,,,,,,,,,,,,,,,,,,,,,,,,,,,,,,,,,,,,,,,,,,,,,,,,,,,
,,,,,,,,,67dd4210d92f4c3aac8d944c,mexican,13 or older,"no, only English or Spanish",no,2025-07-22_20h52.07.555,empathy_intonation_perc,2024.2.4,Win32,48.54368932,67dd4210d92f4c3aac8d944c,687ed1b7e638a4cbf2f02089,688031c78502cde679798f48,,,,,,,,,,,,,88,0,,./stim/wavs/puertorican_mismatch_declarative-broad-focus_La-nina-lava-el-plato.wav,,,,,,,,,,,,,,,,,,,,,,262.1621,264.1199,1,0,1.4173,,0,19,19,87,1,0,puertorican,,,,,,,,,,,,,,,,,,,,,,,,,,,,,,,,,,,,,,,,,,,,,,,,,,,,,,,,
,,,,,,,,,67dd4210d92f4c3aac8d944c,mexican,13 or older,"no, only English or Spanish",no,2025-07-22_20h52.07.555,empathy_intonation_perc,2024.2.4,Win32,48.54368932,67dd4210d92f4c3aac8d944c,687ed1b7e638a4cbf2f02089,688031c78502cde679798f48,,,,,,,,,,,,,29,1,,./stim/wavs/castilian_mismatch_interrogative-total-yn_Mi-tia-odia-la-lluvia.wav,,,,,,,,,,,,,,,,,,,,,,264.1212,266.3281,1,1,1.6674,,0,20,20,28,1,0,castilian,,,,,,,,,,,,,,,,,,,,,,,,,,,,,,,,,,,,,,,,,,,,,,,,,,,,,,,,
,,,,,,,,,67dd4210d92f4c3aac8d944c,mexican,13 or older,"no, only English or Spanish",no,2025-07-22_20h52.07.555,empathy_intonation_perc,2024.2.4,Win32,48.54368932,67dd4210d92f4c3aac8d944c,687ed1b7e638a4cbf2f02089,688031c78502cde679798f48,,,,,,,,,,,,,75,0,,./stim/wavs/cuban_mismatch_declarative-broad-focus_El-hombre-mira-la-luna.wav,,,,,,,,,,,,,,,,,,,,,,266.3295,268.5363,0,1,1.6672,,0,21,21,74,1,0,cuban,,,,,,,,,,,,,,,,,,,,,,,,,,,,,,,,,,,,,,,,,,,,,,,,,,,,,,,,
,,,,,,,,,67dd4210d92f4c3aac8d944c,mexican,13 or older,"no, only English or Spanish",no,2025-07-22_20h52.07.555,empathy_intonation_perc,2024.2.4,Win32,48.54368932,67dd4210d92f4c3aac8d944c,687ed1b7e638a4cbf2f02089,688031c78502cde679798f48,,,,,,,,,,,,,15,1,,./stim/wavs/mexican_match_interrogative-total-yn_David-leia-el-libro.wav,,,,,,,,,,,,,,,,,,,,,,268.5376,270.6611,1,1,1.5858,,0,22,22,14,1,0,mexican,,,,,,,,,,,,,,,,,,,,,,,,,,,,,,,,,,,,,,,,,,,,,,,,,,,,,,,,
,,,,,,,,,67dd4210d92f4c3aac8d944c,mexican,13 or older,"no, only English or Spanish",no,2025-07-22_20h52.07.555,empathy_intonation_perc,2024.2.4,Win32,48.54368932,67dd4210d92f4c3aac8d944c,687ed1b7e638a4cbf2f02089,688031c78502cde679798f48,,,,,,,,,,,,,36,1,,./stim/wavs/mexican_mismatch_interrogative-total-yn_El-nino-oye-el-rio.wav,,,,,,,,,,,,,,,,,,,,,,270.6622,272.6613,1,1,1.4617,,0,23,23,35,1,0,mexican,,,,,,,,,,,,,,,,,,,,,,,,,,,,,,,,,,,,,,,,,,,,,,,,,,,,,,,,
,,,,,,,,,67dd4210d92f4c3aac8d944c,mexican,13 or older,"no, only English or Spanish",no,2025-07-22_20h52.07.555,empathy_intonation_perc,2024.2.4,Win32,48.54368932,67dd4210d92f4c3aac8d944c,687ed1b7e638a4cbf2f02089,688031c78502cde679798f48,,,,,,,,,,,,,86,0,,./stim/wavs/puertorican_mismatch_declarative-broad-focus_El-nino-oye-el-rio.wav,,,,,,,,,,,,,,,,,,,,,,272.6627,274.7449,0,1,1.5435,,0,24,24,85,1,0,puertorican,,,,,,,,,,,,,,,,,,,,,,,,,,,,,,,,,,,,,,,,,,,,,,,,,,,,,,,,
,,,,,,,,,67dd4210d92f4c3aac8d944c,mexican,13 or older,"no, only English or Spanish",no,2025-07-22_20h52.07.555,empathy_intonation_perc,2024.2.4,Win32,48.54368932,67dd4210d92f4c3aac8d944c,687ed1b7e638a4cbf2f02089,688031c78502cde679798f48,,,,,,,,,,,,,64,0,,./stim/wavs/puertorican_match_declarative-broad-focus_Daniel-iba-a-Bolivia.wav,,,,,,,,,,,,,,,,,,,,,,274.7461,276.8074,0,1,1.5211,,0,25,25,63,1,0,puertorican,,,,,,,,,,,,,,,,,,,,,,,,,,,,,,,,,,,,,,,,,,,,,,,,,,,,,,,,
,,,,,,,,,67dd4210d92f4c3aac8d944c,mexican,13 or older,"no, only English or Spanish",no,2025-07-22_20h52.07.555,empathy_intonation_perc,2024.2.4,Win32,48.54368932,67dd4210d92f4c3aac8d944c,687ed1b7e638a4cbf2f02089,688031c78502cde679798f48,,,,,,,,,,,,,13,1,,./stim/wavs/mexican_match_interrogative-total-yn_Ana-lleva-el-abrigo.wav,,,,,,,,,,,,,,,,,,,,,,276.809,278.7027,1,1,1.3621,,0,26,26,12,1,0,mexican,,,,,,,,,,,,,,,,,,,,,,,,,,,,,,,,,,,,,,,,,,,,,,,,,,,,,,,,
,,,,,,,,,67dd4210d92f4c3aac8d944c,mexican,13 or older,"no, only English or Spanish",no,2025-07-22_20h52.07.555,empathy_intonation_perc,2024.2.4,Win32,48.54368932,67dd4210d92f4c3aac8d944c,687ed1b7e638a4cbf2f02089,688031c78502cde679798f48,,,,,,,,,,,,,27,1,,./stim/wavs/castilian_mismatch_interrogative-total-yn_Mi-madre-come-la-fruta.wav,,,,,,,,,,,,,,,,,,,,,,278.7038,280.9111,1,1,1.6685,,0,27,27,26,1,0,castilian,,,,,,,,,,,,,,,,,,,,,,,,,,,,,,,,,,,,,,,,,,,,,,,,,,,,,,,,
,,,,,,,,,67dd4210d92f4c3aac8d944c,mexican,13 or older,"no, only English or Spanish",no,2025-07-22_20h52.07.555,empathy_intonation_perc,2024.2.4,Win32,48.54368932,67dd4210d92f4c3aac8d944c,687ed1b7e638a4cbf2f02089,688031c78502cde679798f48,,,,,,,,,,,,,14,1,,./stim/wavs/mexican_match_interrogative-total-yn_Daniel-iba-a-Bolivia.wav,,,,,,,,,,,,,,,,,,,,,,280.9123,283.0788,1,1,1.6326,,0,28,28,13,1,0,mexican,,,,,,,,,,,,,,,,,,,,,,,,,,,,,,,,,,,,,,,,,,,,,,,,,,,,,,,,
,,,,,,,,,67dd4210d92f4c3aac8d944c,mexican,13 or older,"no, only English or Spanish",no,2025-07-22_20h52.07.555,empathy_intonation_perc,2024.2.4,Win32,48.54368932,67dd4210d92f4c3aac8d944c,687ed1b7e638a4cbf2f02089,688031c78502cde679798f48,,,,,,,,,,,,,46,0,,./stim/wavs/castilian_match_declarative-broad-focus_Emilio-ama-la-marcha.wav,,,,,,,,,,,,,,,,,,,,,,283.081,285.4322,0,1,1.8224,,0,29,29,45,1,0,castilian,,,,,,,,,,,,,,,,,,,,,,,,,,,,,,,,,,,,,,,,,,,,,,,,,,,,,,,,
,,,,,,,,,67dd4210d92f4c3aac8d944c,mexican,13 or older,"no, only English or Spanish",no,2025-07-22_20h52.07.555,empathy_intonation_perc,2024.2.4,Win32,48.54368932,67dd4210d92f4c3aac8d944c,687ed1b7e638a4cbf2f02089,688031c78502cde679798f48,,,,,,,,,,,,,44,1,,./stim/wavs/puertorican_mismatch_interrogative-total-yn_Mi-madre-come-la-fruta.wav,,,,,,,,,,,,,,,,,,,,,,285.4339,287.558,0,0,1.5845,,0,30,30,43,1,1,puertorican,,,,,,,,,,,,,,,,,,,,,,,,,,,,,,,,,,,,,,,,,,,,,,,,,,,,,,,,
,,,,,,,,,67dd4210d92f4c3aac8d944c,mexican,13 or older,"no, only English or Spanish",no,2025-07-22_20h52.07.555,empathy_intonation_perc,2024.2.4,Win32,48.54368932,67dd4210d92f4c3aac8d944c,687ed1b7e638a4cbf2f02089,688031c78502cde679798f48,,,,,,,,,,,,,20,1,,./stim/wavs/puertorican_match_interrogative-total-yn_Daniel-iba-a-Bolivia.wav,,,,,,,,,,,,,,,,,,,,,,287.5604,289.7446,1,1,1.6453,,0,31,31,19,1,1,puertorican,,,,,,,,,,,,,,,,,,,,,,,,,,,,,,,,,,,,,,,,,,,,,,,,,,,,,,,,
,,,,,,,,,67dd4210d92f4c3aac8d944c,mexican,13 or older,"no, only English or Spanish",no,2025-07-22_20h52.07.555,empathy_intonation_perc,2024.2.4,Win32,48.54368932,67dd4210d92f4c3aac8d944c,687ed1b7e638a4cbf2f02089,688031c78502cde679798f48,,,,,,,,,,,,,40,1,,./stim/wavs/puertorican_mismatch_interrogative-total-yn_El-hombre-mira-la-luna.wav,,,,,,,,,,,,,,,,,,,,,,289.7469,291.9749,1,1,1.7011,,0,32,32,39,1,1,puertorican,,,,,,,,,,,,,,,,,,,,,,,,,,,,,,,,,,,,,,,,,,,,,,,,,,,,,,,,
,,,,,,,,,67dd4210d92f4c3aac8d944c,mexican,13 or older,"no, only English or Spanish",no,2025-07-22_20h52.07.555,empathy_intonation_perc,2024.2.4,Win32,48.54368932,67dd4210d92f4c3aac8d944c,687ed1b7e638a4cbf2f02089,688031c78502cde679798f48,,,,,,,,,,,,,31,1,,./stim/wavs/cuban_mismatch_interrogative-total-yn_El-nino-oye-el-rio.wav,,,,,,,,,,,,,,,,,,,,,,291.9763,293.9736,0,0,1.4591,,0,33,33,30,1,1,cuban,,,,,,,,,,,,,,,,,,,,,,,,,,,,,,,,,,,,,,,,,,,,,,,,,,,,,,,,
,,,,,,,,,67dd4210d92f4c3aac8d944c,mexican,13 or older,"no, only English or Spanish",no,2025-07-22_20h52.07.555,empathy_intonation_perc,2024.2.4,Win32,48.54368932,67dd4210d92f4c3aac8d944c,687ed1b7e638a4cbf2f02089,688031c78502cde679798f48,,,,,,,,,,,,,10,1,,./stim/wavs/cuban_match_interrogative-total-yn_Maria-bebe-el-vino.wav,,,,,,,,,,,,,,,,,,,,,,293.9753,295.9811,0,0,1.4723,,0,34,34,9,1,1,cuban,,,,,,,,,,,,,,,,,,,,,,,,,,,,,,,,,,,,,,,,,,,,,,,,,,,,,,,,
,,,,,,,,,67dd4210d92f4c3aac8d944c,mexican,13 or older,"no, only English or Spanish",no,2025-07-22_20h52.07.555,empathy_intonation_perc,2024.2.4,Win32,48.54368932,67dd4210d92f4c3aac8d944c,687ed1b7e638a4cbf2f02089,688031c78502cde679798f48,,,,,,,,,,,,,16,1,,./stim/wavs/mexican_match_interrogative-total-yn_Emilio-ama-la-marcha.wav,,,,,,,,,,,,,,,,,,,,,,295.9826,298.0019,1,1,1.4983,,0,35,35,15,1,0,mexican,,,,,,,,,,,,,,,,,,,,,,,,,,,,,,,,,,,,,,,,,,,,,,,,,,,,,,,,
,,,,,,,,,67dd4210d92f4c3aac8d944c,mexican,13 or older,"no, only English or Spanish",no,2025-07-22_20h52.07.555,empathy_intonation_perc,2024.2.4,Win32,48.54368932,67dd4210d92f4c3aac8d944c,687ed1b7e638a4cbf2f02089,688031c78502cde679798f48,,,,,,,,,,,,,73,0,,./stim/wavs/castilian_mismatch_declarative-broad-focus_Mi-tia-odia-la-lluvia.wav,,,,,,,,,,,,,,,,,,,,,,298.0033,300.2444,0,1,1.7201,,0,36,36,72,1,0,castilian,,,,,,,,,,,,,,,,,,,,,,,,,,,,,,,,,,,,,,,,,,,,,,,,,,,,,,,,
,,,,,,,,,67dd4210d92f4c3aac8d944c,mexican,13 or older,"no, only English or Spanish",no,2025-07-22_20h52.07.555,empathy_intonation_perc,2024.2.4,Win32,48.54368932,67dd4210d92f4c3aac8d944c,687ed1b7e638a4cbf2f02089,688031c78502cde679798f48,,,,,,,,,,,,,28,1,,./stim/wavs/castilian_mismatch_interrogative-total-yn_Mi-novio-viene-del-lago.wav,,,,,,,,,,,,,,,,,,,,,,300.2461,302.4527,1,1,1.6725,,0,37,37,27,1,0,castilian,,,,,,,,,,,,,,,,,,,,,,,,,,,,,,,,,,,,,,,,,,,,,,,,,,,,,,,,
,,,,,,,,,67dd4210d92f4c3aac8d944c,mexican,13 or older,"no, only English or Spanish",no,2025-07-22_20h52.07.555,empathy_intonation_perc,2024.2.4,Win32,48.54368932,67dd4210d92f4c3aac8d944c,687ed1b7e638a4cbf2f02089,688031c78502cde679798f48,,,,,,,,,,,,,39,1,,./stim/wavs/mexican_mismatch_interrogative-total-yn_Mi-tia-odia-la-lluvia.wav,,,,,,,,,,,,,,,,,,,,,,302.4546,304.4738,1,1,1.4798,,0,38,38,38,1,0,mexican,,,,,,,,,,,,,,,,,,,,,,,,,,,,,,,,,,,,,,,,,,,,,,,,,,,,,,,,
,,,,,,,,,67dd4210d92f4c3aac8d944c,mexican,13 or older,"no, only English or Spanish",no,2025-07-22_20h52.07.555,empathy_intonation_perc,2024.2.4,Win32,48.54368932,67dd4210d92f4c3aac8d944c,687ed1b7e638a4cbf2f02089,688031c78502cde679798f48,,,,,,,,,,,,,37,1,,./stim/wavs/mexican_mismatch_interrogative-total-yn_La-maestra-vive-en-Paris.wav,,,,,,,,,,,,,,,,,,,,,,304.4753,306.682,1,1,1.6729,,0,39,39,36,1,0,mexican,,,,,,,,,,,,,,,,,,,,,,,,,,,,,,,,,,,,,,,,,,,,,,,,,,,,,,,,
,,,,,,,,,67dd4210d92f4c3aac8d944c,mexican,13 or older,"no, only English or Spanish",no,2025-07-22_20h52.07.555,empathy_intonation_perc,2024.2.4,Win32,48.54368932,67dd4210d92f4c3aac8d944c,687ed1b7e638a4cbf2f02089,688031c78502cde679798f48,,,,,,,,,,,,,4,1,,./stim/wavs/castilian_match_interrogative-total-yn_Maria-bebe-el-vino.wav,,,,,,,,,,,,,,,,,,,,,,306.6838,308.7239,1,1,1.5047,,0,40,40,3,1,0,castilian,,,,,,,,,,,,,,,,,,,,,,,,,,,,,,,,,,,,,,,,,,,,,,,,,,,,,,,,
,,,,,,,,,67dd4210d92f4c3aac8d944c,mexican,13 or older,"no, only English or Spanish",no,2025-07-22_20h52.07.555,empathy_intonation_perc,2024.2.4,Win32,48.54368932,67dd4210d92f4c3aac8d944c,687ed1b7e638a4cbf2f02089,688031c78502cde679798f48,,,,,,,,,,,,,3,1,,./stim/wavs/castilian_match_interrogative-total-yn_Manuela-vende-el-carro.wav,,,,,,,,,,,,,,,,,,,,,,308.7256,310.9323,1,1,1.6669,,0,41,41,2,1,0,castilian,,,,,,,,,,,,,,,,,,,,,,,,,,,,,,,,,,,,,,,,,,,,,,,,,,,,,,,,
,,,,,,,,,67dd4210d92f4c3aac8d944c,mexican,13 or older,"no, only English or Spanish",no,2025-07-22_20h52.07.555,empathy_intonation_perc,2024.2.4,Win32,48.54368932,67dd4210d92f4c3aac8d944c,687ed1b7e638a4cbf2f02089,688031c78502cde679798f48,,,,,,,,,,,,,54,0,,./stim/wavs/cuban_match_declarative-broad-focus_Maria-bebe-el-vino.wav,,,,,,,,,,,,,,,,,,,,,,310.9344,312.9533,0,1,1.4803,,0,42,42,53,1,0,cuban,,,,,,,,,,,,,,,,,,,,,,,,,,,,,,,,,,,,,,,,,,,,,,,,,,,,,,,,
,,,,,,,,,67dd4210d92f4c3aac8d944c,mexican,13 or older,"no, only English or Spanish",no,2025-07-22_20h52.07.555,empathy_intonation_perc,2024.2.4,Win32,48.54368932,67dd4210d92f4c3aac8d944c,687ed1b7e638a4cbf2f02089,688031c78502cde679798f48,,,,,,,,,,,,,66,0,,./stim/wavs/puertorican_match_declarative-broad-focus_Emilio-ama-la-marcha.wav,,,,,,,,,,,,,,,,,,,,,,312.9549,315.2453,0,1,1.7506,,0,43,43,65,1,0,puertorican,,,,,,,,,,,,,,,,,,,,,,,,,,,,,,,,,,,,,,,,,,,,,,,,,,,,,,,,
,,,,,,,,,67dd4210d92f4c3aac8d944c,mexican,13 or older,"no, only English or Spanish",no,2025-07-22_20h52.07.555,empathy_intonation_perc,2024.2.4,Win32,48.54368932,67dd4210d92f4c3aac8d944c,687ed1b7e638a4cbf2f02089,688031c78502cde679798f48,,,,,,,,,,,,,32,1,,./stim/wavs/cuban_mismatch_interrogative-total-yn_Mi-madre-come-la-fruta.wav,,,,,,,,,,,,,,,,,,,,,,315.2468,317.4736,0,0,1.6987,,0,44,44,31,1,1,cuban,,,,,,,,,,,,,,,,,,,,,,,,,,,,,,,,,,,,,,,,,,,,,,,,,,,,,,,,
,,,,,,,,,67dd4210d92f4c3aac8d944c,mexican,13 or older,"no, only English or Spanish",no,2025-07-22_20h52.07.555,empathy_intonation_perc,2024.2.4,Win32,48.54368932,67dd4210d92f4c3aac8d944c,687ed1b7e638a4cbf2f02089,688031c78502cde679798f48,,,,,,,,,,,,,87,0,,./stim/wavs/puertorican_mismatch_declarative-broad-focus_La-maestra-vive-en-Paris.wav,,,,,,,,,,,,,,,,,,,,,,317.4751,319.7866,0,1,1.7783,,0,45,45,86,1,0,puertorican,,,,,,,,,,,,,,,,,,,,,,,,,,,,,,,,,,,,,,,,,,,,,,,,,,,,,,,,
,,,,,,,,,67dd4210d92f4c3aac8d944c,mexican,13 or older,"no, only English or Spanish",no,2025-07-22_20h52.07.555,empathy_intonation_perc,2024.2.4,Win32,48.54368932,67dd4210d92f4c3aac8d944c,687ed1b7e638a4cbf2f02089,688031c78502cde679798f48,,,,,,,,,,,,,82,0,,./stim/wavs/mexican_mismatch_declarative-broad-focus_Mi-novio-viene-del-lago.wav,,,,,,,,,,,,,,,,,,,,,,319.7879,321.9535,0,1,1.6346,,0,46,46,81,1,0,mexican,,,,,,,,,,,,,,,,,,,,,,,,,,,,,,,,,,,,,,,,,,,,,,,,,,,,,,,,
,,,,,,,,,67dd4210d92f4c3aac8d944c,mexican,13 or older,"no, only English or Spanish",no,2025-07-22_20h52.07.555,empathy_intonation_perc,2024.2.4,Win32,48.54368932,67dd4210d92f4c3aac8d944c,687ed1b7e638a4cbf2f02089,688031c78502cde679798f48,,,,,,,,,,,,,35,1,,./stim/wavs/mexican_mismatch_interrogative-total-yn_El-hombre-mira-la-luna.wav,,,,,,,,,,,,,,,,,,,,,,321.9549,323.8502,1,1,1.3686,,0,47,47,34,1,0,mexican,,,,,,,,,,,,,,,,,,,,,,,,,,,,,,,,,,,,,,,,,,,,,,,,,,,,,,,,
,,,,,,,,,67dd4210d92f4c3aac8d944c,mexican,13 or older,"no, only English or Spanish",no,2025-07-22_20h52.07.555,empathy_intonation_perc,2024.2.4,Win32,48.54368932,67dd4210d92f4c3aac8d944c,687ed1b7e638a4cbf2f02089,688031c78502cde679798f48,,,,,,,,,,,,,11,1,,./stim/wavs/cuban_match_interrogative-total-yn_Mariano-habla-del-tiempo.wav,,,,,,,,,,,,,,,,,,,,,,323.852,325.9533,0,0,1.5626,,0,48,48,10,1,1,cuban,,,,,,,,,,,,,,,,,,,,,,,,,,,,,,,,,,,,,,,,,,,,,,,,,,,,,,,,
,,,,,,,,,67dd4210d92f4c3aac8d944c,mexican,13 or older,"no, only English or Spanish",no,2025-07-22_20h52.07.555,empathy_intonation_perc,2024.2.4,Win32,48.54368932,67dd4210d92f4c3aac8d944c,687ed1b7e638a4cbf2f02089,688031c78502cde679798f48,,,,,,,,,,,,,67,0,,./stim/wavs/puertorican_match_declarative-broad-focus_Manuela-vende-el-carro.wav,,,,,,,,,,,,,,,,,,,,,,325.955,328.2861,0,1,1.7959,,0,49,49,66,1,0,puertorican,,,,,,,,,,,,,,,,,,,,,,,,,,,,,,,,,,,,,,,,,,,,,,,,,,,,,,,,
,,,,,,,,,67dd4210d92f4c3aac8d944c,mexican,13 or older,"no, only English or Spanish",no,2025-07-22_20h52.07.555,empathy_intonation_perc,2024.2.4,Win32,48.54368932,67dd4210d92f4c3aac8d944c,687ed1b7e638a4cbf2f02089,688031c78502cde679798f48,,,,,,,,,,,,,56,0,,./stim/wavs/cuban_match_declarative-broad-focus_Marta-abre-el-regalo.wav,,,,,,,,,,,,,,,,,,,,,,328.2875,330.6405,0,1,1.8144,,0,50,50,55,1,0,cuban,,,,,,,,,,,,,,,,,,,,,,,,,,,,,,,,,,,,,,,,,,,,,,,,,,,,,,,,
,,,,,,,,,67dd4210d92f4c3aac8d944c,mexican,13 or older,"no, only English or Spanish",no,2025-07-22_20h52.07.555,empathy_intonation_perc,2024.2.4,Win32,48.54368932,67dd4210d92f4c3aac8d944c,687ed1b7e638a4cbf2f02089,688031c78502cde679798f48,,,,,,,,,,,,,53,0,,./stim/wavs/cuban_match_declarative-broad-focus_Manuela-vende-el-carro.wav,,,,,,,,,,,,,,,,,,,,,,330.6425,332.8702,0,1,1.6966,,0,51,51,52,1,0,cuban,,,,,,,,,,,,,,,,,,,,,,,,,,,,,,,,,,,,,,,,,,,,,,,,,,,,,,,,
,,,,,,,,,67dd4210d92f4c3aac8d944c,mexican,13 or older,"no, only English or Spanish",no,2025-07-22_20h52.07.555,empathy_intonation_perc,2024.2.4,Win32,48.54368932,67dd4210d92f4c3aac8d944c,687ed1b7e638a4cbf2f02089,688031c78502cde679798f48,,,,,,,,,,,,,48,0,,./stim/wavs/castilian_match_declarative-broad-focus_Maria-bebe-el-vino.wav,,,,,,,,,,,,,,,,,,,,,,332.8718,335.0165,1,0,1.5879,,0,52,52,47,1,0,castilian,,,,,,,,,,,,,,,,,,,,,,,,,,,,,,,,,,,,,,,,,,,,,,,,,,,,,,,,
,,,,,,,,,67dd4210d92f4c3aac8d944c,mexican,13 or older,"no, only English or Spanish",no,2025-07-22_20h52.07.555,empathy_intonation_perc,2024.2.4,Win32,48.54368932,67dd4210d92f4c3aac8d944c,687ed1b7e638a4cbf2f02089,688031c78502cde679798f48,,,,,,,,,,,,,57,0,,./stim/wavs/mexican_match_declarative-broad-focus_Ana-lleva-el-abrigo.wav,,,,,,,,,,,,,,,,,,,,,,335.0182,336.9321,0,1,1.3833,,0,53,53,56,1,0,mexican,,,,,,,,,,,,,,,,,,,,,,,,,,,,,,,,,,,,,,,,,,,,,,,,,,,,,,,,
,,,,,,,,,67dd4210d92f4c3aac8d944c,mexican,13 or older,"no, only English or Spanish",no,2025-07-22_20h52.07.555,empathy_intonation_perc,2024.2.4,Win32,48.54368932,67dd4210d92f4c3aac8d944c,687ed1b7e638a4cbf2f02089,688031c78502cde679798f48,,,,,,,,,,,,,30,1,,./stim/wavs/cuban_mismatch_interrogative-total-yn_El-hombre-mira-la-luna.wav,,,,,,,,,,,,,,,,,,,,,,336.9339,339.0153,0,0,1.5535,,0,54,54,29,1,1,cuban,,,,,,,,,,,,,,,,,,,,,,,,,,,,,,,,,,,,,,,,,,,,,,,,,,,,,,,,
,,,,,,,,,67dd4210d92f4c3aac8d944c,mexican,13 or older,"no, only English or Spanish",no,2025-07-22_20h52.07.555,empathy_intonation_perc,2024.2.4,Win32,48.54368932,67dd4210d92f4c3aac8d944c,687ed1b7e638a4cbf2f02089,688031c78502cde679798f48,,,,,,,,,,,,,26,1,,./stim/wavs/castilian_mismatch_interrogative-total-yn_La-nina-lava-el-plato.wav,,,,,,,,,,,,,,,,,,,,,,339.0166,341.1202,1,1,1.5637,,0,55,55,25,1,0,castilian,,,,,,,,,,,,,,,,,,,,,,,,,,,,,,,,,,,,,,,,,,,,,,,,,,,,,,,,
,,,,,,,,,67dd4210d92f4c3aac8d944c,mexican,13 or older,"no, only English or Spanish",no,2025-07-22_20h52.07.555,empathy_intonation_perc,2024.2.4,Win32,48.54368932,67dd4210d92f4c3aac8d944c,687ed1b7e638a4cbf2f02089,688031c78502cde679798f48,,,,,,,,,,,,,55,0,,./stim/wavs/cuban_match_declarative-broad-focus_Mariano-habla-del-tiempo.wav,,,,,,,,,,,,,,,,,,,,,,341.1219,343.5371,0,1,1.8778,,0,56,56,54,1,0,cuban,,,,,,,,,,,,,,,,,,,,,,,,,,,,,,,,,,,,,,,,,,,,,,,,,,,,,,,,
,,,,,,,,,67dd4210d92f4c3aac8d944c,mexican,13 or older,"no, only English or Spanish",no,2025-07-22_20h52.07.555,empathy_intonation_perc,2024.2.4,Win32,48.54368932,67dd4210d92f4c3aac8d944c,687ed1b7e638a4cbf2f02089,688031c78502cde679798f48,,,,,,,,,,,,,34,1,,./stim/wavs/cuban_mismatch_interrogative-total-yn_Mi-tia-odia-la-lluvia.wav,,,,,,,,,,,,,,,,,,,,,,343.5389,345.8282,0,0,1.7498,,0,57,57,33,1,1,cuban,,,,,,,,,,,,,,,,,,,,,,,,,,,,,,,,,,,,,,,,,,,,,,,,,,,,,,,,
,,,,,,,,,67dd4210d92f4c3aac8d944c,mexican,13 or older,"no, only English or Spanish",no,2025-07-22_20h52.07.555,empathy_intonation_perc,2024.2.4,Win32,48.54368932,67dd4210d92f4c3aac8d944c,687ed1b7e638a4cbf2f02089,688031c78502cde679798f48,,,,,,,,,,,,,65,0,,./stim/wavs/puertorican_match_declarative-broad-focus_David-leia-el-libro.wav,,,,,,,,,,,,,,,,,,,,,,345.831,347.9535,0,1,1.5889,,0,58,58,64,1,0,puertorican,,,,,,,,,,,,,,,,,,,,,,,,,,,,,,,,,,,,,,,,,,,,,,,,,,,,,,,,
,,,,,,,,,67dd4210d92f4c3aac8d944c,mexican,13 or older,"no, only English or Spanish",no,2025-07-22_20h52.07.555,empathy_intonation_perc,2024.2.4,Win32,48.54368932,67dd4210d92f4c3aac8d944c,687ed1b7e638a4cbf2f02089,688031c78502cde679798f48,,,,,,,,,,,,,51,0,,./stim/wavs/cuban_match_declarative-broad-focus_Ana-lleva-el-abrigo.wav,,,,,,,,,,,,,,,,,,,,,,347.955,350.3281,0,1,1.8353,,0,59,59,50,1,0,cuban,,,,,,,,,,,,,,,,,,,,,,,,,,,,,,,,,,,,,,,,,,,,,,,,,,,,,,,,
,,,,,,,,,67dd4210d92f4c3aac8d944c,mexican,13 or older,"no, only English or Spanish",no,2025-07-22_20h52.07.555,empathy_intonation_perc,2024.2.4,Win32,48.54368932,67dd4210d92f4c3aac8d944c,687ed1b7e638a4cbf2f02089,688031c78502cde679798f48,,,,,,,,,,,,,62,0,,./stim/wavs/mexican_match_declarative-broad-focus_Marta-abre-el-regalo.wav,,,,,,,,,,,,,,,,,,,,,,350.3296,352.5568,0,1,1.6886,,0,60,60,61,1,0,mexican,,,,,,,,,,,,,,,,,,,,,,,,,,,,,,,,,,,,,,,,,,,,,,,,,,,,,,,,
,,,,,,,,,67dd4210d92f4c3aac8d944c,mexican,13 or older,"no, only English or Spanish",no,2025-07-22_20h52.07.555,empathy_intonation_perc,2024.2.4,Win32,48.54368932,67dd4210d92f4c3aac8d944c,687ed1b7e638a4cbf2f02089,688031c78502cde679798f48,,,,,,,,,,,,,38,1,,./stim/wavs/mexican_mismatch_interrogative-total-yn_Mi-novio-viene-del-lago.wav,,,,,,,,,,,,,,,,,,,,,,352.5581,354.6196,1,1,1.5249,,0,61,61,37,1,0,mexican,,,,,,,,,,,,,,,,,,,,,,,,,,,,,,,,,,,,,,,,,,,,,,,,,,,,,,,,
,,,,,,,,,67dd4210d92f4c3aac8d944c,mexican,13 or older,"no, only English or Spanish",no,2025-07-22_20h52.07.555,empathy_intonation_perc,2024.2.4,Win32,48.54368932,67dd4210d92f4c3aac8d944c,687ed1b7e638a4cbf2f02089,688031c78502cde679798f48,,,,,,,,,,,,,61,0,,./stim/wavs/mexican_match_declarative-broad-focus_Mariano-habla-del-tiempo.wav,,,,,,,,,,,,,,,,,,,,,,354.6213,356.8288,0,1,1.6709,,0,62,62,60,1,0,mexican,,,,,,,,,,,,,,,,,,,,,,,,,,,,,,,,,,,,,,,,,,,,,,,,,,,,,,,,
,,,,,,,,,67dd4210d92f4c3aac8d944c,mexican,13 or older,"no, only English or Spanish",no,2025-07-22_20h52.07.555,empathy_intonation_perc,2024.2.4,Win32,48.54368932,67dd4210d92f4c3aac8d944c,687ed1b7e638a4cbf2f02089,688031c78502cde679798f48,,,,,,,,,,,,,17,1,,./stim/wavs/mexican_match_interrogative-total-yn_Mariano-habla-del-tiempo.wav,,,,,,,,,,,,,,,,,,,,,,356.831,359.1202,1,1,1.7381,,0,63,63,16,1,0,mexican,,,,,,,,,,,,,,,,,,,,,,,,,,,,,,,,,,,,,,,,,,,,,,,,,,,,,,,,
,,,,,,,,,67dd4210d92f4c3aac8d944c,mexican,13 or older,"no, only English or Spanish",no,2025-07-22_20h52.07.555,empathy_intonation_perc,2024.2.4,Win32,48.54368932,67dd4210d92f4c3aac8d944c,687ed1b7e638a4cbf2f02089,688031c78502cde679798f48,,,,,,,,,,,,,24,1,,./stim/wavs/puertorican_match_interrogative-total-yn_Maria-bebe-el-vino.wav,,,,,,,,,,,,,,,,,,,,,,359.1221,361.1405,0,0,1.4844,,0,64,64,23,1,1,puertorican,,,,,,,,,,,,,,,,,,,,,,,,,,,,,,,,,,,,,,,,,,,,,,,,,,,,,,,,
,,,,,,,,,67dd4210d92f4c3aac8d944c,mexican,13 or older,"no, only English or Spanish",no,2025-07-22_20h52.07.555,empathy_intonation_perc,2024.2.4,Win32,48.54368932,67dd4210d92f4c3aac8d944c,687ed1b7e638a4cbf2f02089,688031c78502cde679798f48,,,,,,,,,,,,,23,1,,./stim/wavs/puertorican_match_interrogative-total-yn_Manuela-vende-el-carro.wav,,,,,,,,,,,,,,,,,,,,,,361.1426,363.6615,1,1,1.9913,,0,65,65,22,1,1,puertorican,,,,,,,,,,,,,,,,,,,,,,,,,,,,,,,,,,,,,,,,,,,,,,,,,,,,,,,,
,,,,,,,,,67dd4210d92f4c3aac8d944c,mexican,13 or older,"no, only English or Spanish",no,2025-07-22_20h52.07.555,empathy_intonation_perc,2024.2.4,Win32,48.54368932,67dd4210d92f4c3aac8d944c,687ed1b7e638a4cbf2f02089,688031c78502cde679798f48,,,,,,,,,,,,,7,1,,./stim/wavs/cuban_match_interrogative-total-yn_Ana-lleva-el-abrigo.wav,,,,,,,,,,,,,,,,,,,,,,363.6635,365.9113,0,0,1.7082,,0,66,66,6,1,1,cuban,,,,,,,,,,,,,,,,,,,,,,,,,,,,,,,,,,,,,,,,,,,,,,,,,,,,,,,,
,,,,,,,,,67dd4210d92f4c3aac8d944c,mexican,13 or older,"no, only English or Spanish",no,2025-07-22_20h52.07.555,empathy_intonation_perc,2024.2.4,Win32,48.54368932,67dd4210d92f4c3aac8d944c,687ed1b7e638a4cbf2f02089,688031c78502cde679798f48,,,,,,,,,,,,,59,0,,./stim/wavs/mexican_match_declarative-broad-focus_David-leia-el-libro.wav,,,,,,,,,,,,,,,,,,,,,,365.9132,367.9743,0,1,1.5216,,0,67,67,58,1,0,mexican,,,,,,,,,,,,,,,,,,,,,,,,,,,,,,,,,,,,,,,,,,,,,,,,,,,,,,,,
,,,,,,,,,67dd4210d92f4c3aac8d944c,mexican,13 or older,"no, only English or Spanish",no,2025-07-22_20h52.07.555,empathy_intonation_perc,2024.2.4,Win32,48.54368932,67dd4210d92f4c3aac8d944c,687ed1b7e638a4cbf2f02089,688031c78502cde679798f48,,,,,,,,,,,,,81,0,,./stim/wavs/mexican_mismatch_declarative-broad-focus_La-maestra-vive-en-Paris.wav,,,,,,,,,,,,,,,,,,,,,,367.9764,370.5788,0,1,2.0646,,0,68,68,80,1,0,mexican,,,,,,,,,,,,,,,,,,,,,,,,,,,,,,,,,,,,,,,,,,,,,,,,,,,,,,,,
,,,,,,,,,67dd4210d92f4c3aac8d944c,mexican,13 or older,"no, only English or Spanish",no,2025-07-22_20h52.07.555,empathy_intonation_perc,2024.2.4,Win32,48.54368932,67dd4210d92f4c3aac8d944c,687ed1b7e638a4cbf2f02089,688031c78502cde679798f48,,,,,,,,,,,,,72,0,,./stim/wavs/castilian_mismatch_declarative-broad-focus_Mi-novio-viene-del-lago.wav,,,,,,,,,,,,,,,,,,,,,,370.581,372.8072,1,0,1.7003,,0,69,69,71,1,0,castilian,,,,,,,,,,,,,,,,,,,,,,,,,,,,,,,,,,,,,,,,,,,,,,,,,,,,,,,,
,,,,,,,,,67dd4210d92f4c3aac8d944c,mexican,13 or older,"no, only English or Spanish",no,2025-07-22_20h52.07.555,empathy_intonation_perc,2024.2.4,Win32,48.54368932,67dd4210d92f4c3aac8d944c,687ed1b7e638a4cbf2f02089,688031c78502cde679798f48,,,,,,,,,,,,,70,0,,./stim/wavs/castilian_mismatch_declarative-broad-focus_La-maestra-vive-en-Paris.wav,,,,,,,,,,,,,,,,,,,,,,372.8095,375.203,0,1,1.8356,,0,70,70,69,1,0,castilian,,,,,,,,,,,,,,,,,,,,,,,,,,,,,,,,,,,,,,,,,,,,,,,,,,,,,,,,
,,,,,,,,,67dd4210d92f4c3aac8d944c,mexican,13 or older,"no, only English or Spanish",no,2025-07-22_20h52.07.555,empathy_intonation_perc,2024.2.4,Win32,48.54368932,67dd4210d92f4c3aac8d944c,687ed1b7e638a4cbf2f02089,688031c78502cde679798f48,,,,,,,,,,,,,21,1,,./stim/wavs/puertorican_match_interrogative-total-yn_David-leia-el-libro.wav,,,,,,,,,,,,,,,,,,,,,,375.2046,377.2651,0,0,1.5313,,0,71,71,20,1,1,puertorican,,,,,,,,,,,,,,,,,,,,,,,,,,,,,,,,,,,,,,,,,,,,,,,,,,,,,,,,
,,,,,,,,,67dd4210d92f4c3aac8d944c,mexican,13 or older,"no, only English or Spanish",no,2025-07-22_20h52.07.555,empathy_intonation_perc,2024.2.4,Win32,48.54368932,67dd4210d92f4c3aac8d944c,687ed1b7e638a4cbf2f02089,688031c78502cde679798f48,,,,,,,,,,,,,45,0,,./stim/wavs/castilian_match_declarative-broad-focus_David-leia-el-libro.wav,,,,,,,,,,,,,,,,,,,,,,377.2669,379.6825,0,1,1.8772,,0,72,72,44,1,0,castilian,,,,,,,,,,,,,,,,,,,,,,,,,,,,,,,,,,,,,,,,,,,,,,,,,,,,,,,,
,,,,,,,,,67dd4210d92f4c3aac8d944c,mexican,13 or older,"no, only English or Spanish",no,2025-07-22_20h52.07.555,empathy_intonation_perc,2024.2.4,Win32,48.54368932,67dd4210d92f4c3aac8d944c,687ed1b7e638a4cbf2f02089,688031c78502cde679798f48,,,,,,,,,,,,,79,0,,./stim/wavs/mexican_mismatch_declarative-broad-focus_El-bebe-comia-muy-bien.wav,,,,,,,,,,,,,,,,,,,,,,379.6845,382.3907,1,0,2.179,,0,73,73,78,1,0,mexican,,,,,,,,,,,,,,,,,,,,,,,,,,,,,,,,,,,,,,,,,,,,,,,,,,,,,,,,
,,,,,,,,,67dd4210d92f4c3aac8d944c,mexican,13 or older,"no, only English or Spanish",no,2025-07-22_20h52.07.555,empathy_intonation_perc,2024.2.4,Win32,48.54368932,67dd4210d92f4c3aac8d944c,687ed1b7e638a4cbf2f02089,688031c78502cde679798f48,,,,,,,,,,,,,47,0,,./stim/wavs/castilian_match_declarative-broad-focus_Manuela-vende-el-carro.wav,,,,,,,,,,,,,,,,,,,,,,382.3924,384.6824,0,1,1.7599,,0,74,74,46,1,0,castilian,,,,,,,,,,,,,,,,,,,,,,,,,,,,,,,,,,,,,,,,,,,,,,,,,,,,,,,,
,,,,,,,,,67dd4210d92f4c3aac8d944c,mexican,13 or older,"no, only English or Spanish",no,2025-07-22_20h52.07.555,empathy_intonation_perc,2024.2.4,Win32,48.54368932,67dd4210d92f4c3aac8d944c,687ed1b7e638a4cbf2f02089,688031c78502cde679798f48,,,,,,,,,,,,,71,0,,./stim/wavs/castilian_mismatch_declarative-broad-focus_La-nina-lava-el-plato.wav,,,,,,,,,,,,,,,,,,,,,,384.684,386.87,1,0,1.6583,,0,75,75,70,1,0,castilian,,,,,,,,,,,,,,,,,,,,,,,,,,,,,,,,,,,,,,,,,,,,,,,,,,,,,,,,
,,,,,,,,,67dd4210d92f4c3aac8d944c,mexican,13 or older,"no, only English or Spanish",no,2025-07-22_20h52.07.555,empathy_intonation_perc,2024.2.4,Win32,48.54368932,67dd4210d92f4c3aac8d944c,687ed1b7e638a4cbf2f02089,688031c78502cde679798f48,,,,,,,,,,,,,19,1,,./stim/wavs/puertorican_match_interrogative-total-yn_Ana-lleva-el-abrigo.wav,,,,,,,,,,,,,,,,,,,,,,386.8727,388.8487,0,0,1.4384,,0,76,76,18,1,1,puertorican,,,,,,,,,,,,,,,,,,,,,,,,,,,,,,,,,,,,,,,,,,,,,,,,,,,,,,,,
,,,,,,,,,67dd4210d92f4c3aac8d944c,mexican,13 or older,"no, only English or Spanish",no,2025-07-22_20h52.07.555,empathy_intonation_perc,2024.2.4,Win32,48.54368932,67dd4210d92f4c3aac8d944c,687ed1b7e638a4cbf2f02089,688031c78502cde679798f48,,,,,,,,,,,,,77,0,,./stim/wavs/cuban_mismatch_declarative-broad-focus_Mi-novio-viene-del-lago.wav,,,,,,,,,,,,,,,,,,,,,,388.8499,391.1823,0,1,1.7933,,0,77,77,76,1,0,cuban,,,,,,,,,,,,,,,,,,,,,,,,,,,,,,,,,,,,,,,,,,,,,,,,,,,,,,,,
,,,,,,,,,67dd4210d92f4c3aac8d944c,mexican,13 or older,"no, only English or Spanish",no,2025-07-22_20h52.07.555,empathy_intonation_perc,2024.2.4,Win32,48.54368932,67dd4210d92f4c3aac8d944c,687ed1b7e638a4cbf2f02089,688031c78502cde679798f48,,,,,,,,,,,,,9,1,,./stim/wavs/cuban_match_interrogative-total-yn_Manuela-vende-el-carro.wav,,,,,,,,,,,,,,,,,,,,,,391.1838,393.4944,0,0,1.7793,,0,78,78,8,1,1,cuban,,,,,,,,,,,,,,,,,,,,,,,,,,,,,,,,,,,,,,,,,,,,,,,,,,,,,,,,
,,,,,,,,,67dd4210d92f4c3aac8d944c,mexican,13 or older,"no, only English or Spanish",no,2025-07-22_20h52.07.555,empathy_intonation_perc,2024.2.4,Win32,48.54368932,67dd4210d92f4c3aac8d944c,687ed1b7e638a4cbf2f02089,688031c78502cde679798f48,,,,,,,,,,,,,58,0,,./stim/wavs/mexican_match_declarative-broad-focus_Daniel-iba-a-Bolivia.wav,,,,,,,,,,,,,,,,,,,,,,393.4957,396.1204,0,1,2.09,,0,79,79,57,1,0,mexican,,,,,,,,,,,,,,,,,,,,,,,,,,,,,,,,,,,,,,,,,,,,,,,,,,,,,,,,
,,,,,,,,,67dd4210d92f4c3aac8d944c,mexican,13 or older,"no, only English or Spanish",no,2025-07-22_20h52.07.555,empathy_intonation_perc,2024.2.4,Win32,48.54368932,67dd4210d92f4c3aac8d944c,687ed1b7e638a4cbf2f02089,688031c78502cde679798f48,,,,,,,,,,,,,74,0,,./stim/wavs/cuban_mismatch_declarative-broad-focus_El-bebe-comia-muy-bien.wav,,,,,,,,,,,,,,,,,,,,,,396.1224,398.4948,1,0,1.8415,,0,80,80,73,1,0,cuban,,,,,,,,,,,,,,,,,,,,,,,,,,,,,,,,,,,,,,,,,,,,,,,,,,,,,,,,
,,,,,,,,,67dd4210d92f4c3aac8d944c,mexican,13 or older,"no, only English or Spanish",no,2025-07-22_20h52.07.555,empathy_intonation_perc,2024.2.4,Win32,48.54368932,67dd4210d92f4c3aac8d944c,687ed1b7e638a4cbf2f02089,688031c78502cde679798f48,,,,,,,,,,,,,83,0,,./stim/wavs/mexican_mismatch_declarative-broad-focus_Mi-tia-odia-la-lluvia.wav,,,,,,,,,,,,,,,,,,,,,,398.4967,400.7068,0,1,1.6832,,0,81,81,82,1,0,mexican,,,,,,,,,,,,,,,,,,,,,,,,,,,,,,,,,,,,,,,,,,,,,,,,,,,,,,,,
,,,,,,,,,67dd4210d92f4c3aac8d944c,mexican,13 or older,"no, only English or Spanish",no,2025-07-22_20h52.07.555,empathy_intonation_perc,2024.2.4,Win32,48.54368932,67dd4210d92f4c3aac8d944c,687ed1b7e638a4cbf2f02089,688031c78502cde679798f48,,,,,,,,,,,,,6,1,,./stim/wavs/castilian_match_interrogative-total-yn_Marta-abre-el-regalo.wav,,,,,,,,,,,,,,,,,,,,,,400.7079,402.8489,1,1,1.6069,,0,82,82,5,1,0,castilian,,,,,,,,,,,,,,,,,,,,,,,,,,,,,,,,,,,,,,,,,,,,,,,,,,,,,,,,
,,,,,,,,,67dd4210d92f4c3aac8d944c,mexican,13 or older,"no, only English or Spanish",no,2025-07-22_20h52.07.555,empathy_intonation_perc,2024.2.4,Win32,48.54368932,67dd4210d92f4c3aac8d944c,687ed1b7e638a4cbf2f02089,688031c78502cde679798f48,,,,,,,,,,,,,50,0,,./stim/wavs/castilian_match_declarative-broad-focus_Marta-abre-el-regalo.wav,,,,,,,,,,,,,,,,,,,,,,402.8502,405.3076,0,1,1.9166,,0,83,83,49,1,0,castilian,,,,,,,,,,,,,,,,,,,,,,,,,,,,,,,,,,,,,,,,,,,,,,,,,,,,,,,,
,,,,,,,,,67dd4210d92f4c3aac8d944c,mexican,13 or older,"no, only English or Spanish",no,2025-07-22_20h52.07.555,empathy_intonation_perc,2024.2.4,Win32,48.54368932,67dd4210d92f4c3aac8d944c,687ed1b7e638a4cbf2f02089,688031c78502cde679798f48,,,,,,,,,,,,,60,0,,./stim/wavs/mexican_match_declarative-broad-focus_Emilio-ama-la-marcha.wav,,,,,,,,,,,,,,,,,,,,,,405.3102,407.8069,1,0,1.9696,,0,84,84,59,1,0,mexican,,,,,,,,,,,,,,,,,,,,,,,,,,,,,,,,,,,,,,,,,,,,,,,,,,,,,,,,
,,,,,,,,,67dd4210d92f4c3aac8d944c,mexican,13 or older,"no, only English or Spanish",no,2025-07-22_20h52.07.555,empathy_intonation_perc,2024.2.4,Win32,48.54368932,67dd4210d92f4c3aac8d944c,687ed1b7e638a4cbf2f02089,688031c78502cde679798f48,,,,,,,,,,,,,43,1,,./stim/wavs/puertorican_mismatch_interrogative-total-yn_La-nina-lava-el-plato.wav,,,,,,,,,,,,,,,,,,,,,,407.8097,409.8283,1,1,1.4794,,0,85,85,42,1,1,puertorican,,,,,,,,,,,,,,,,,,,,,,,,,,,,,,,,,,,,,,,,,,,,,,,,,,,,,,,,
,,,,,,,,,67dd4210d92f4c3aac8d944c,mexican,13 or older,"no, only English or Spanish",no,2025-07-22_20h52.07.555,empathy_intonation_perc,2024.2.4,Win32,48.54368932,67dd4210d92f4c3aac8d944c,687ed1b7e638a4cbf2f02089,688031c78502cde679798f48,,,,,,,,,,,,,1,1,,./stim/wavs/castilian_match_interrogative-total-yn_David-leia-el-libro.wav,,,,,,,,,,,,,,,,,,,,,,409.8303,411.9532,1,1,1.5917,,0,86,86,0,1,0,castilian,,,,,,,,,,,,,,,,,,,,,,,,,,,,,,,,,,,,,,,,,,,,,,,,,,,,,,,,
,,,,,,,,,67dd4210d92f4c3aac8d944c,mexican,13 or older,"no, only English or Spanish",no,2025-07-22_20h52.07.555,empathy_intonation_perc,2024.2.4,Win32,48.54368932,67dd4210d92f4c3aac8d944c,687ed1b7e638a4cbf2f02089,688031c78502cde679798f48,,,,,,,,,,,,,78,0,,./stim/wavs/cuban_mismatch_declarative-broad-focus_Mi-tia-odia-la-lluvia.wav,,,,,,,,,,,,,,,,,,,,,,411.9548,414.2658,0,1,1.774,,0,87,87,77,1,0,cuban,,,,,,,,,,,,,,,,,,,,,,,,,,,,,,,,,,,,,,,,,,,,,,,,,,,,,,,,
,,,,,,,"Great! Now we will move on. The next task consists of about 60 trials, in each of which you will see a string of letters. 
  
  Your task is to decide whether this is a real Spanish word or not.", (press the spacebar to continue),67dd4210d92f4c3aac8d944c,mexican,13 or older,"no, only English or Spanish",no,2025-07-22_20h52.07.555,empathy_intonation_perc,2024.2.4,Win32,48.54368932,67dd4210d92f4c3aac8d944c,687ed1b7e638a4cbf2f02089,688031c78502cde679798f48,,,,,,,,,,,,,,,,,,,,,,,,,,,,,,,,,,,,,,,,,,,,,,,,,,,414.2849,426.183,0,0,0,0,1,,,,,,,,,,,,,,,,,,,,,,,,,,,,,,,,,,,,,,,,,,,,,,,,,
,,,,,,,"If you think it is an existing Spanish word, you type '1' (for 'REAL'), and if you think it is not an existing Spanish word, you type '0' (for 'FAKE').", (press the spacebar to continue),67dd4210d92f4c3aac8d944c,mexican,13 or older,"no, only English or Spanish",no,2025-07-22_20h52.07.555,empathy_intonation_perc,2024.2.4,Win32,48.54368932,67dd4210d92f4c3aac8d944c,687ed1b7e638a4cbf2f02089,688031c78502cde679798f48,,,,,,,,,,,,,,,,,,,,,,,,,,,,,,,,,,,,,,,,,,,,,,,,,,,426.1893,433.974,0,1,1,1,1,,,,,,,,,,,,,,,,,,,,,,,,,,,,,,,,,,,,,,,,,,,,,,,,,
,,,,,,,"If you are sure that the word exists, even though you don’t know its exact meaning, you may still respond '1' (REAL). 
  
  But if you are not sure if it is an existing word, you should respond '0' (FAKE).
  
  Let's do a practice round...", (press the spacebar to continue),67dd4210d92f4c3aac8d944c,mexican,13 or older,"no, only English or Spanish",no,2025-07-22_20h52.07.555,empathy_intonation_perc,2024.2.4,Win32,48.54368932,67dd4210d92f4c3aac8d944c,687ed1b7e638a4cbf2f02089,688031c78502cde679798f48,,,,,,,,,,,,,,,,,,,,,,,,,,,,,,,,,,,,,,,,,,,,,,,,,,,433.9801,441.7657,0,2,2,2,1,,,,,,,,,,,,,,,,,,,,,,,,,,,,,,,,,,,,,,,,,,,,,,,,,
,,,,,,,,,67dd4210d92f4c3aac8d944c,mexican,13 or older,"no, only English or Spanish",no,2025-07-22_20h52.07.555,empathy_intonation_perc,2024.2.4,Win32,48.54368932,67dd4210d92f4c3aac8d944c,687ed1b7e638a4cbf2f02089,688031c78502cde679798f48,,,,,,,,,,,,,,0,,,,,,,,,,,,,,,,,,,,,,,,,,,,,,,,,,,,,,,,,,,,441.7802,445.0588,1,0,2.7371,,445.0597,446.0574,0,0,0,0,1,0,depiste,REAL,FAKE,,,,,,,,,,,,,,,,,,,,,,,,,,,,,,,,
,,,,,,,,,67dd4210d92f4c3aac8d944c,mexican,13 or older,"no, only English or Spanish",no,2025-07-22_20h52.07.555,empathy_intonation_perc,2024.2.4,Win32,48.54368932,67dd4210d92f4c3aac8d944c,687ed1b7e638a4cbf2f02089,688031c78502cde679798f48,,,,,,,,,,,,,,1,,,,,,,,,,,,,,,,,,,,,,,,,,,,,,,,,,,,,,,,,,,,446.0613,448.2243,1,1,1.6141,,448.2262,449.2238,0,1,1,1,1,0,sí,REAL,FAKE,,,,,,,,,,,,,,,,,,,,,,,,,,,,,,,,
,,,,,,,,,67dd4210d92f4c3aac8d944c,mexican,13 or older,"no, only English or Spanish",no,2025-07-22_20h52.07.555,empathy_intonation_perc,2024.2.4,Win32,48.54368932,67dd4210d92f4c3aac8d944c,687ed1b7e638a4cbf2f02089,688031c78502cde679798f48,,,,,,,,,,,,,,0,,,,,,,,,,,,,,,,,,,,,,,,,,,,,,,,,,,,,,,,,,,,449.2269,451.453,0,1,1.671,,451.4531,452.453,0,2,2,2,1,0,coné,REAL,FAKE,,,,,,,,,,,,,,,,,,,,,,,,,,,,,,,,
,,,,,,,,,67dd4210d92f4c3aac8d944c,mexican,13 or older,"no, only English or Spanish",no,2025-07-22_20h52.07.555,empathy_intonation_perc,2024.2.4,Win32,48.54368932,67dd4210d92f4c3aac8d944c,687ed1b7e638a4cbf2f02089,688031c78502cde679798f48,,,,,,,,,,,,,,0,,,,,,,,,,,,,,,,,,,,,,,,,,,,,,,,,,,,,,,,,,,,452.4558,454.3696,1,0,1.3573,,454.3718,455.3694,0,3,3,3,1,0,calpar,REAL,FAKE,,,,,,,,,,,,,,,,,,,,,,,,,,,,,,,,
,,,,,,,,,67dd4210d92f4c3aac8d944c,mexican,13 or older,"no, only English or Spanish",no,2025-07-22_20h52.07.555,empathy_intonation_perc,2024.2.4,Win32,48.54368932,67dd4210d92f4c3aac8d944c,687ed1b7e638a4cbf2f02089,688031c78502cde679798f48,,,,,,,,,,,,,,0,,,,,,,,,,,,,,,,,,,,,,,,,,,,,,,,,,,,,,,,,,,,455.3724,457.0571,0,1,1.1295,,457.059,458.0569,0,4,4,4,1,0,joten,REAL,FAKE,,,,,,,,,,,,,,,,,,,,,,,,,,,,,,,,
,,,,,,,,,67dd4210d92f4c3aac8d944c,mexican,13 or older,"no, only English or Spanish",no,2025-07-22_20h52.07.555,empathy_intonation_perc,2024.2.4,Win32,48.54368932,67dd4210d92f4c3aac8d944c,687ed1b7e638a4cbf2f02089,688031c78502cde679798f48,,,,,,,,,,,,,,1,,,,,,,,,,,,,,,,,,,,,,,,,,,,,,,,,,,,,,,,,,,,458.0594,460.6198,1,1,2.0115,,460.6202,461.6199,0,5,5,5,1,0,sacapuntas,REAL,FAKE,,,,,,,,,,,,,,,,,,,,,,,,,,,,,,,,
,,,,,,,,,67dd4210d92f4c3aac8d944c,mexican,13 or older,"no, only English or Spanish",no,2025-07-22_20h52.07.555,empathy_intonation_perc,2024.2.4,Win32,48.54368932,67dd4210d92f4c3aac8d944c,687ed1b7e638a4cbf2f02089,688031c78502cde679798f48,,,,,,,,,,,,,,0,,,,,,,,,,,,,,,,,,,,,,,,,,,,,,,,,,,,,,,,,,,,461.6227,463.87,0,1,1.6898,,463.8701,464.8697,0,6,6,6,1,0,priba,REAL,FAKE,,,,,,,,,,,,,,,,,,,,,,,,,,,,,,,,
,,,,,,,,,67dd4210d92f4c3aac8d944c,mexican,13 or older,"no, only English or Spanish",no,2025-07-22_20h52.07.555,empathy_intonation_perc,2024.2.4,Win32,48.54368932,67dd4210d92f4c3aac8d944c,687ed1b7e638a4cbf2f02089,688031c78502cde679798f48,,,,,,,,,,,,,,0,,,,,,,,,,,,,,,,,,,,,,,,,,,,,,,,,,,,,,,,,,,,464.8724,467.2449,1,0,1.815,,467.2473,468.2446,0,7,7,7,1,0,pelasula,REAL,FAKE,,,,,,,,,,,,,,,,,,,,,,,,,,,,,,,,
,,,,,,,,,67dd4210d92f4c3aac8d944c,mexican,13 or older,"no, only English or Spanish",no,2025-07-22_20h52.07.555,empathy_intonation_perc,2024.2.4,Win32,48.54368932,67dd4210d92f4c3aac8d944c,687ed1b7e638a4cbf2f02089,688031c78502cde679798f48,,,,,,,,,,,,,,1,,,,,,,,,,,,,,,,,,,,,,,,,,,,,,,,,,,,,,,,,,,,468.2472,469.7868,1,1,0.9889,,469.7891,470.787,0,8,8,8,1,0,bien,REAL,FAKE,,,,,,,,,,,,,,,,,,,,,,,,,,,,,,,,
,,,,,,,,,67dd4210d92f4c3aac8d944c,mexican,13 or older,"no, only English or Spanish",no,2025-07-22_20h52.07.555,empathy_intonation_perc,2024.2.4,Win32,48.54368932,67dd4210d92f4c3aac8d944c,687ed1b7e638a4cbf2f02089,688031c78502cde679798f48,,,,,,,,,,,,,,1,,,,,,,,,,,,,,,,,,,,,,,,,,,,,,,,,,,,,,,,,,,,470.7905,472.2238,1,1,0.8774,,472.2239,473.2241,0,9,9,9,1,0,casa,REAL,FAKE,,,,,,,,,,,,,,,,,,,,,,,,,,,,,,,,
,,,,,,,,,67dd4210d92f4c3aac8d944c,mexican,13 or older,"no, only English or Spanish",no,2025-07-22_20h52.07.555,empathy_intonation_perc,2024.2.4,Win32,48.54368932,67dd4210d92f4c3aac8d944c,687ed1b7e638a4cbf2f02089,688031c78502cde679798f48,,,,,,,,,,,,,,0,,,,,,,,,,,,,,,,,,,,,,,,,,,,,,,,,,,,,,,,,,,,473.2267,474.8072,1,0,1.036,,474.8089,475.8074,0,10,10,10,1,0,lejo,REAL,FAKE,,,,,,,,,,,,,,,,,,,,,,,,,,,,,,,,
,,,,,,,,,67dd4210d92f4c3aac8d944c,mexican,13 or older,"no, only English or Spanish",no,2025-07-22_20h52.07.555,empathy_intonation_perc,2024.2.4,Win32,48.54368932,67dd4210d92f4c3aac8d944c,687ed1b7e638a4cbf2f02089,688031c78502cde679798f48,,,,,,,,,,,,,,0,,,,,,,,,,,,,,,,,,,,,,,,,,,,,,,,,,,,,,,,,,,,475.81,477.9322,0,1,1.5652,,477.9339,478.9322,0,11,11,11,1,0,pretantas,REAL,FAKE,,,,,,,,,,,,,,,,,,,,,,,,,,,,,,,,
,,,,,,,,,67dd4210d92f4c3aac8d944c,mexican,13 or older,"no, only English or Spanish",no,2025-07-22_20h52.07.555,empathy_intonation_perc,2024.2.4,Win32,48.54368932,67dd4210d92f4c3aac8d944c,687ed1b7e638a4cbf2f02089,688031c78502cde679798f48,,,,,,,,,,,,,,,,,,,,,,,,,,,,,,,,,,,,,,,,,,,,,,,,,,,,,,,,,,,,,,,,,,,,,,,,,,,478.9331,481.0366,,,,,,,,,,,,,,,,,,,,,,,,,,,,,,
,,,,,,,,,67dd4210d92f4c3aac8d944c,mexican,13 or older,"no, only English or Spanish",no,2025-07-22_20h52.07.555,empathy_intonation_perc,2024.2.4,Win32,48.54368932,67dd4210d92f4c3aac8d944c,687ed1b7e638a4cbf2f02089,688031c78502cde679798f48,,,,,,,,,,,,,,0,,,,,,,,,,,,,,,,,,,,,,,,,,,,,,,,,,,,,,,,,,,,,,,,,,,,,,,,,84,escuto,,,,,481.0655,483.1628,1,0,1.55,,0,0,0,83,1,REAL,FAKE,,,,,,,,,,,,,,,,,
,,,,,,,,,67dd4210d92f4c3aac8d944c,mexican,13 or older,"no, only English or Spanish",no,2025-07-22_20h52.07.555,empathy_intonation_perc,2024.2.4,Win32,48.54368932,67dd4210d92f4c3aac8d944c,687ed1b7e638a4cbf2f02089,688031c78502cde679798f48,,,,,,,,,,,,,,1,,,,,,,,,,,,,,,,,,,,,,,,,,,,,,,,,,,,,,,,,,,,,,,,,,,,,,,,,11,cenefa,,,,,483.1655,485.1197,0,0,1.402,,0,1,1,10,1,REAL,FAKE,,,,,,,,,,,,,,,,,
,,,,,,,,,67dd4210d92f4c3aac8d944c,mexican,13 or older,"no, only English or Spanish",no,2025-07-22_20h52.07.555,empathy_intonation_perc,2024.2.4,Win32,48.54368932,67dd4210d92f4c3aac8d944c,687ed1b7e638a4cbf2f02089,688031c78502cde679798f48,,,,,,,,,,,,,,1,,,,,,,,,,,,,,,,,,,,,,,,,,,,,,,,,,,,,,,,,,,,,,,,,,,,,,,,,48,ladrón,,,,,485.1237,487.2028,0,0,1.5235,,0,2,2,47,1,REAL,FAKE,,,,,,,,,,,,,,,,,
,,,,,,,,,67dd4210d92f4c3aac8d944c,mexican,13 or older,"no, only English or Spanish",no,2025-07-22_20h52.07.555,empathy_intonation_perc,2024.2.4,Win32,48.54368932,67dd4210d92f4c3aac8d944c,687ed1b7e638a4cbf2f02089,688031c78502cde679798f48,,,,,,,,,,,,,,0,,,,,,,,,,,,,,,,,,,,,,,,,,,,,,,,,,,,,,,,,,,,,,,,,,,,,,,,,33,pauca,,,,,487.2054,489.0362,1,0,1.2843,,0,3,3,32,1,REAL,FAKE,,,,,,,,,,,,,,,,,
,,,,,,,,,67dd4210d92f4c3aac8d944c,mexican,13 or older,"no, only English or Spanish",no,2025-07-22_20h52.07.555,empathy_intonation_perc,2024.2.4,Win32,48.54368932,67dd4210d92f4c3aac8d944c,687ed1b7e638a4cbf2f02089,688031c78502cde679798f48,,,,,,,,,,,,,,1,,,,,,,,,,,,,,,,,,,,,,,,,,,,,,,,,,,,,,,,,,,,,,,,,,,,,,,,,2,pellizcar,,,,,489.0399,491.2032,1,1,1.6133,,0,4,4,1,1,REAL,FAKE,,,,,,,,,,,,,,,,,
,,,,,,,,,67dd4210d92f4c3aac8d944c,mexican,13 or older,"no, only English or Spanish",no,2025-07-22_20h52.07.555,empathy_intonation_perc,2024.2.4,Win32,48.54368932,67dd4210d92f4c3aac8d944c,687ed1b7e638a4cbf2f02089,688031c78502cde679798f48,,,,,,,,,,,,,,1,,,,,,,,,,,,,,,,,,,,,,,,,,,,,,,,,,,,,,,,,,,,,,,,,,,,,,,,,39,torpe,,,,,491.2067,492.9322,0,0,1.1692,,0,5,5,38,1,REAL,FAKE,,,,,,,,,,,,,,,,,
,,,,,,,,,67dd4210d92f4c3aac8d944c,mexican,13 or older,"no, only English or Spanish",no,2025-07-22_20h52.07.555,empathy_intonation_perc,2024.2.4,Win32,48.54368932,67dd4210d92f4c3aac8d944c,687ed1b7e638a4cbf2f02089,688031c78502cde679798f48,,,,,,,,,,,,,,1,,,,,,,,,,,,,,,,,,,,,,,,,,,,,,,,,,,,,,,,,,,,,,,,,,,,,,,,,57,tacaño,,,,,492.9361,494.5993,1,1,1.1156,,0,6,6,56,1,REAL,FAKE,,,,,,,,,,,,,,,,,
,,,,,,,,,67dd4210d92f4c3aac8d944c,mexican,13 or older,"no, only English or Spanish",no,2025-07-22_20h52.07.555,empathy_intonation_perc,2024.2.4,Win32,48.54368932,67dd4210d92f4c3aac8d944c,687ed1b7e638a4cbf2f02089,688031c78502cde679798f48,,,,,,,,,,,,,,0,,,,,,,,,,,,,,,,,,,,,,,,,,,,,,,,,,,,,,,,,,,,,,,,,,,,,,,,,53,vegada,,,,,494.6047,497.0365,1,0,1.8855,,0,7,7,52,1,REAL,FAKE,,,,,,,,,,,,,,,,,
,,,,,,,,,67dd4210d92f4c3aac8d944c,mexican,13 or older,"no, only English or Spanish",no,2025-07-22_20h52.07.555,empathy_intonation_perc,2024.2.4,Win32,48.54368932,67dd4210d92f4c3aac8d944c,687ed1b7e638a4cbf2f02089,688031c78502cde679798f48,,,,,,,,,,,,,,1,,,,,,,,,,,,,,,,,,,,,,,,,,,,,,,,,,,,,,,,,,,,,,,,,,,,,,,,,43,canela,,,,,497.0394,498.6194,0,0,1.0357,,0,8,8,42,1,REAL,FAKE,,,,,,,,,,,,,,,,,
,,,,,,,,,67dd4210d92f4c3aac8d944c,mexican,13 or older,"no, only English or Spanish",no,2025-07-22_20h52.07.555,empathy_intonation_perc,2024.2.4,Win32,48.54368932,67dd4210d92f4c3aac8d944c,687ed1b7e638a4cbf2f02089,688031c78502cde679798f48,,,,,,,,,,,,,,1,,,,,,,,,,,,,,,,,,,,,,,,,,,,,,,,,,,,,,,,,,,,,,,,,,,,,,,,,20,ávido,,,,,498.6233,500.6401,1,1,1.4606,,0,9,9,19,1,REAL,FAKE,,,,,,,,,,,,,,,,,
,,,,,,,,,67dd4210d92f4c3aac8d944c,mexican,13 or older,"no, only English or Spanish",no,2025-07-22_20h52.07.555,empathy_intonation_perc,2024.2.4,Win32,48.54368932,67dd4210d92f4c3aac8d944c,687ed1b7e638a4cbf2f02089,688031c78502cde679798f48,,,,,,,,,,,,,,1,,,,,,,,,,,,,,,,,,,,,,,,,,,,,,,,,,,,,,,,,,,,,,,,,,,,,,,,,73,hervidor,,,,,500.6426,502.703,0,0,1.5088,,0,10,10,72,1,REAL,FAKE,,,,,,,,,,,,,,,,,
,,,,,,,,,67dd4210d92f4c3aac8d944c,mexican,13 or older,"no, only English or Spanish",no,2025-07-22_20h52.07.555,empathy_intonation_perc,2024.2.4,Win32,48.54368932,67dd4210d92f4c3aac8d944c,687ed1b7e638a4cbf2f02089,688031c78502cde679798f48,,,,,,,,,,,,,,0,,,,,,,,,,,,,,,,,,,,,,,,,,,,,,,,,,,,,,,,,,,,,,,,,,,,,,,,,32,fatacidad,,,,,502.7053,504.7446,0,1,1.4908,,0,11,11,31,1,REAL,FAKE,,,,,,,,,,,,,,,,,
,,,,,,,,,67dd4210d92f4c3aac8d944c,mexican,13 or older,"no, only English or Spanish",no,2025-07-22_20h52.07.555,empathy_intonation_perc,2024.2.4,Win32,48.54368932,67dd4210d92f4c3aac8d944c,687ed1b7e638a4cbf2f02089,688031c78502cde679798f48,,,,,,,,,,,,,,0,,,,,,,,,,,,,,,,,,,,,,,,,,,,,,,,,,,,,,,,,,,,,,,,,,,,,,,,,87,grodo,,,,,504.7471,506.8489,1,0,1.5448,,0,12,12,86,1,REAL,FAKE,,,,,,,,,,,,,,,,,
,,,,,,,,,67dd4210d92f4c3aac8d944c,mexican,13 or older,"no, only English or Spanish",no,2025-07-22_20h52.07.555,empathy_intonation_perc,2024.2.4,Win32,48.54368932,67dd4210d92f4c3aac8d944c,687ed1b7e638a4cbf2f02089,688031c78502cde679798f48,,,,,,,,,,,,,,1,,,,,,,,,,,,,,,,,,,,,,,,,,,,,,,,,,,,,,,,,,,,,,,,,,,,,,,,,71,polvoriento,,,,,506.8516,509.3903,0,0,1.9805,,0,13,13,70,1,REAL,FAKE,,,,,,,,,,,,,,,,,
,,,,,,,,,67dd4210d92f4c3aac8d944c,mexican,13 or older,"no, only English or Spanish",no,2025-07-22_20h52.07.555,empathy_intonation_perc,2024.2.4,Win32,48.54368932,67dd4210d92f4c3aac8d944c,687ed1b7e638a4cbf2f02089,688031c78502cde679798f48,,,,,,,,,,,,,,1,,,,,,,,,,,,,,,,,,,,,,,,,,,,,,,,,,,,,,,,,,,,,,,,,,,,,,,,,80,hormiga,,,,,509.3925,511.3286,0,0,1.3906,,0,14,14,79,1,REAL,FAKE,,,,,,,,,,,,,,,,,
,,,,,,,,,67dd4210d92f4c3aac8d944c,mexican,13 or older,"no, only English or Spanish",no,2025-07-22_20h52.07.555,empathy_intonation_perc,2024.2.4,Win32,48.54368932,67dd4210d92f4c3aac8d944c,687ed1b7e638a4cbf2f02089,688031c78502cde679798f48,,,,,,,,,,,,,,0,,,,,,,,,,,,,,,,,,,,,,,,,,,,,,,,,,,,,,,,,,,,,,,,,,,,,,,,,63,esposante,,,,,511.3312,513.0576,1,0,1.1689,,0,15,15,62,1,REAL,FAKE,,,,,,,,,,,,,,,,,
,,,,,,,,,67dd4210d92f4c3aac8d944c,mexican,13 or older,"no, only English or Spanish",no,2025-07-22_20h52.07.555,empathy_intonation_perc,2024.2.4,Win32,48.54368932,67dd4210d92f4c3aac8d944c,687ed1b7e638a4cbf2f02089,688031c78502cde679798f48,,,,,,,,,,,,,,1,,,,,,,,,,,,,,,,,,,,,,,,,,,,,,,,,,,,,,,,,,,,,,,,,,,,,,,,,34,aviso,,,,,513.0611,514.4946,0,0,0.8772,,0,16,16,33,1,REAL,FAKE,,,,,,,,,,,,,,,,,
,,,,,,,,,67dd4210d92f4c3aac8d944c,mexican,13 or older,"no, only English or Spanish",no,2025-07-22_20h52.07.555,empathy_intonation_perc,2024.2.4,Win32,48.54368932,67dd4210d92f4c3aac8d944c,687ed1b7e638a4cbf2f02089,688031c78502cde679798f48,,,,,,,,,,,,,,1,,,,,,,,,,,,,,,,,,,,,,,,,,,,,,,,,,,,,,,,,,,,,,,,,,,,,,,,,88,acantilado,,,,,514.4972,516.6415,1,1,1.5992,,0,17,17,87,1,REAL,FAKE,,,,,,,,,,,,,,,,,
,,,,,,,,,67dd4210d92f4c3aac8d944c,mexican,13 or older,"no, only English or Spanish",no,2025-07-22_20h52.07.555,empathy_intonation_perc,2024.2.4,Win32,48.54368932,67dd4210d92f4c3aac8d944c,687ed1b7e638a4cbf2f02089,688031c78502cde679798f48,,,,,,,,,,,,,,0,,,,,,,,,,,,,,,,,,,,,,,,,,,,,,,,,,,,,,,,,,,,,,,,,,,,,,,,,42,cadallo,,,,,516.6439,518.8071,1,0,1.6158,,0,18,18,41,1,REAL,FAKE,,,,,,,,,,,,,,,,,
,,,,,,,,,67dd4210d92f4c3aac8d944c,mexican,13 or older,"no, only English or Spanish",no,2025-07-22_20h52.07.555,empathy_intonation_perc,2024.2.4,Win32,48.54368932,67dd4210d92f4c3aac8d944c,687ed1b7e638a4cbf2f02089,688031c78502cde679798f48,,,,,,,,,,,,,,0,,,,,,,,,,,,,,,,,,,,,,,,,,,,,,,,,,,,,,,,,,,,,,,,,,,,,,,,,79,tropaje,,,,,518.8101,520.5776,0,1,1.2216,,0,19,19,78,1,REAL,FAKE,,,,,,,,,,,,,,,,,
,,,,,,,,,67dd4210d92f4c3aac8d944c,mexican,13 or older,"no, only English or Spanish",no,2025-07-22_20h52.07.555,empathy_intonation_perc,2024.2.4,Win32,48.54368932,67dd4210d92f4c3aac8d944c,687ed1b7e638a4cbf2f02089,688031c78502cde679798f48,,,,,,,,,,,,,,1,,,,,,,,,,,,,,,,,,,,,,,,,,,,,,,,,,,,,,,,,,,,,,,,,,,,,,,,,52,camisa,,,,,520.5809,522.4944,0,0,1.3568,,0,20,20,51,1,REAL,FAKE,,,,,,,,,,,,,,,,,
,,,,,,,,,67dd4210d92f4c3aac8d944c,mexican,13 or older,"no, only English or Spanish",no,2025-07-22_20h52.07.555,empathy_intonation_perc,2024.2.4,Win32,48.54368932,67dd4210d92f4c3aac8d944c,687ed1b7e638a4cbf2f02089,688031c78502cde679798f48,,,,,,,,,,,,,,0,,,,,,,,,,,,,,,,,,,,,,,,,,,,,,,,,,,,,,,,,,,,,,,,,,,,,,,,,19,brecedad,,,,,522.4969,524.7442,0,1,1.6896,,0,21,21,18,1,REAL,FAKE,,,,,,,,,,,,,,,,,
,,,,,,,,,67dd4210d92f4c3aac8d944c,mexican,13 or older,"no, only English or Spanish",no,2025-07-22_20h52.07.555,empathy_intonation_perc,2024.2.4,Win32,48.54368932,67dd4210d92f4c3aac8d944c,687ed1b7e638a4cbf2f02089,688031c78502cde679798f48,,,,,,,,,,,,,,1,,,,,,,,,,,,,,,,,,,,,,,,,,,,,,,,,,,,,,,,,,,,,,,,,,,,,,,,,61,seda,,,,,524.7464,526.8071,0,0,1.5112,,0,22,22,60,1,REAL,FAKE,,,,,,,,,,,,,,,,,
,,,,,,,,,67dd4210d92f4c3aac8d944c,mexican,13 or older,"no, only English or Spanish",no,2025-07-22_20h52.07.555,empathy_intonation_perc,2024.2.4,Win32,48.54368932,67dd4210d92f4c3aac8d944c,687ed1b7e638a4cbf2f02089,688031c78502cde679798f48,,,,,,,,,,,,,,0,,,,,,,,,,,,,,,,,,,,,,,,,,,,,,,,,,,,,,,,,,,,,,,,,,,,,,,,,35,rompido,,,,,526.8097,528.6824,0,1,1.3159,,0,23,23,34,1,REAL,FAKE,,,,,,,,,,,,,,,,,
,,,,,,,,,67dd4210d92f4c3aac8d944c,mexican,13 or older,"no, only English or Spanish",no,2025-07-22_20h52.07.555,empathy_intonation_perc,2024.2.4,Win32,48.54368932,67dd4210d92f4c3aac8d944c,687ed1b7e638a4cbf2f02089,688031c78502cde679798f48,,,,,,,,,,,,,,0,,,,,,,,,,,,,,,,,,,,,,,,,,,,,,,,,,,,,,,,,,,,,,,,,,,,,,,,,4,batillón,,,,,528.6851,530.2861,1,0,1.0448,,0,24,24,3,1,REAL,FAKE,,,,,,,,,,,,,,,,,
,,,,,,,,,67dd4210d92f4c3aac8d944c,mexican,13 or older,"no, only English or Spanish",no,2025-07-22_20h52.07.555,empathy_intonation_perc,2024.2.4,Win32,48.54368932,67dd4210d92f4c3aac8d944c,687ed1b7e638a4cbf2f02089,688031c78502cde679798f48,,,,,,,,,,,,,,1,,,,,,,,,,,,,,,,,,,,,,,,,,,,,,,,,,,,,,,,,,,,,,,,,,,,,,,,,65,bizcocho,,,,,530.289,532.3485,1,1,1.5023,,0,25,25,64,1,REAL,FAKE,,,,,,,,,,,,,,,,,
,,,,,,,,,67dd4210d92f4c3aac8d944c,mexican,13 or older,"no, only English or Spanish",no,2025-07-22_20h52.07.555,empathy_intonation_perc,2024.2.4,Win32,48.54368932,67dd4210d92f4c3aac8d944c,687ed1b7e638a4cbf2f02089,688031c78502cde679798f48,,,,,,,,,,,,,,1,,,,,,,,,,,,,,,,,,,,,,,,,,,,,,,,,,,,,,,,,,,,,,,,,,,,,,,,,90,clavel,,,,,532.3511,534.4111,0,0,1.5123,,0,26,26,89,1,REAL,FAKE,,,,,,,,,,,,,,,,,
,,,,,,,,,67dd4210d92f4c3aac8d944c,mexican,13 or older,"no, only English or Spanish",no,2025-07-22_20h52.07.555,empathy_intonation_perc,2024.2.4,Win32,48.54368932,67dd4210d92f4c3aac8d944c,687ed1b7e638a4cbf2f02089,688031c78502cde679798f48,,,,,,,,,,,,,,1,,,,,,,,,,,,,,,,,,,,,,,,,,,,,,,,,,,,,,,,,,,,,,,,,,,,,,,,,77,tiburón,,,,,534.4141,536.3901,0,0,1.4268,,0,27,27,76,1,REAL,FAKE,,,,,,,,,,,,,,,,,
,,,,,,,,,67dd4210d92f4c3aac8d944c,mexican,13 or older,"no, only English or Spanish",no,2025-07-22_20h52.07.555,empathy_intonation_perc,2024.2.4,Win32,48.54368932,67dd4210d92f4c3aac8d944c,687ed1b7e638a4cbf2f02089,688031c78502cde679798f48,,,,,,,,,,,,,,0,,,,,,,,,,,,,,,,,,,,,,,,,,,,,,,,,,,,,,,,,,,,,,,,,,,,,,,,,10,antar,,,,,536.3928,538.3695,0,1,1.42,,0,28,28,9,1,REAL,FAKE,,,,,,,,,,,,,,,,,
,,,,,,,,,67dd4210d92f4c3aac8d944c,mexican,13 or older,"no, only English or Spanish",no,2025-07-22_20h52.07.555,empathy_intonation_perc,2024.2.4,Win32,48.54368932,67dd4210d92f4c3aac8d944c,687ed1b7e638a4cbf2f02089,688031c78502cde679798f48,,,,,,,,,,,,,,0,,,,,,,,,,,,,,,,,,,,,,,,,,,,,,,,,,,,,,,,,,,,,,,,,,,,,,,,,8,cadeña,,,,,538.3721,540.4319,1,0,1.5114,,0,29,29,7,1,REAL,FAKE,,,,,,,,,,,,,,,,,
,,,,,,,,,67dd4210d92f4c3aac8d944c,mexican,13 or older,"no, only English or Spanish",no,2025-07-22_20h52.07.555,empathy_intonation_perc,2024.2.4,Win32,48.54368932,67dd4210d92f4c3aac8d944c,687ed1b7e638a4cbf2f02089,688031c78502cde679798f48,,,,,,,,,,,,,,0,,,,,,,,,,,,,,,,,,,,,,,,,,,,,,,,,,,,,,,,,,,,,,,,,,,,,,,,,50,flamida,,,,,540.4348,542.8281,1,0,1.8382,,0,30,30,49,1,REAL,FAKE,,,,,,,,,,,,,,,,,
,,,,,,,,,67dd4210d92f4c3aac8d944c,mexican,13 or older,"no, only English or Spanish",no,2025-07-22_20h52.07.555,empathy_intonation_perc,2024.2.4,Win32,48.54368932,67dd4210d92f4c3aac8d944c,687ed1b7e638a4cbf2f02089,688031c78502cde679798f48,,,,,,,,,,,,,,1,,,,,,,,,,,,,,,,,,,,,,,,,,,,,,,,,,,,,,,,,,,,,,,,,,,,,,,,,62,flaco,,,,,542.8314,544.6616,1,1,1.2823,,0,31,31,61,1,REAL,FAKE,,,,,,,,,,,,,,,,,
,,,,,,,,,67dd4210d92f4c3aac8d944c,mexican,13 or older,"no, only English or Spanish",no,2025-07-22_20h52.07.555,empathy_intonation_perc,2024.2.4,Win32,48.54368932,67dd4210d92f4c3aac8d944c,687ed1b7e638a4cbf2f02089,688031c78502cde679798f48,,,,,,,,,,,,,,0,,,,,,,,,,,,,,,,,,,,,,,,,,,,,,,,,,,,,,,,,,,,,,,,,,,,,,,,,66,hacido,,,,,544.6647,546.9527,0,1,1.7329,,0,32,32,65,1,REAL,FAKE,,,,,,,,,,,,,,,,,
,,,,,,,,,67dd4210d92f4c3aac8d944c,mexican,13 or older,"no, only English or Spanish",no,2025-07-22_20h52.07.555,empathy_intonation_perc,2024.2.4,Win32,48.54368932,67dd4210d92f4c3aac8d944c,687ed1b7e638a4cbf2f02089,688031c78502cde679798f48,,,,,,,,,,,,,,1,,,,,,,,,,,,,,,,,,,,,,,,,,,,,,,,,,,,,,,,,,,,,,,,,,,,,,,,,81,pozo,,,,,546.9556,548.6613,1,1,1.1484,,0,33,33,80,1,REAL,FAKE,,,,,,,,,,,,,,,,,
,,,,,,,,,67dd4210d92f4c3aac8d944c,mexican,13 or older,"no, only English or Spanish",no,2025-07-22_20h52.07.555,empathy_intonation_perc,2024.2.4,Win32,48.54368932,67dd4210d92f4c3aac8d944c,687ed1b7e638a4cbf2f02089,688031c78502cde679798f48,,,,,,,,,,,,,,0,,,,,,,,,,,,,,,,,,,,,,,,,,,,,,,,,,,,,,,,,,,,,,,,,,,,,,,,,58,plaudir,,,,,548.6637,550.7029,1,0,1.4834,,0,34,34,57,1,REAL,FAKE,,,,,,,,,,,,,,,,,
,,,,,,,,,67dd4210d92f4c3aac8d944c,mexican,13 or older,"no, only English or Spanish",no,2025-07-22_20h52.07.555,empathy_intonation_perc,2024.2.4,Win32,48.54368932,67dd4210d92f4c3aac8d944c,687ed1b7e638a4cbf2f02089,688031c78502cde679798f48,,,,,,,,,,,,,,1,,,,,,,,,,,,,,,,,,,,,,,,,,,,,,,,,,,,,,,,,,,,,,,,,,,,,,,,,38,estornudar,,,,,550.706,553.224,0,0,1.9666,,0,35,35,37,1,REAL,FAKE,,,,,,,,,,,,,,,,,
,,,,,,,,,67dd4210d92f4c3aac8d944c,mexican,13 or older,"no, only English or Spanish",no,2025-07-22_20h52.07.555,empathy_intonation_perc,2024.2.4,Win32,48.54368932,67dd4210d92f4c3aac8d944c,687ed1b7e638a4cbf2f02089,688031c78502cde679798f48,,,,,,,,,,,,,,1,,,,,,,,,,,,,,,,,,,,,,,,,,,,,,,,,,,,,,,,,,,,,,,,,,,,,,,,,15,regar,,,,,553.2264,555.4111,0,0,1.6379,,0,36,36,14,1,REAL,FAKE,,,,,,,,,,,,,,,,,
,,,,,,,,,67dd4210d92f4c3aac8d944c,mexican,13 or older,"no, only English or Spanish",no,2025-07-22_20h52.07.555,empathy_intonation_perc,2024.2.4,Win32,48.54368932,67dd4210d92f4c3aac8d944c,687ed1b7e638a4cbf2f02089,688031c78502cde679798f48,,,,,,,,,,,,,,0,,,,,,,,,,,,,,,,,,,,,,,,,,,,,,,,,,,,,,,,,,,,,,,,,,,,,,,,,82,empirador,,,,,555.4138,558.2656,1,0,2.2939,,0,37,37,81,1,REAL,FAKE,,,,,,,,,,,,,,,,,
,,,,,,,,,67dd4210d92f4c3aac8d944c,mexican,13 or older,"no, only English or Spanish",no,2025-07-22_20h52.07.555,empathy_intonation_perc,2024.2.4,Win32,48.54368932,67dd4210d92f4c3aac8d944c,687ed1b7e638a4cbf2f02089,688031c78502cde679798f48,,,,,,,,,,,,,,1,,,,,,,,,,,,,,,,,,,,,,,,,,,,,,,,,,,,,,,,,,,,,,,,,,,,,,,,,44,cuchara,,,,,558.2682,560.5371,0,0,1.7118,,0,38,38,43,1,REAL,FAKE,,,,,,,,,,,,,,,,,
,,,,,,,,,67dd4210d92f4c3aac8d944c,mexican,13 or older,"no, only English or Spanish",no,2025-07-22_20h52.07.555,empathy_intonation_perc,2024.2.4,Win32,48.54368932,67dd4210d92f4c3aac8d944c,687ed1b7e638a4cbf2f02089,688031c78502cde679798f48,,,,,,,,,,,,,,0,,,,,,,,,,,,,,,,,,,,,,,,,,,,,,,,,,,,,,,,,,,,,,,,,,,,,,,,,16,abracer,,,,,560.5402,562.8697,0,1,1.7802,,0,39,39,15,1,REAL,FAKE,,,,,,,,,,,,,,,,,
,,,,,,,,,67dd4210d92f4c3aac8d944c,mexican,13 or older,"no, only English or Spanish",no,2025-07-22_20h52.07.555,empathy_intonation_perc,2024.2.4,Win32,48.54368932,67dd4210d92f4c3aac8d944c,687ed1b7e638a4cbf2f02089,688031c78502cde679798f48,,,,,,,,,,,,,,1,,,,,,,,,,,,,,,,,,,,,,,,,,,,,,,,,,,,,,,,,,,,,,,,,,,,,,,,,51,candado,,,,,562.8725,564.9734,1,1,1.5467,,0,40,40,50,1,REAL,FAKE,,,,,,,,,,,,,,,,,
,,,,,,,,,67dd4210d92f4c3aac8d944c,mexican,13 or older,"no, only English or Spanish",no,2025-07-22_20h52.07.555,empathy_intonation_perc,2024.2.4,Win32,48.54368932,67dd4210d92f4c3aac8d944c,687ed1b7e638a4cbf2f02089,688031c78502cde679798f48,,,,,,,,,,,,,,1,,,,,,,,,,,,,,,,,,,,,,,,,,,,,,,,,,,,,,,,,,,,,,,,,,,,,,,,,64,orgulloso,,,,,564.9759,567.0572,0,0,1.5238,,0,41,41,63,1,REAL,FAKE,,,,,,,,,,,,,,,,,
,,,,,,,,,67dd4210d92f4c3aac8d944c,mexican,13 or older,"no, only English or Spanish",no,2025-07-22_20h52.07.555,empathy_intonation_perc,2024.2.4,Win32,48.54368932,67dd4210d92f4c3aac8d944c,687ed1b7e638a4cbf2f02089,688031c78502cde679798f48,,,,,,,,,,,,,,1,,,,,,,,,,,,,,,,,,,,,,,,,,,,,,,,,,,,,,,,,,,,,,,,,,,,,,,,,76,atar,,,,,567.0598,569.4112,0,0,1.7937,,0,42,42,75,1,REAL,FAKE,,,,,,,,,,,,,,,,,
,,,,,,,,,67dd4210d92f4c3aac8d944c,mexican,13 or older,"no, only English or Spanish",no,2025-07-22_20h52.07.555,empathy_intonation_perc,2024.2.4,Win32,48.54368932,67dd4210d92f4c3aac8d944c,687ed1b7e638a4cbf2f02089,688031c78502cde679798f48,,,,,,,,,,,,,,0,,,,,,,,,,,,,,,,,,,,,,,,,,,,,,,,,,,,,,,,,,,,,,,,,,,,,,,,,72,pemición,,,,,569.4133,571.7236,1,0,1.7531,,0,43,43,71,1,REAL,FAKE,,,,,,,,,,,,,,,,,
,,,,,,,,,67dd4210d92f4c3aac8d944c,mexican,13 or older,"no, only English or Spanish",no,2025-07-22_20h52.07.555,empathy_intonation_perc,2024.2.4,Win32,48.54368932,67dd4210d92f4c3aac8d944c,687ed1b7e638a4cbf2f02089,688031c78502cde679798f48,,,,,,,,,,,,,,0,,,,,,,,,,,,,,,,,,,,,,,,,,,,,,,,,,,,,,,,,,,,,,,,,,,,,,,,,29,decar,,,,,571.7257,573.5361,0,1,1.2526,,0,44,44,28,1,REAL,FAKE,,,,,,,,,,,,,,,,,
,,,,,,,,,67dd4210d92f4c3aac8d944c,mexican,13 or older,"no, only English or Spanish",no,2025-07-22_20h52.07.555,empathy_intonation_perc,2024.2.4,Win32,48.54368932,67dd4210d92f4c3aac8d944c,687ed1b7e638a4cbf2f02089,688031c78502cde679798f48,,,,,,,,,,,,,,1,,,,,,,,,,,,,,,,,,,,,,,,,,,,,,,,,,,,,,,,,,,,,,,,,,,,,,,,,67,cabello,,,,,573.5384,575.3068,1,1,1.2202,,0,45,45,66,1,REAL,FAKE,,,,,,,,,,,,,,,,,
,,,,,,,,,67dd4210d92f4c3aac8d944c,mexican,13 or older,"no, only English or Spanish",no,2025-07-22_20h52.07.555,empathy_intonation_perc,2024.2.4,Win32,48.54368932,67dd4210d92f4c3aac8d944c,687ed1b7e638a4cbf2f02089,688031c78502cde679798f48,,,,,,,,,,,,,,1,,,,,,,,,,,,,,,,,,,,,,,,,,,,,,,,,,,,,,,,,,,,,,,,,,,,,,,,,75,yacer,,,,,575.3094,576.682,0,0,0.823,,0,46,46,74,1,REAL,FAKE,,,,,,,,,,,,,,,,,
,,,,,,,,,67dd4210d92f4c3aac8d944c,mexican,13 or older,"no, only English or Spanish",no,2025-07-22_20h52.07.555,empathy_intonation_perc,2024.2.4,Win32,48.54368932,67dd4210d92f4c3aac8d944c,687ed1b7e638a4cbf2f02089,688031c78502cde679798f48,,,,,,,,,,,,,,0,,,,,,,,,,,,,,,,,,,,,,,,,,,,,,,,,,,,,,,,,,,,,,,,,,,,,,,,,18,arsa,,,,,576.6848,577.9739,0,1,0.7319,,0,47,47,17,1,REAL,FAKE,,,,,,,,,,,,,,,,,
,,,,,,,,,67dd4210d92f4c3aac8d944c,mexican,13 or older,"no, only English or Spanish",no,2025-07-22_20h52.07.555,empathy_intonation_perc,2024.2.4,Win32,48.54368932,67dd4210d92f4c3aac8d944c,687ed1b7e638a4cbf2f02089,688031c78502cde679798f48,,,,,,,,,,,,,,1,,,,,,,,,,,,,,,,,,,,,,,,,,,,,,,,,,,,,,,,,,,,,,,,,,,,,,,,,68,alegre,,,,,577.9765,579.682,0,0,1.1528,,0,48,48,67,1,REAL,FAKE,,,,,,,,,,,,,,,,,
,,,,,,,,,67dd4210d92f4c3aac8d944c,mexican,13 or older,"no, only English or Spanish",no,2025-07-22_20h52.07.555,empathy_intonation_perc,2024.2.4,Win32,48.54368932,67dd4210d92f4c3aac8d944c,687ed1b7e638a4cbf2f02089,688031c78502cde679798f48,,,,,,,,,,,,,,1,,,,,,,,,,,,,,,,,,,,,,,,,,,,,,,,,,,,,,,,,,,,,,,,,,,,,,,,,31,pandilla,,,,,579.6847,581.3906,1,1,1.1479,,0,49,49,30,1,REAL,FAKE,,,,,,,,,,,,,,,,,
,,,,,,,,,67dd4210d92f4c3aac8d944c,mexican,13 or older,"no, only English or Spanish",no,2025-07-22_20h52.07.555,empathy_intonation_perc,2024.2.4,Win32,48.54368932,67dd4210d92f4c3aac8d944c,687ed1b7e638a4cbf2f02089,688031c78502cde679798f48,,,,,,,,,,,,,,0,,,,,,,,,,,,,,,,,,,,,,,,,,,,,,,,,,,,,,,,,,,,,,,,,,,,,,,,,30,alardio,,,,,581.3937,583.4948,1,0,1.5495,,0,50,50,29,1,REAL,FAKE,,,,,,,,,,,,,,,,,
,,,,,,,,,67dd4210d92f4c3aac8d944c,mexican,13 or older,"no, only English or Spanish",no,2025-07-22_20h52.07.555,empathy_intonation_perc,2024.2.4,Win32,48.54368932,67dd4210d92f4c3aac8d944c,687ed1b7e638a4cbf2f02089,688031c78502cde679798f48,,,,,,,,,,,,,,0,,,,,,,,,,,,,,,,,,,,,,,,,,,,,,,,,,,,,,,,,,,,,,,,,,,,,,,,,27,acutación,,,,,583.498,585.9532,1,0,1.9049,,0,51,51,26,1,REAL,FAKE,,,,,,,,,,,,,,,,,
,,,,,,,,,67dd4210d92f4c3aac8d944c,mexican,13 or older,"no, only English or Spanish",no,2025-07-22_20h52.07.555,empathy_intonation_perc,2024.2.4,Win32,48.54368932,67dd4210d92f4c3aac8d944c,687ed1b7e638a4cbf2f02089,688031c78502cde679798f48,,,,,,,,,,,,,,1,,,,,,,,,,,,,,,,,,,,,,,,,,,,,,,,,,,,,,,,,,,,,,,,,,,,,,,,,89,prisa,,,,,585.9559,587.328,0,0,0.8171,,0,52,52,88,1,REAL,FAKE,,,,,,,,,,,,,,,,,
,,,,,,,,,67dd4210d92f4c3aac8d944c,mexican,13 or older,"no, only English or Spanish",no,2025-07-22_20h52.07.555,empathy_intonation_perc,2024.2.4,Win32,48.54368932,67dd4210d92f4c3aac8d944c,687ed1b7e638a4cbf2f02089,688031c78502cde679798f48,,,,,,,,,,,,,,0,,,,,,,,,,,,,,,,,,,,,,,,,,,,,,,,,,,,,,,,,,,,,,,,,,,,,,,,,1,terzo,,,,,587.3307,588.6408,0,1,0.7528,,0,53,53,0,1,REAL,FAKE,,,,,,,,,,,,,,,,,
,,,,,,,,,67dd4210d92f4c3aac8d944c,mexican,13 or older,"no, only English or Spanish",no,2025-07-22_20h52.07.555,empathy_intonation_perc,2024.2.4,Win32,48.54368932,67dd4210d92f4c3aac8d944c,687ed1b7e638a4cbf2f02089,688031c78502cde679798f48,,,,,,,,,,,,,,1,,,,,,,,,,,,,,,,,,,,,,,,,,,,,,,,,,,,,,,,,,,,,,,,,,,,,,,,,28,merodear,,,,,588.6434,590.6822,0,0,1.4918,,0,54,54,27,1,REAL,FAKE,,,,,,,,,,,,,,,,,
,,,,,,,,,67dd4210d92f4c3aac8d944c,mexican,13 or older,"no, only English or Spanish",no,2025-07-22_20h52.07.555,empathy_intonation_perc,2024.2.4,Win32,48.54368932,67dd4210d92f4c3aac8d944c,687ed1b7e638a4cbf2f02089,688031c78502cde679798f48,,,,,,,,,,,,,,1,,,,,,,,,,,,,,,,,,,,,,,,,,,,,,,,,,,,,,,,,,,,,,,,,,,,,,,,,78,frondoso,,,,,590.6844,593.2239,0,0,1.9853,,0,55,55,77,1,REAL,FAKE,,,,,,,,,,,,,,,,,
,,,,,,,,,67dd4210d92f4c3aac8d944c,mexican,13 or older,"no, only English or Spanish",no,2025-07-22_20h52.07.555,empathy_intonation_perc,2024.2.4,Win32,48.54368932,67dd4210d92f4c3aac8d944c,687ed1b7e638a4cbf2f02089,688031c78502cde679798f48,,,,,,,,,,,,,,1,,,,,,,,,,,,,,,,,,,,,,,,,,,,,,,,,,,,,,,,,,,,,,,,,,,,,,,,,59,besar,,,,,593.2267,594.5788,1,1,0.8076,,0,56,56,58,1,REAL,FAKE,,,,,,,,,,,,,,,,,
,,,,,,,,,67dd4210d92f4c3aac8d944c,mexican,13 or older,"no, only English or Spanish",no,2025-07-22_20h52.07.555,empathy_intonation_perc,2024.2.4,Win32,48.54368932,67dd4210d92f4c3aac8d944c,687ed1b7e638a4cbf2f02089,688031c78502cde679798f48,,,,,,,,,,,,,,1,,,,,,,,,,,,,,,,,,,,,,,,,,,,,,,,,,,,,,,,,,,,,,,,,,,,,,,,,9,hacha,,,,,594.5811,595.9318,1,1,0.7938,,0,57,57,8,1,REAL,FAKE,,,,,,,,,,,,,,,,,
,,,,,,,,,67dd4210d92f4c3aac8d944c,mexican,13 or older,"no, only English or Spanish",no,2025-07-22_20h52.07.555,empathy_intonation_perc,2024.2.4,Win32,48.54368932,67dd4210d92f4c3aac8d944c,687ed1b7e638a4cbf2f02089,688031c78502cde679798f48,,,,,,,,,,,,,,1,,,,,,,,,,,,,,,,,,,,,,,,,,,,,,,,,,,,,,,,,,,,,,,,,,,,,,,,,55,nevar,,,,,595.9342,597.8486,1,1,1.3572,,0,58,58,54,1,REAL,FAKE,,,,,,,,,,,,,,,,,
,,,,,,,,,67dd4210d92f4c3aac8d944c,mexican,13 or older,"no, only English or Spanish",no,2025-07-22_20h52.07.555,empathy_intonation_perc,2024.2.4,Win32,48.54368932,67dd4210d92f4c3aac8d944c,687ed1b7e638a4cbf2f02089,688031c78502cde679798f48,,,,,,,,,,,,,,1,,,,,,,,,,,,,,,,,,,,,,,,,,,,,,,,,,,,,,,,,,,,,,,,,,,,,,,,,22,lacayo,,,,,597.851,600.1613,0,0,1.7582,,0,59,59,21,1,REAL,FAKE,,,,,,,,,,,,,,,,,
,,,,,,,,,67dd4210d92f4c3aac8d944c,mexican,13 or older,"no, only English or Spanish",no,2025-07-22_20h52.07.555,empathy_intonation_perc,2024.2.4,Win32,48.54368932,67dd4210d92f4c3aac8d944c,687ed1b7e638a4cbf2f02089,688031c78502cde679798f48,,,,,,,,,,,,,,1,,,,,,,,,,,,,,,,,,,,,,,,,,,,,,,,,,,,,,,,,,,,,,,,,,,,,,,,,85,laúd,,,,,600.1653,602.5987,0,0,1.8785,,0,60,60,84,1,REAL,FAKE,,,,,,,,,,,,,,,,,
,,,,,,,,,67dd4210d92f4c3aac8d944c,mexican,13 or older,"no, only English or Spanish",no,2025-07-22_20h52.07.555,empathy_intonation_perc,2024.2.4,Win32,48.54368932,67dd4210d92f4c3aac8d944c,687ed1b7e638a4cbf2f02089,688031c78502cde679798f48,,,,,,,,,,,,,,1,,,,,,,,,,,,,,,,,,,,,,,,,,,,,,,,,,,,,,,,,,,,,,,,,,,,,,,,,3,pulmones,,,,,602.6016,604.3278,0,0,1.169,,0,61,61,2,1,REAL,FAKE,,,,,,,,,,,,,,,,,
,,,,,,,,,67dd4210d92f4c3aac8d944c,mexican,13 or older,"no, only English or Spanish",no,2025-07-22_20h52.07.555,empathy_intonation_perc,2024.2.4,Win32,48.54368932,67dd4210d92f4c3aac8d944c,687ed1b7e638a4cbf2f02089,688031c78502cde679798f48,,,,,,,,,,,,,,1,,,,,,,,,,,,,,,,,,,,,,,,,,,,,,,,,,,,,,,,,,,,,,,,,,,,,,,,,6,tergiversar,,,,,604.3301,606.6612,0,0,1.7733,,0,62,62,5,1,REAL,FAKE,,,,,,,,,,,,,,,,,
,,,,,,,,,67dd4210d92f4c3aac8d944c,mexican,13 or older,"no, only English or Spanish",no,2025-07-22_20h52.07.555,empathy_intonation_perc,2024.2.4,Win32,48.54368932,67dd4210d92f4c3aac8d944c,687ed1b7e638a4cbf2f02089,688031c78502cde679798f48,,,,,,,,,,,,,,1,,,,,,,,,,,,,,,,,,,,,,,,,,,,,,,,,,,,,,,,,,,,,,,,,,,,,,,,,12,asesinato,,,,,606.6637,608.2028,1,1,0.9921,,0,63,63,11,1,REAL,FAKE,,,,,,,,,,,,,,,,,
,,,,,,,,,67dd4210d92f4c3aac8d944c,mexican,13 or older,"no, only English or Spanish",no,2025-07-22_20h52.07.555,empathy_intonation_perc,2024.2.4,Win32,48.54368932,67dd4210d92f4c3aac8d944c,687ed1b7e638a4cbf2f02089,688031c78502cde679798f48,,,,,,,,,,,,,,1,,,,,,,,,,,,,,,,,,,,,,,,,,,,,,,,,,,,,,,,,,,,,,,,,,,,,,,,,83,guante,,,,,608.2051,609.9116,1,1,1.1548,,0,64,64,82,1,REAL,FAKE,,,,,,,,,,,,,,,,,
,,,,,,,,,67dd4210d92f4c3aac8d944c,mexican,13 or older,"no, only English or Spanish",no,2025-07-22_20h52.07.555,empathy_intonation_perc,2024.2.4,Win32,48.54368932,67dd4210d92f4c3aac8d944c,687ed1b7e638a4cbf2f02089,688031c78502cde679798f48,,,,,,,,,,,,,,1,,,,,,,,,,,,,,,,,,,,,,,,,,,,,,,,,,,,,,,,,,,,,,,,,,,,,,,,,41,rebuscar,,,,,609.9139,612.2446,1,1,1.7795,,0,65,65,40,1,REAL,FAKE,,,,,,,,,,,,,,,,,
,,,,,,,,,67dd4210d92f4c3aac8d944c,mexican,13 or older,"no, only English or Spanish",no,2025-07-22_20h52.07.555,empathy_intonation_perc,2024.2.4,Win32,48.54368932,67dd4210d92f4c3aac8d944c,687ed1b7e638a4cbf2f02089,688031c78502cde679798f48,,,,,,,,,,,,,,0,,,,,,,,,,,,,,,,,,,,,,,,,,,,,,,,,,,,,,,,,,,,,,,,,,,,,,,,,21,capillo,,,,,612.2468,613.7238,1,0,0.926,,0,66,66,20,1,REAL,FAKE,,,,,,,,,,,,,,,,,
,,,,,,,,,67dd4210d92f4c3aac8d944c,mexican,13 or older,"no, only English or Spanish",no,2025-07-22_20h52.07.555,empathy_intonation_perc,2024.2.4,Win32,48.54368932,67dd4210d92f4c3aac8d944c,687ed1b7e638a4cbf2f02089,688031c78502cde679798f48,,,,,,,,,,,,,,0,,,,,,,,,,,,,,,,,,,,,,,,,,,,,,,,,,,,,,,,,,,,,,,,,,,,,,,,,47,cartinar,,,,,613.7262,615.182,0,1,0.9072,,0,67,67,46,1,REAL,FAKE,,,,,,,,,,,,,,,,,
,,,,,,,,,67dd4210d92f4c3aac8d944c,mexican,13 or older,"no, only English or Spanish",no,2025-07-22_20h52.07.555,empathy_intonation_perc,2024.2.4,Win32,48.54368932,67dd4210d92f4c3aac8d944c,687ed1b7e638a4cbf2f02089,688031c78502cde679798f48,,,,,,,,,,,,,,1,,,,,,,,,,,,,,,,,,,,,,,,,,,,,,,,,,,,,,,,,,,,,,,,,,,,,,,,,5,zapato,,,,,615.1846,616.6611,0,0,0.9237,,0,68,68,4,1,REAL,FAKE,,,,,,,,,,,,,,,,,
,,,,,,,,,67dd4210d92f4c3aac8d944c,mexican,13 or older,"no, only English or Spanish",no,2025-07-22_20h52.07.555,empathy_intonation_perc,2024.2.4,Win32,48.54368932,67dd4210d92f4c3aac8d944c,687ed1b7e638a4cbf2f02089,688031c78502cde679798f48,,,,,,,,,,,,,,1,,,,,,,,,,,,,,,,,,,,,,,,,,,,,,,,,,,,,,,,,,,,,,,,,,,,,,,,,46,martillo,,,,,616.6638,617.8555,1,1,0.6467,,0,69,69,45,1,REAL,FAKE,,,,,,,,,,,,,,,,,
,,,,,,,,,67dd4210d92f4c3aac8d944c,mexican,13 or older,"no, only English or Spanish",no,2025-07-22_20h52.07.555,empathy_intonation_perc,2024.2.4,Win32,48.54368932,67dd4210d92f4c3aac8d944c,687ed1b7e638a4cbf2f02089,688031c78502cde679798f48,,,,,,,,,,,,,,0,,,,,,,,,,,,,,,,,,,,,,,,,,,,,,,,,,,,,,,,,,,,,,,,,,,,,,,,,17,floroso,,,,,617.858,620.057,1,0,1.6488,,0,70,70,16,1,REAL,FAKE,,,,,,,,,,,,,,,,,
,,,,,,,,,67dd4210d92f4c3aac8d944c,mexican,13 or older,"no, only English or Spanish",no,2025-07-22_20h52.07.555,empathy_intonation_perc,2024.2.4,Win32,48.54368932,67dd4210d92f4c3aac8d944c,687ed1b7e638a4cbf2f02089,688031c78502cde679798f48,,,,,,,,,,,,,,1,,,,,,,,,,,,,,,,,,,,,,,,,,,,,,,,,,,,,,,,,,,,,,,,,,,,,,,,,54,fomentar,,,,,620.0599,621.3904,0,0,0.7784,,0,71,71,53,1,REAL,FAKE,,,,,,,,,,,,,,,,,
,,,,,,,,,67dd4210d92f4c3aac8d944c,mexican,13 or older,"no, only English or Spanish",no,2025-07-22_20h52.07.555,empathy_intonation_perc,2024.2.4,Win32,48.54368932,67dd4210d92f4c3aac8d944c,687ed1b7e638a4cbf2f02089,688031c78502cde679798f48,,,,,,,,,,,,,,1,,,,,,,,,,,,,,,,,,,,,,,,,,,,,,,,,,,,,,,,,,,,,,,,,,,,,,,,,25,bisagra,,,,,621.3927,622.9734,1,1,1.0229,,0,72,72,24,1,REAL,FAKE,,,,,,,,,,,,,,,,,
,,,,,,,,,67dd4210d92f4c3aac8d944c,mexican,13 or older,"no, only English or Spanish",no,2025-07-22_20h52.07.555,empathy_intonation_perc,2024.2.4,Win32,48.54368932,67dd4210d92f4c3aac8d944c,687ed1b7e638a4cbf2f02089,688031c78502cde679798f48,,,,,,,,,,,,,,1,,,,,,,,,,,,,,,,,,,,,,,,,,,,,,,,,,,,,,,,,,,,,,,,,,,,,,,,,49,ganar,,,,,622.9758,624.3903,0,0,0.8882,,0,73,73,48,1,REAL,FAKE,,,,,,,,,,,,,,,,,
,,,,,,,,,67dd4210d92f4c3aac8d944c,mexican,13 or older,"no, only English or Spanish",no,2025-07-22_20h52.07.555,empathy_intonation_perc,2024.2.4,Win32,48.54368932,67dd4210d92f4c3aac8d944c,687ed1b7e638a4cbf2f02089,688031c78502cde679798f48,,,,,,,,,,,,,,1,,,,,,,,,,,,,,,,,,,,,,,,,,,,,,,,,,,,,,,,,,,,,,,,,,,,,,,,,69,engatusar,,,,,624.3931,625.682,0,0,0.7348,,0,74,74,68,1,REAL,FAKE,,,,,,,,,,,,,,,,,
,,,,,,,,,67dd4210d92f4c3aac8d944c,mexican,13 or older,"no, only English or Spanish",no,2025-07-22_20h52.07.555,empathy_intonation_perc,2024.2.4,Win32,48.54368932,67dd4210d92f4c3aac8d944c,687ed1b7e638a4cbf2f02089,688031c78502cde679798f48,,,,,,,,,,,,,,1,,,,,,,,,,,,,,,,,,,,,,,,,,,,,,,,,,,,,,,,,,,,,,,,,,,,,,,,,7,pésimo,,,,,625.6843,627.0779,1,1,0.8458,,0,75,75,6,1,REAL,FAKE,,,,,,,,,,,,,,,,,
,,,,,,,,,67dd4210d92f4c3aac8d944c,mexican,13 or older,"no, only English or Spanish",no,2025-07-22_20h52.07.555,empathy_intonation_perc,2024.2.4,Win32,48.54368932,67dd4210d92f4c3aac8d944c,687ed1b7e638a4cbf2f02089,688031c78502cde679798f48,,,,,,,,,,,,,,1,,,,,,,,,,,,,,,,,,,,,,,,,,,,,,,,,,,,,,,,,,,,,,,,,,,,,,,,,26,secuestro,,,,,627.0808,628.8697,0,0,1.2369,,0,76,76,25,1,REAL,FAKE,,,,,,,,,,,,,,,,,
,,,,,,,,,67dd4210d92f4c3aac8d944c,mexican,13 or older,"no, only English or Spanish",no,2025-07-22_20h52.07.555,empathy_intonation_perc,2024.2.4,Win32,48.54368932,67dd4210d92f4c3aac8d944c,687ed1b7e638a4cbf2f02089,688031c78502cde679798f48,,,,,,,,,,,,,,1,,,,,,,,,,,,,,,,,,,,,,,,,,,,,,,,,,,,,,,,,,,,,,,,,,,,,,,,,37,granuja,,,,,628.8724,630.4321,0,0,1.0037,,0,77,77,36,1,REAL,FAKE,,,,,,,,,,,,,,,,,
,,,,,,,,,67dd4210d92f4c3aac8d944c,mexican,13 or older,"no, only English or Spanish",no,2025-07-22_20h52.07.555,empathy_intonation_perc,2024.2.4,Win32,48.54368932,67dd4210d92f4c3aac8d944c,687ed1b7e638a4cbf2f02089,688031c78502cde679798f48,,,,,,,,,,,,,,1,,,,,,,,,,,,,,,,,,,,,,,,,,,,,,,,,,,,,,,,,,,,,,,,,,,,,,,,,86,barato,,,,,630.4345,632.0149,0,0,1.0338,,0,78,78,85,1,REAL,FAKE,,,,,,,,,,,,,,,,,
,,,,,,,,,67dd4210d92f4c3aac8d944c,mexican,13 or older,"no, only English or Spanish",no,2025-07-22_20h52.07.555,empathy_intonation_perc,2024.2.4,Win32,48.54368932,67dd4210d92f4c3aac8d944c,687ed1b7e638a4cbf2f02089,688031c78502cde679798f48,,,,,,,,,,,,,,1,,,,,,,,,,,,,,,,,,,,,,,,,,,,,,,,,,,,,,,,,,,,,,,,,,,,,,,,,45,jilguero,,,,,632.0175,634.1613,1,1,1.5879,,0,79,79,44,1,REAL,FAKE,,,,,,,,,,,,,,,,,
,,,,,,,,,67dd4210d92f4c3aac8d944c,mexican,13 or older,"no, only English or Spanish",no,2025-07-22_20h52.07.555,empathy_intonation_perc,2024.2.4,Win32,48.54368932,67dd4210d92f4c3aac8d944c,687ed1b7e638a4cbf2f02089,688031c78502cde679798f48,,,,,,,,,,,,,,1,,,,,,,,,,,,,,,,,,,,,,,,,,,,,,,,,,,,,,,,,,,,,,,,,,,,,,,,,91,click the 1 key.,,,,,634.1647,638.5988,1,1,3.8774,,0,80,80,90,1,REAL,FAKE,,,,,,,,,,,,,,,,,
,,,,,,,,,67dd4210d92f4c3aac8d944c,mexican,13 or older,"no, only English or Spanish",no,2025-07-22_20h52.07.555,empathy_intonation_perc,2024.2.4,Win32,48.54368932,67dd4210d92f4c3aac8d944c,687ed1b7e638a4cbf2f02089,688031c78502cde679798f48,,,,,,,,,,,,,,1,,,,,,,,,,,,,,,,,,,,,,,,,,,,,,,,,,,,,,,,,,,,,,,,,,,,,,,,,36,loro,,,,,638.6022,640.1197,0,0,0.9623,,0,81,81,35,1,REAL,FAKE,,,,,,,,,,,,,,,,,
,,,,,,,,,67dd4210d92f4c3aac8d944c,mexican,13 or older,"no, only English or Spanish",no,2025-07-22_20h52.07.555,empathy_intonation_perc,2024.2.4,Win32,48.54368932,67dd4210d92f4c3aac8d944c,687ed1b7e638a4cbf2f02089,688031c78502cde679798f48,,,,,,,,,,,,,,1,,,,,,,,,,,,,,,,,,,,,,,,,,,,,,,,,,,,,,,,,,,,,,,,,,,,,,,,,60,matar,,,,,640.1224,642.9732,0,0,2.3054,,0,82,82,59,1,REAL,FAKE,,,,,,,,,,,,,,,,,
,,,,,,,,,67dd4210d92f4c3aac8d944c,mexican,13 or older,"no, only English or Spanish",no,2025-07-22_20h52.07.555,empathy_intonation_perc,2024.2.4,Win32,48.54368932,67dd4210d92f4c3aac8d944c,687ed1b7e638a4cbf2f02089,688031c78502cde679798f48,,,,,,,,,,,,,,0,,,,,,,,,,,,,,,,,,,,,,,,,,,,,,,,,,,,,,,,,,,,,,,,,,,,,,,,,74,cintro,,,,,642.9761,644.5369,0,1,1.0095,,0,83,83,73,1,REAL,FAKE,,,,,,,,,,,,,,,,,
,,,,,,,,,67dd4210d92f4c3aac8d944c,mexican,13 or older,"no, only English or Spanish",no,2025-07-22_20h52.07.555,empathy_intonation_perc,2024.2.4,Win32,48.54368932,67dd4210d92f4c3aac8d944c,687ed1b7e638a4cbf2f02089,688031c78502cde679798f48,,,,,,,,,,,,,,1,,,,,,,,,,,,,,,,,,,,,,,,,,,,,,,,,,,,,,,,,,,,,,,,,,,,,,,,,14,yunque,,,,,644.5392,646.0368,0,0,0.9415,,0,84,84,13,1,REAL,FAKE,,,,,,,,,,,,,,,,,
,,,,,,,,,67dd4210d92f4c3aac8d944c,mexican,13 or older,"no, only English or Spanish",no,2025-07-22_20h52.07.555,empathy_intonation_perc,2024.2.4,Win32,48.54368932,67dd4210d92f4c3aac8d944c,687ed1b7e638a4cbf2f02089,688031c78502cde679798f48,,,,,,,,,,,,,,0,,,,,,,,,,,,,,,,,,,,,,,,,,,,,,,,,,,,,,,,,,,,,,,,,,,,,,,,,70,temblo,,,,,646.0395,647.5352,1,0,0.947,,0,85,85,69,1,REAL,FAKE,,,,,,,,,,,,,,,,,
,,,,,,,,,67dd4210d92f4c3aac8d944c,mexican,13 or older,"no, only English or Spanish",no,2025-07-22_20h52.07.555,empathy_intonation_perc,2024.2.4,Win32,48.54368932,67dd4210d92f4c3aac8d944c,687ed1b7e638a4cbf2f02089,688031c78502cde679798f48,,,,,,,,,,,,,,1,,,,,,,,,,,,,,,,,,,,,,,,,,,,,,,,,,,,,,,,,,,,,,,,,,,,,,,,,24,látigo,,,,,647.5368,649.0777,1,1,1.0036,,0,86,86,23,1,REAL,FAKE,,,,,,,,,,,,,,,,,
,,,,,,,,,67dd4210d92f4c3aac8d944c,mexican,13 or older,"no, only English or Spanish",no,2025-07-22_20h52.07.555,empathy_intonation_perc,2024.2.4,Win32,48.54368932,67dd4210d92f4c3aac8d944c,687ed1b7e638a4cbf2f02089,688031c78502cde679798f48,,,,,,,,,,,,,,1,,,,,,,,,,,,,,,,,,,,,,,,,,,,,,,,,,,,,,,,,,,,,,,,,,,,,,,,,13,helar,,,,,649.0802,650.3703,0,0,0.746,,0,87,87,12,1,REAL,FAKE,,,,,,,,,,,,,,,,,
,,,,,,,,,67dd4210d92f4c3aac8d944c,mexican,13 or older,"no, only English or Spanish",no,2025-07-22_20h52.07.555,empathy_intonation_perc,2024.2.4,Win32,48.54368932,67dd4210d92f4c3aac8d944c,687ed1b7e638a4cbf2f02089,688031c78502cde679798f48,,,,,,,,,,,,,,0,,,,,,,,,,,,,,,,,,,,,,,,,,,,,,,,,,,,,,,,,,,,,,,,,,,,,,,,,23,lampera,,,,,650.3726,651.9322,0,1,1.0038,,0,88,88,22,1,REAL,FAKE,,,,,,,,,,,,,,,,,
,,,,,,,,,67dd4210d92f4c3aac8d944c,mexican,13 or older,"no, only English or Spanish",no,2025-07-22_20h52.07.555,empathy_intonation_perc,2024.2.4,Win32,48.54368932,67dd4210d92f4c3aac8d944c,687ed1b7e638a4cbf2f02089,688031c78502cde679798f48,,,,,,,,,,,,,,1,,,,,,,,,,,,,,,,,,,,,,,,,,,,,,,,,,,,,,,,,,,,,,,,,,,,,,,,,40,alfombra,,,,,651.935,653.9116,0,0,1.4281,,0,89,89,39,1,REAL,FAKE,,,,,,,,,,,,,,,,,
,,,,,,,,,67dd4210d92f4c3aac8d944c,mexican,13 or older,"no, only English or Spanish",no,2025-07-22_20h52.07.555,empathy_intonation_perc,2024.2.4,Win32,48.54368932,67dd4210d92f4c3aac8d944c,687ed1b7e638a4cbf2f02089,688031c78502cde679798f48,,,,,,,,,,,,,,1,,,,,,,,,,,,,,,,,,,,,,,,,,,,,,,,,,,,,,,,,,,,,,,,,,,,,,,,,56,musgo,,,,,653.9142,655.2233,1,1,0.7606,,0,90,90,55,1,REAL,FAKE,,,,,,,,,,,,,,,,,
,,,,,,,,,67dd4210d92f4c3aac8d944c,mexican,13 or older,"no, only English or Spanish",no,2025-07-22_20h52.07.555,empathy_intonation_perc,2024.2.4,Win32,48.54368932,67dd4210d92f4c3aac8d944c,687ed1b7e638a4cbf2f02089,688031c78502cde679798f48,,,,,,,,,,,,,,0,,,,,,,,,,,,,,,,,,,,,,,,,,,,,,,,,,,,,,,,,,,,,,,,,,,,,,,,,92,click the 0 key.,,,,,655.2259,657.2864,0,1,1.5074,,0,91,91,91,1,REAL,FAKE,,,,,,,,,,,,,,,,,
,,,,,,,,,67dd4210d92f4c3aac8d944c,mexican,13 or older,"no, only English or Spanish",no,2025-07-22_20h52.07.555,empathy_intonation_perc,2024.2.4,Win32,48.54368932,67dd4210d92f4c3aac8d944c,687ed1b7e638a4cbf2f02089,688031c78502cde679798f48,,,,,,,,,,,,,,,,,,,,,,,,,,,,,,,,,,,,,,,,,,,,,,,,,,,,,,,,,,,,,,,,,,,,,,,,,,,,,,,,,,,,,,,,,,657.2879,669.4325,,,,,,,,,,,,,,,
,,,,,,,,,67dd4210d92f4c3aac8d944c,mexican,13 or older,"no, only English or Spanish",no,2025-07-22_20h52.07.555,empathy_intonation_perc,2024.2.4,Win32,48.54368932,67dd4210d92f4c3aac8d944c,687ed1b7e638a4cbf2f02089,688031c78502cde679798f48,,,,,,,,,,,,,1,,,,,,,,,,,,,,,,,,,,,,,,,,,,,,,,,,,,,,,,,,,,,,,,,,,,,,,,,,,,,,,,,,,,,,,,,,,,,,,669.4633,680.4962,slightly agree,0,0,0,0,1,I can easily tell if someone else wants to enter a conversation.,1,0,1,0,,
,,,,,,,,,67dd4210d92f4c3aac8d944c,mexican,13 or older,"no, only English or Spanish",no,2025-07-22_20h52.07.555,empathy_intonation_perc,2024.2.4,Win32,48.54368932,67dd4210d92f4c3aac8d944c,687ed1b7e638a4cbf2f02089,688031c78502cde679798f48,,,,,,,,,,,,,2,,,,,,,,,,,,,,,,,,,,,,,,,,,,,,,,,,,,,,,,,,,,,,,,,,,,,,,,,,,,,,,,,,,,,,,,,,,,,,,680.5021,684.4945,slightly disagree,0,1,1,1,1,I prefer animals to humans.,0,1,0,0,,
,,,,,,,,,67dd4210d92f4c3aac8d944c,mexican,13 or older,"no, only English or Spanish",no,2025-07-22_20h52.07.555,empathy_intonation_perc,2024.2.4,Win32,48.54368932,67dd4210d92f4c3aac8d944c,687ed1b7e638a4cbf2f02089,688031c78502cde679798f48,,,,,,,,,,,,,3,,,,,,,,,,,,,,,,,,,,,,,,,,,,,,,,,,,,,,,,,,,,,,,,,,,,,,,,,,,,,,,,,,,,,,,,,,,,,,,684.4998,688.9946,strongly agree,0,2,2,2,1,I try to keep up with the current trends and fashions.,0,1,0,0,,
,,,,,,,,,67dd4210d92f4c3aac8d944c,mexican,13 or older,"no, only English or Spanish",no,2025-07-22_20h52.07.555,empathy_intonation_perc,2024.2.4,Win32,48.54368932,67dd4210d92f4c3aac8d944c,687ed1b7e638a4cbf2f02089,688031c78502cde679798f48,,,,,,,,,,,,,4,,,,,,,,,,,,,,,,,,,,,,,,,,,,,,,,,,,,,,,,,,,,,,,,,,,,,,,,,,,,,,,,,,,,,,,,,,,,,,,688.9995,693.161,slightly agree,0,3,3,3,1,"I find it difficult to explain to others things that I understand easily,   when they don't understand it first time.",1,0,0,1,,
,,,,,,,,,67dd4210d92f4c3aac8d944c,mexican,13 or older,"no, only English or Spanish",no,2025-07-22_20h52.07.555,empathy_intonation_perc,2024.2.4,Win32,48.54368932,67dd4210d92f4c3aac8d944c,687ed1b7e638a4cbf2f02089,688031c78502cde679798f48,,,,,,,,,,,,,5,,,,,,,,,,,,,,,,,,,,,,,,,,,,,,,,,,,,,,,,,,,,,,,,,,,,,,,,,,,,,,,,,,,,,,,,,,,,,,,693.164,695.8899,slightly agree,0,4,4,4,1,I dream most nights.,0,1,0,0,,
,,,,,,,,,67dd4210d92f4c3aac8d944c,mexican,13 or older,"no, only English or Spanish",no,2025-07-22_20h52.07.555,empathy_intonation_perc,2024.2.4,Win32,48.54368932,67dd4210d92f4c3aac8d944c,687ed1b7e638a4cbf2f02089,688031c78502cde679798f48,,,,,,,,,,,,,6,,,,,,,,,,,,,,,,,,,,,,,,,,,,,,,,,,,,,,,,,,,,,,,,,,,,,,,,,,,,,,,,,,,,,,,,,,,,,,,695.8938,699.1405,strongly agree,0,5,5,5,1,I really enjoy caring for other people.,1,0,1,0,,
,,,,,,,,,67dd4210d92f4c3aac8d944c,mexican,13 or older,"no, only English or Spanish",no,2025-07-22_20h52.07.555,empathy_intonation_perc,2024.2.4,Win32,48.54368932,67dd4210d92f4c3aac8d944c,687ed1b7e638a4cbf2f02089,688031c78502cde679798f48,,,,,,,,,,,,,7,,,,,,,,,,,,,,,,,,,,,,,,,,,,,,,,,,,,,,,,,,,,,,,,,,,,,,,,,,,,,,,,,,,,,,,,,,,,,,,699.1447,701.9733,strongly agree,0,6,6,6,1,I try to solve my own problems rather than discussing them with others.,0,1,0,0,,
,,,,,,,,,67dd4210d92f4c3aac8d944c,mexican,13 or older,"no, only English or Spanish",no,2025-07-22_20h52.07.555,empathy_intonation_perc,2024.2.4,Win32,48.54368932,67dd4210d92f4c3aac8d944c,687ed1b7e638a4cbf2f02089,688031c78502cde679798f48,,,,,,,,,,,,,8,,,,,,,,,,,,,,,,,,,,,,,,,,,,,,,,,,,,,,,,,,,,,,,,,,,,,,,,,,,,,,,,,,,,,,,,,,,,,,,701.9767,706.0363,slightly disagree,0,7,7,7,1,I find it hard to know what to do in a social situation.,1,0,0,1,,
,,,,,,,,,67dd4210d92f4c3aac8d944c,mexican,13 or older,"no, only English or Spanish",no,2025-07-22_20h52.07.555,empathy_intonation_perc,2024.2.4,Win32,48.54368932,67dd4210d92f4c3aac8d944c,687ed1b7e638a4cbf2f02089,688031c78502cde679798f48,,,,,,,,,,,,,9,,,,,,,,,,,,,,,,,,,,,,,,,,,,,,,,,,,,,,,,,,,,,,,,,,,,,,,,,,,,,,,,,,,,,,,,,,,,,,,706.0405,710.2656,slightly disagree,0,8,8,8,1,I am at my best first thing in the morning.,0,1,0,0,,
,,,,,,,,,67dd4210d92f4c3aac8d944c,mexican,13 or older,"no, only English or Spanish",no,2025-07-22_20h52.07.555,empathy_intonation_perc,2024.2.4,Win32,48.54368932,67dd4210d92f4c3aac8d944c,687ed1b7e638a4cbf2f02089,688031c78502cde679798f48,,,,,,,,,,,,,10,,,,,,,,,,,,,,,,,,,,,,,,,,,,,,,,,,,,,,,,,,,,,,,,,,,,,,,,,,,,,,,,,,,,,,,,,,,,,,,710.2713,715.1613,slightly disagree,0,9,9,9,1,People often tell me that I went too far in driving my point home in a discussion.,1,0,0,1,,
