instructions_exposure.started,instructions_exposure.stopped,instructions_exposure_loop.thisRepN,instructions_exposure_loop.thisTrialN,instructions_exposure_loop.thisN,instructions_exposure_loop.thisIndex,instructions_exposure_loop.ran,instructions_text,continue_text,participant_id,"What variety of Spanish are you most familiar with? (e.g., Peruvian, Spanish, Mexican)",At what age did you begin learning Spanish?,Are you proficient in any languages other than English/Spanish?,"Are you familiar with Caribbean (e.g., Caribbean, Puerto Rican) or Galician Spanish?",date,expName,psychopyVersion,OS,frameRate,id,study_id,session,trial_exposure.started,trial_exposure.stopped,key_resp_exposure.keys,key_resp_exposure.corr,key_resp_exposure.rt,key_resp_exposure.duration,key_resp.keys,exposure_loop.thisRepN,exposure_loop.thisTrialN,exposure_loop.thisN,exposure_loop.thisIndex,exposure_loop.ran,item_num,correct_response,question,path,duration,instructions_2afc.started,instructions_2afc.stopped,instructions_2afc_loop.thisRepN,instructions_2afc_loop.thisTrialN,instructions_2afc_loop.thisN,instructions_2afc_loop.thisIndex,instructions_2afc_loop.ran,practice_2afc.started,practice_2afc.stopped,key_resp_2afc_practice.keys,key_resp_2afc_practice.corr,key_resp_2afc_practice.rt,key_resp_2afc_practice.duration,trials_2afc_practice_loop.thisRepN,trials_2afc_practice_loop.thisTrialN,trials_2afc_practice_loop.thisN,trials_2afc_practice_loop.thisIndex,trials_2afc_practice_loop.ran,check_2afc.started,check_2afc.stopped,trial_2afc.started,trial_2afc.stopped,key_resp_2afc_trial.keys,key_resp_2afc_trial.corr,key_resp_2afc_trial.rt,key_resp_2afc_trial.duration,trials_2afc_loop.thisRepN,trials_2afc_loop.thisTrialN,trials_2afc_loop.thisN,trials_2afc_loop.thisIndex,trials_2afc_loop.ran,target,variety,instructions_lextale.started,instructions_lextale.stopped,instructions_lextale_loop.thisRepN,instructions_lextale_loop.thisTrialN,instructions_lextale_loop.thisN,instructions_lextale_loop.thisIndex,instructions_lextale_loop.ran,practice_lextale.started,practice_lextale.stopped,key_resp_lextale_practice.keys,key_resp_lextale_practice.corr,key_resp_lextale_practice.rt,key_resp_lextale_practice.duration,practice_feedback_lextale.started,practice_feedback_lextale.stopped,trials_lextale_practice_loop.thisRepN,trials_lextale_practice_loop.thisTrialN,trials_lextale_practice_loop.thisN,trials_lextale_practice_loop.thisIndex,trials_lextale_practice_loop.ran,stim,word,prac_button_real,prac_button_false,check_lextale.started,check_lextale.stopped,trial_lextale.started,trial_lextale.stopped,key_resp_lextale_trial.keys,key_resp_lextale_trial.corr,key_resp_lextale_trial.rt,key_resp_lextale_trial.duration,trials_lextale_loop.thisRepN,trials_lextale_loop.thisTrialN,trials_lextale_loop.thisN,trials_lextale_loop.thisIndex,trials_lextale_loop.ran,button_real,button_false,instructions_eq.started,instructions_eq.stopped,trial_eq.started,trial_eq.stopped,slider_eq_trial.response,trials_eq_loop.thisRepN,trials_eq_loop.thisTrialN,trials_eq_loop.thisN,trials_eq_loop.thisIndex,trials_eq_loop.ran,item,is_test_item,is_distractor,is_agree_score,is_disagree_score,end_exp.started,end_exp.stopped
0.0241,39.1095,0,0,0,0,1,"In the following task, you are going to hear a series of conversations.", (press the space bar to continue),67e9738d6bb6923faef4a165,SPANISH,13 or older,"no, only English or Spanish",no,2025-07-22_23h38.41.207,empathy_intonation_perc,2024.2.4,Win32,120.4819277,67e9738d6bb6923faef4a165,687ed1b7e638a4cbf2f02089,68806671d58bb674b4900c09,,,,,,,,,,,,,,,,,,,,,,,,,,,,,,,,,,,,,,,,,,,,,,,,,,,,,,,,,,,,,,,,,,,,,,,,,,,,,,,,,,,,,,,,,,,,,,,,,,,,,,,,,,
39.112,52.6964,0,1,1,1,1,It is okay if you don't not 100% understand them!, (press the space bar to continue),67e9738d6bb6923faef4a165,SPANISH,13 or older,"no, only English or Spanish",no,2025-07-22_23h38.41.207,empathy_intonation_perc,2024.2.4,Win32,120.4819277,67e9738d6bb6923faef4a165,687ed1b7e638a4cbf2f02089,68806671d58bb674b4900c09,,,,,,,,,,,,,,,,,,,,,,,,,,,,,,,,,,,,,,,,,,,,,,,,,,,,,,,,,,,,,,,,,,,,,,,,,,,,,,,,,,,,,,,,,,,,,,,,,,,,,,,,,,
52.699,59.5339,0,2,2,2,1,"After, you will read a sentence about the conversation and decide if it's true or false.", (press the space bar to continue),67e9738d6bb6923faef4a165,SPANISH,13 or older,"no, only English or Spanish",no,2025-07-22_23h38.41.207,empathy_intonation_perc,2024.2.4,Win32,120.4819277,67e9738d6bb6923faef4a165,687ed1b7e638a4cbf2f02089,68806671d58bb674b4900c09,,,,,,,,,,,,,,,,,,,,,,,,,,,,,,,,,,,,,,,,,,,,,,,,,,,,,,,,,,,,,,,,,,,,,,,,,,,,,,,,,,,,,,,,,,,,,,,,,,,,,,,,,,
59.5381,66.3699,0,3,3,3,1,"If it's true, press '1' (True) and if it's false press '0' (False).", (press the space bar to continue),67e9738d6bb6923faef4a165,SPANISH,13 or older,"no, only English or Spanish",no,2025-07-22_23h38.41.207,empathy_intonation_perc,2024.2.4,Win32,120.4819277,67e9738d6bb6923faef4a165,687ed1b7e638a4cbf2f02089,68806671d58bb674b4900c09,,,,,,,,,,,,,,,,,,,,,,,,,,,,,,,,,,,,,,,,,,,,,,,,,,,,,,,,,,,,,,,,,,,,,,,,,,,,,,,,,,,,,,,,,,,,,,,,,,,,,,,,,,
,,,,,,,,,67e9738d6bb6923faef4a165,SPANISH,13 or older,"no, only English or Spanish",no,2025-07-22_23h38.41.207,empathy_intonation_perc,2024.2.4,Win32,120.4819277,67e9738d6bb6923faef4a165,687ed1b7e638a4cbf2f02089,68806671d58bb674b4900c09,66.389,197.7797,0,1,95.3517,,,0,0,0,2,1,3,0,The mom already has rice.,./stim/exposure_wavs/pr_stimuli_convo.wav,36,,,,,,,,,,,,,,,,,,,,,,,,,,,,,,,,,,,,,,,,,,,,,,,,,,,,,,,,,,,,,,,,,,,,,,,,,,,,,,,,,,,,,,,,,
,,,,,,,,,67e9738d6bb6923faef4a165,SPANISH,13 or older,"no, only English or Spanish",no,2025-07-22_23h38.41.207,empathy_intonation_perc,2024.2.4,Win32,120.4819277,67e9738d6bb6923faef4a165,687ed1b7e638a4cbf2f02089,68806671d58bb674b4900c09,197.7837,332.1524,1,1,74.3473,,,0,1,1,1,1,2,1,The mom asked the daughter if she already went to the supermarket.,./stim/exposure_wavs/dr_stimuli_convo.wav,60,,,,,,,,,,,,,,,,,,,,,,,,,,,,,,,,,,,,,,,,,,,,,,,,,,,,,,,,,,,,,,,,,,,,,,,,,,,,,,,,,,,,,,,,,
,,,,,,,,,67e9738d6bb6923faef4a165,SPANISH,13 or older,"no, only English or Spanish",no,2025-07-22_23h38.41.207,empathy_intonation_perc,2024.2.4,Win32,120.4819277,67e9738d6bb6923faef4a165,687ed1b7e638a4cbf2f02089,68806671d58bb674b4900c09,332.155,415.0633,0,0,35.8918,,,0,2,2,0,1,1,1,The son asked the mom if Aunt Marina is okay.,./stim/exposure_wavs/ga_stimuli_convo.wav,47,,,,,,,,,,,,,,,,,,,,,,,,,,,,,,,,,,,,,,,,,,,,,,,,,,,,,,,,,,,,,,,,,,,,,,,,,,,,,,,,,,,,,,,,,
,,,,,,,"In the following task you are going to hear a series of utterances. 

  You will decide if the utterances sound like questions or not using your keyboard.", (press the spacebar to continue),67e9738d6bb6923faef4a165,SPANISH,13 or older,"no, only English or Spanish",no,2025-07-22_23h38.41.207,empathy_intonation_perc,2024.2.4,Win32,120.4819277,67e9738d6bb6923faef4a165,687ed1b7e638a4cbf2f02089,68806671d58bb674b4900c09,,,,,,,,,,,,,,,,,,415.0755,431.4556,0,0,0,0,1,,,,,,,,,,,,,,,,,,,,,,,,,,,,,,,,,,,,,,,,,,,,,,,,,,,,,,,,,,,,,,,,,,,,,,,,,,,,,,,,,,
,,,,,,,"If you believe the utterance is a question, type '1' (for 'yes') and if you do not 
  believe it is a question type '0' (for 'no').

  Let's practice a bit...", (press the spacebar to continue),67e9738d6bb6923faef4a165,SPANISH,13 or older,"no, only English or Spanish",no,2025-07-22_23h38.41.207,empathy_intonation_perc,2024.2.4,Win32,120.4819277,67e9738d6bb6923faef4a165,687ed1b7e638a4cbf2f02089,68806671d58bb674b4900c09,,,,,,,,,,,,,,,,,,431.46,443.5643,0,1,1,1,1,,,,,,,,,,,,,,,,,,,,,,,,,,,,,,,,,,,,,,,,,,,,,,,,,,,,,,,,,,,,,,,,,,,,,,,,,,,,,,,,,,
,,,,,,,,,67e9738d6bb6923faef4a165,SPANISH,13 or older,"no, only English or Spanish",no,2025-07-22_23h38.41.207,empathy_intonation_perc,2024.2.4,Win32,120.4819277,67e9738d6bb6923faef4a165,687ed1b7e638a4cbf2f02089,68806671d58bb674b4900c09,,,,,,,,,,,,,,0,,./stim/wavs/cuban_statement_filler_Cocinabas-por-la-noche.wav,,,,,,,,,443.582,480.9927,1,0,36.8952,,0,0,0,4,1,,,,,,,,,,,,,,,,,,,,,,,,,,,,,,,,,,,,,,,,,,,,,,,,,,,,,,,,,,,,,,,,,,,,,,,
,,,,,,,,,67e9738d6bb6923faef4a165,SPANISH,13 or older,"no, only English or Spanish",no,2025-07-22_23h38.41.207,empathy_intonation_perc,2024.2.4,Win32,120.4819277,67e9738d6bb6923faef4a165,687ed1b7e638a4cbf2f02089,68806671d58bb674b4900c09,,,,,,,,,,,,,,1,,./stim/wavs/mexican_question_filler_Felipe-no-tiene-contrasena.wav,,,,,,,,,480.9933,495.1761,1,1,13.6681,,0,1,1,3,1,,,,,,,,,,,,,,,,,,,,,,,,,,,,,,,,,,,,,,,,,,,,,,,,,,,,,,,,,,,,,,,,,,,,,,,
,,,,,,,,,67e9738d6bb6923faef4a165,SPANISH,13 or older,"no, only English or Spanish",no,2025-07-22_23h38.41.207,empathy_intonation_perc,2024.2.4,Win32,120.4819277,67e9738d6bb6923faef4a165,687ed1b7e638a4cbf2f02089,68806671d58bb674b4900c09,,,,,,,,,,,,,,1,,./stim/wavs/argentine_question_filler_Mi-vecino-habla-mucho.wav,,,,,,,,,495.1766,508.3186,1,1,12.6268,,0,2,2,1,1,,,,,,,,,,,,,,,,,,,,,,,,,,,,,,,,,,,,,,,,,,,,,,,,,,,,,,,,,,,,,,,,,,,,,,,
,,,,,,,,,67e9738d6bb6923faef4a165,SPANISH,13 or older,"no, only English or Spanish",no,2025-07-22_23h38.41.207,empathy_intonation_perc,2024.2.4,Win32,120.4819277,67e9738d6bb6923faef4a165,687ed1b7e638a4cbf2f02089,68806671d58bb674b4900c09,,,,,,,,,,,,,,1,,./stim/wavs/castilian_question_filler_Mi-esposo-conoce-al-chico.wav,,,,,,,,,508.3193,520.9401,1,1,12.1096,,0,3,3,0,1,,,,,,,,,,,,,,,,,,,,,,,,,,,,,,,,,,,,,,,,,,,,,,,,,,,,,,,,,,,,,,,,,,,,,,,
,,,,,,,,,67e9738d6bb6923faef4a165,SPANISH,13 or older,"no, only English or Spanish",no,2025-07-22_23h38.41.207,empathy_intonation_perc,2024.2.4,Win32,120.4819277,67e9738d6bb6923faef4a165,687ed1b7e638a4cbf2f02089,68806671d58bb674b4900c09,,,,,,,,,,,,,,1,,./stim/wavs/chilean_question_filler_Mi-padre-cantaba-bien.wav,,,,,,,,,520.9405,531.6307,1,1,10.1759,,0,4,4,2,1,,,,,,,,,,,,,,,,,,,,,,,,,,,,,,,,,,,,,,,,,,,,,,,,,,,,,,,,,,,,,,,,,,,,,,,
,,,,,,,,,67e9738d6bb6923faef4a165,SPANISH,13 or older,"no, only English or Spanish",no,2025-07-22_23h38.41.207,empathy_intonation_perc,2024.2.4,Win32,120.4819277,67e9738d6bb6923faef4a165,687ed1b7e638a4cbf2f02089,68806671d58bb674b4900c09,,,,,,,,,,,,,,0,,./stim/wavs/peruvian_statement_filler_El-nino-habla-con-su-madre.wav,,,,,,,,,531.6313,544.0177,0,1,11.8737,,0,5,5,6,1,,,,,,,,,,,,,,,,,,,,,,,,,,,,,,,,,,,,,,,,,,,,,,,,,,,,,,,,,,,,,,,,,,,,,,,
,,,,,,,,,67e9738d6bb6923faef4a165,SPANISH,13 or older,"no, only English or Spanish",no,2025-07-22_23h38.41.207,empathy_intonation_perc,2024.2.4,Win32,120.4819277,67e9738d6bb6923faef4a165,687ed1b7e638a4cbf2f02089,68806671d58bb674b4900c09,,,,,,,,,,,,,,0,,./stim/wavs/puertorican_statement_filler_La-nina-pinta-con-su-amiga.wav,,,,,,,,,544.0194,563.5786,0,1,19.0452,,0,6,6,7,1,,,,,,,,,,,,,,,,,,,,,,,,,,,,,,,,,,,,,,,,,,,,,,,,,,,,,,,,,,,,,,,,,,,,,,,
,,,,,,,,,67e9738d6bb6923faef4a165,SPANISH,13 or older,"no, only English or Spanish",no,2025-07-22_23h38.41.207,empathy_intonation_perc,2024.2.4,Win32,120.4819277,67e9738d6bb6923faef4a165,687ed1b7e638a4cbf2f02089,68806671d58bb674b4900c09,,,,,,,,,,,,,,0,,./stim/wavs/andalusian_statement_filler_Alberto-nunca-se-afeita.wav,,,,,,,,,563.5792,574.8896,0,1,10.7966,,0,7,7,5,1,,,,,,,,,,,,,,,,,,,,,,,,,,,,,,,,,,,,,,,,,,,,,,,,,,,,,,,,,,,,,,,,,,,,,,,
,,,,,,,,,67e9738d6bb6923faef4a165,SPANISH,13 or older,"no, only English or Spanish",no,2025-07-22_23h38.41.207,empathy_intonation_perc,2024.2.4,Win32,120.4819277,67e9738d6bb6923faef4a165,687ed1b7e638a4cbf2f02089,68806671d58bb674b4900c09,,,,,,,,,,,,,,,,,,,,,,,,,,,,,,,,,,,,574.891,586.1101,,,,,,,,,,,,,,,,,,,,,,,,,,,,,,,,,,,,,,,,,,,,,,,,,,,,,,,,,,,,,,,,,,,,,
,,,,,,,,,67e9738d6bb6923faef4a165,SPANISH,13 or older,"no, only English or Spanish",no,2025-07-22_23h38.41.207,empathy_intonation_perc,2024.2.4,Win32,120.4819277,67e9738d6bb6923faef4a165,687ed1b7e638a4cbf2f02089,68806671d58bb674b4900c09,,,,,,,,,,,,,85,0,,./stim/wavs/puertorican_mismatch_declarative-broad-focus_El-hombre-mira-la-luna.wav,,,,,,,,,,,,,,,,,,,,,,586.1183,596.0934,0,1,9.4621,,0,0,0,84,1,0,puertorican,,,,,,,,,,,,,,,,,,,,,,,,,,,,,,,,,,,,,,,,,,,,,,,,,,,,,,,,
,,,,,,,,,67e9738d6bb6923faef4a165,SPANISH,13 or older,"no, only English or Spanish",no,2025-07-22_23h38.41.207,empathy_intonation_perc,2024.2.4,Win32,120.4819277,67e9738d6bb6923faef4a165,687ed1b7e638a4cbf2f02089,68806671d58bb674b4900c09,,,,,,,,,,,,,76,0,,./stim/wavs/cuban_mismatch_declarative-broad-focus_La-nina-lava-el-plato.wav,,,,,,,,,,,,,,,,,,,,,,596.0949,605.0629,0,1,8.4548,,0,1,1,75,1,0,cuban,,,,,,,,,,,,,,,,,,,,,,,,,,,,,,,,,,,,,,,,,,,,,,,,,,,,,,,,
,,,,,,,,,67e9738d6bb6923faef4a165,SPANISH,13 or older,"no, only English or Spanish",no,2025-07-22_23h38.41.207,empathy_intonation_perc,2024.2.4,Win32,120.4819277,67e9738d6bb6923faef4a165,687ed1b7e638a4cbf2f02089,68806671d58bb674b4900c09,,,,,,,,,,,,,72,0,,./stim/wavs/castilian_mismatch_declarative-broad-focus_Mi-novio-viene-del-lago.wav,,,,,,,,,,,,,,,,,,,,,,605.0638,615.241,0,1,9.6636,,0,2,2,71,1,0,castilian,,,,,,,,,,,,,,,,,,,,,,,,,,,,,,,,,,,,,,,,,,,,,,,,,,,,,,,,
,,,,,,,,,67e9738d6bb6923faef4a165,SPANISH,13 or older,"no, only English or Spanish",no,2025-07-22_23h38.41.207,empathy_intonation_perc,2024.2.4,Win32,120.4819277,67e9738d6bb6923faef4a165,687ed1b7e638a4cbf2f02089,68806671d58bb674b4900c09,,,,,,,,,,,,,58,0,,./stim/wavs/mexican_match_declarative-broad-focus_Daniel-iba-a-Bolivia.wav,,,,,,,,,,,,,,,,,,,,,,615.2419,624.4103,0,1,8.6557,,0,3,3,57,1,0,mexican,,,,,,,,,,,,,,,,,,,,,,,,,,,,,,,,,,,,,,,,,,,,,,,,,,,,,,,,
,,,,,,,,,67e9738d6bb6923faef4a165,SPANISH,13 or older,"no, only English or Spanish",no,2025-07-22_23h38.41.207,empathy_intonation_perc,2024.2.4,Win32,120.4819277,67e9738d6bb6923faef4a165,687ed1b7e638a4cbf2f02089,68806671d58bb674b4900c09,,,,,,,,,,,,,30,1,,./stim/wavs/cuban_mismatch_interrogative-total-yn_El-hombre-mira-la-luna.wav,,,,,,,,,,,,,,,,,,,,,,624.4112,636.6283,0,0,11.702,,0,4,4,29,1,1,cuban,,,,,,,,,,,,,,,,,,,,,,,,,,,,,,,,,,,,,,,,,,,,,,,,,,,,,,,,
,,,,,,,,,67e9738d6bb6923faef4a165,SPANISH,13 or older,"no, only English or Spanish",no,2025-07-22_23h38.41.207,empathy_intonation_perc,2024.2.4,Win32,120.4819277,67e9738d6bb6923faef4a165,687ed1b7e638a4cbf2f02089,68806671d58bb674b4900c09,,,,,,,,,,,,,45,0,,./stim/wavs/castilian_match_declarative-broad-focus_David-leia-el-libro.wav,,,,,,,,,,,,,,,,,,,,,,636.6288,671.5083,0,1,34.3571,,0,5,5,44,1,0,castilian,,,,,,,,,,,,,,,,,,,,,,,,,,,,,,,,,,,,,,,,,,,,,,,,,,,,,,,,
,,,,,,,,,67e9738d6bb6923faef4a165,SPANISH,13 or older,"no, only English or Spanish",no,2025-07-22_23h38.41.207,empathy_intonation_perc,2024.2.4,Win32,120.4819277,67e9738d6bb6923faef4a165,687ed1b7e638a4cbf2f02089,68806671d58bb674b4900c09,,,,,,,,,,,,,12,1,,./stim/wavs/cuban_match_interrogative-total-yn_Marta-abre-el-regalo.wav,,,,,,,,,,,,,,,,,,,,,,671.5088,682.5276,0,0,10.5089,,0,6,6,11,1,1,cuban,,,,,,,,,,,,,,,,,,,,,,,,,,,,,,,,,,,,,,,,,,,,,,,,,,,,,,,,
,,,,,,,,,67e9738d6bb6923faef4a165,SPANISH,13 or older,"no, only English or Spanish",no,2025-07-22_23h38.41.207,empathy_intonation_perc,2024.2.4,Win32,120.4819277,67e9738d6bb6923faef4a165,687ed1b7e638a4cbf2f02089,68806671d58bb674b4900c09,,,,,,,,,,,,,43,1,,./stim/wavs/puertorican_mismatch_interrogative-total-yn_La-nina-lava-el-plato.wav,,,,,,,,,,,,,,,,,,,,,,682.5281,698.901,1,1,15.8571,,0,7,7,42,1,1,puertorican,,,,,,,,,,,,,,,,,,,,,,,,,,,,,,,,,,,,,,,,,,,,,,,,,,,,,,,,
,,,,,,,,,67e9738d6bb6923faef4a165,SPANISH,13 or older,"no, only English or Spanish",no,2025-07-22_23h38.41.207,empathy_intonation_perc,2024.2.4,Win32,120.4819277,67e9738d6bb6923faef4a165,687ed1b7e638a4cbf2f02089,68806671d58bb674b4900c09,,,,,,,,,,,,,66,0,,./stim/wavs/puertorican_match_declarative-broad-focus_Emilio-ama-la-marcha.wav,,,,,,,,,,,,,,,,,,,,,,698.9019,716.1828,1,0,16.7657,,0,8,8,65,1,0,puertorican,,,,,,,,,,,,,,,,,,,,,,,,,,,,,,,,,,,,,,,,,,,,,,,,,,,,,,,,
,,,,,,,,,67e9738d6bb6923faef4a165,SPANISH,13 or older,"no, only English or Spanish",no,2025-07-22_23h38.41.207,empathy_intonation_perc,2024.2.4,Win32,120.4819277,67e9738d6bb6923faef4a165,687ed1b7e638a4cbf2f02089,68806671d58bb674b4900c09,,,,,,,,,,,,,53,0,,./stim/wavs/cuban_match_declarative-broad-focus_Manuela-vende-el-carro.wav,,,,,,,,,,,,,,,,,,,,,,716.1842,730.6079,0,1,13.9101,,0,9,9,52,1,0,cuban,,,,,,,,,,,,,,,,,,,,,,,,,,,,,,,,,,,,,,,,,,,,,,,,,,,,,,,,
,,,,,,,,,67e9738d6bb6923faef4a165,SPANISH,13 or older,"no, only English or Spanish",no,2025-07-22_23h38.41.207,empathy_intonation_perc,2024.2.4,Win32,120.4819277,67e9738d6bb6923faef4a165,687ed1b7e638a4cbf2f02089,68806671d58bb674b4900c09,,,,,,,,,,,,,40,1,,./stim/wavs/puertorican_mismatch_interrogative-total-yn_El-hombre-mira-la-luna.wav,,,,,,,,,,,,,,,,,,,,,,730.6094,745.284,1,1,14.1669,,0,10,10,39,1,1,puertorican,,,,,,,,,,,,,,,,,,,,,,,,,,,,,,,,,,,,,,,,,,,,,,,,,,,,,,,,
,,,,,,,,,67e9738d6bb6923faef4a165,SPANISH,13 or older,"no, only English or Spanish",no,2025-07-22_23h38.41.207,empathy_intonation_perc,2024.2.4,Win32,120.4819277,67e9738d6bb6923faef4a165,687ed1b7e638a4cbf2f02089,68806671d58bb674b4900c09,,,,,,,,,,,,,37,1,,./stim/wavs/mexican_mismatch_interrogative-total-yn_La-maestra-vive-en-Paris.wav,,,,,,,,,,,,,,,,,,,,,,745.2851,761.9733,0,0,16.17,,0,11,11,36,1,0,mexican,,,,,,,,,,,,,,,,,,,,,,,,,,,,,,,,,,,,,,,,,,,,,,,,,,,,,,,,
,,,,,,,,,67e9738d6bb6923faef4a165,SPANISH,13 or older,"no, only English or Spanish",no,2025-07-22_23h38.41.207,empathy_intonation_perc,2024.2.4,Win32,120.4819277,67e9738d6bb6923faef4a165,687ed1b7e638a4cbf2f02089,68806671d58bb674b4900c09,,,,,,,,,,,,,70,0,,./stim/wavs/castilian_mismatch_declarative-broad-focus_La-maestra-vive-en-Paris.wav,,,,,,,,,,,,,,,,,,,,,,761.9745,774.4495,0,1,11.9552,,0,12,12,69,1,0,castilian,,,,,,,,,,,,,,,,,,,,,,,,,,,,,,,,,,,,,,,,,,,,,,,,,,,,,,,,
,,,,,,,,,67e9738d6bb6923faef4a165,SPANISH,13 or older,"no, only English or Spanish",no,2025-07-22_23h38.41.207,empathy_intonation_perc,2024.2.4,Win32,120.4819277,67e9738d6bb6923faef4a165,687ed1b7e638a4cbf2f02089,68806671d58bb674b4900c09,,,,,,,,,,,,,5,1,,./stim/wavs/castilian_match_interrogative-total-yn_Mariano-habla-del-tiempo.wav,,,,,,,,,,,,,,,,,,,,,,774.451,787.3006,1,1,12.3361,,0,13,13,4,1,0,castilian,,,,,,,,,,,,,,,,,,,,,,,,,,,,,,,,,,,,,,,,,,,,,,,,,,,,,,,,
,,,,,,,,,67e9738d6bb6923faef4a165,SPANISH,13 or older,"no, only English or Spanish",no,2025-07-22_23h38.41.207,empathy_intonation_perc,2024.2.4,Win32,120.4819277,67e9738d6bb6923faef4a165,687ed1b7e638a4cbf2f02089,68806671d58bb674b4900c09,,,,,,,,,,,,,16,1,,./stim/wavs/mexican_match_interrogative-total-yn_Emilio-ama-la-marcha.wav,,,,,,,,,,,,,,,,,,,,,,787.3019,798.1441,0,0,10.3317,,0,14,14,15,1,0,mexican,,,,,,,,,,,,,,,,,,,,,,,,,,,,,,,,,,,,,,,,,,,,,,,,,,,,,,,,
,,,,,,,,,67e9738d6bb6923faef4a165,SPANISH,13 or older,"no, only English or Spanish",no,2025-07-22_23h38.41.207,empathy_intonation_perc,2024.2.4,Win32,120.4819277,67e9738d6bb6923faef4a165,687ed1b7e638a4cbf2f02089,68806671d58bb674b4900c09,,,,,,,,,,,,,10,1,,./stim/wavs/cuban_match_interrogative-total-yn_Maria-bebe-el-vino.wav,,,,,,,,,,,,,,,,,,,,,,798.1452,808.5663,0,0,9.91,,0,15,15,9,1,1,cuban,,,,,,,,,,,,,,,,,,,,,,,,,,,,,,,,,,,,,,,,,,,,,,,,,,,,,,,,
,,,,,,,,,67e9738d6bb6923faef4a165,SPANISH,13 or older,"no, only English or Spanish",no,2025-07-22_23h38.41.207,empathy_intonation_perc,2024.2.4,Win32,120.4819277,67e9738d6bb6923faef4a165,687ed1b7e638a4cbf2f02089,68806671d58bb674b4900c09,,,,,,,,,,,,,14,1,,./stim/wavs/mexican_match_interrogative-total-yn_Daniel-iba-a-Bolivia.wav,,,,,,,,,,,,,,,,,,,,,,808.5669,820.2983,0,0,11.2137,,0,16,16,13,1,0,mexican,,,,,,,,,,,,,,,,,,,,,,,,,,,,,,,,,,,,,,,,,,,,,,,,,,,,,,,,
,,,,,,,,,67e9738d6bb6923faef4a165,SPANISH,13 or older,"no, only English or Spanish",no,2025-07-22_23h38.41.207,empathy_intonation_perc,2024.2.4,Win32,120.4819277,67e9738d6bb6923faef4a165,687ed1b7e638a4cbf2f02089,68806671d58bb674b4900c09,,,,,,,,,,,,,2,1,,./stim/wavs/castilian_match_interrogative-total-yn_Emilio-ama-la-marcha.wav,,,,,,,,,,,,,,,,,,,,,,820.2997,878.3822,1,1,57.5741,,0,17,17,1,1,0,castilian,,,,,,,,,,,,,,,,,,,,,,,,,,,,,,,,,,,,,,,,,,,,,,,,,,,,,,,,
,,,,,,,,,67e9738d6bb6923faef4a165,SPANISH,13 or older,"no, only English or Spanish",no,2025-07-22_23h38.41.207,empathy_intonation_perc,2024.2.4,Win32,120.4819277,67e9738d6bb6923faef4a165,687ed1b7e638a4cbf2f02089,68806671d58bb674b4900c09,,,,,,,,,,,,,78,0,,./stim/wavs/cuban_mismatch_declarative-broad-focus_Mi-tia-odia-la-lluvia.wav,,,,,,,,,,,,,,,,,,,,,,878.3828,894.1086,0,1,15.2132,,0,18,18,77,1,0,cuban,,,,,,,,,,,,,,,,,,,,,,,,,,,,,,,,,,,,,,,,,,,,,,,,,,,,,,,,
,,,,,,,,,67e9738d6bb6923faef4a165,SPANISH,13 or older,"no, only English or Spanish",no,2025-07-22_23h38.41.207,empathy_intonation_perc,2024.2.4,Win32,120.4819277,67e9738d6bb6923faef4a165,687ed1b7e638a4cbf2f02089,68806671d58bb674b4900c09,,,,,,,,,,,,,57,0,,./stim/wavs/mexican_match_declarative-broad-focus_Ana-lleva-el-abrigo.wav,,,,,,,,,,,,,,,,,,,,,,894.1104,904.3838,0,1,9.7595,,0,19,19,56,1,0,mexican,,,,,,,,,,,,,,,,,,,,,,,,,,,,,,,,,,,,,,,,,,,,,,,,,,,,,,,,
,,,,,,,,,67e9738d6bb6923faef4a165,SPANISH,13 or older,"no, only English or Spanish",no,2025-07-22_23h38.41.207,empathy_intonation_perc,2024.2.4,Win32,120.4819277,67e9738d6bb6923faef4a165,687ed1b7e638a4cbf2f02089,68806671d58bb674b4900c09,,,,,,,,,,,,,28,1,,./stim/wavs/castilian_mismatch_interrogative-total-yn_Mi-novio-viene-del-lago.wav,,,,,,,,,,,,,,,,,,,,,,904.3843,916.119,1,1,11.2218,,0,20,20,27,1,0,castilian,,,,,,,,,,,,,,,,,,,,,,,,,,,,,,,,,,,,,,,,,,,,,,,,,,,,,,,,
,,,,,,,,,67e9738d6bb6923faef4a165,SPANISH,13 or older,"no, only English or Spanish",no,2025-07-22_23h38.41.207,empathy_intonation_perc,2024.2.4,Win32,120.4819277,67e9738d6bb6923faef4a165,687ed1b7e638a4cbf2f02089,68806671d58bb674b4900c09,,,,,,,,,,,,,48,0,,./stim/wavs/castilian_match_declarative-broad-focus_Maria-bebe-el-vino.wav,,,,,,,,,,,,,,,,,,,,,,916.1198,929.9357,0,1,13.3009,,0,21,21,47,1,0,castilian,,,,,,,,,,,,,,,,,,,,,,,,,,,,,,,,,,,,,,,,,,,,,,,,,,,,,,,,
,,,,,,,,,67e9738d6bb6923faef4a165,SPANISH,13 or older,"no, only English or Spanish",no,2025-07-22_23h38.41.207,empathy_intonation_perc,2024.2.4,Win32,120.4819277,67e9738d6bb6923faef4a165,687ed1b7e638a4cbf2f02089,68806671d58bb674b4900c09,,,,,,,,,,,,,74,0,,./stim/wavs/cuban_mismatch_declarative-broad-focus_El-bebe-comia-muy-bien.wav,,,,,,,,,,,,,,,,,,,,,,929.9366,946.1594,1,0,15.7089,,0,22,22,73,1,0,cuban,,,,,,,,,,,,,,,,,,,,,,,,,,,,,,,,,,,,,,,,,,,,,,,,,,,,,,,,
,,,,,,,,,67e9738d6bb6923faef4a165,SPANISH,13 or older,"no, only English or Spanish",no,2025-07-22_23h38.41.207,empathy_intonation_perc,2024.2.4,Win32,120.4819277,67e9738d6bb6923faef4a165,687ed1b7e638a4cbf2f02089,68806671d58bb674b4900c09,,,,,,,,,,,,,75,0,,./stim/wavs/cuban_mismatch_declarative-broad-focus_El-hombre-mira-la-luna.wav,,,,,,,,,,,,,,,,,,,,,,946.1599,955.7039,0,1,9.0307,,0,23,23,74,1,0,cuban,,,,,,,,,,,,,,,,,,,,,,,,,,,,,,,,,,,,,,,,,,,,,,,,,,,,,,,,
,,,,,,,,,67e9738d6bb6923faef4a165,SPANISH,13 or older,"no, only English or Spanish",no,2025-07-22_23h38.41.207,empathy_intonation_perc,2024.2.4,Win32,120.4819277,67e9738d6bb6923faef4a165,687ed1b7e638a4cbf2f02089,68806671d58bb674b4900c09,,,,,,,,,,,,,69,0,,./stim/wavs/castilian_mismatch_declarative-broad-focus_El-nino-oye-el-rio.wav,,,,,,,,,,,,,,,,,,,,,,955.7044,964.0078,0,1,7.787,,0,24,24,68,1,0,castilian,,,,,,,,,,,,,,,,,,,,,,,,,,,,,,,,,,,,,,,,,,,,,,,,,,,,,,,,
,,,,,,,,,67e9738d6bb6923faef4a165,SPANISH,13 or older,"no, only English or Spanish",no,2025-07-22_23h38.41.207,empathy_intonation_perc,2024.2.4,Win32,120.4819277,67e9738d6bb6923faef4a165,687ed1b7e638a4cbf2f02089,68806671d58bb674b4900c09,,,,,,,,,,,,,36,1,,./stim/wavs/mexican_mismatch_interrogative-total-yn_El-nino-oye-el-rio.wav,,,,,,,,,,,,,,,,,,,,,,964.0081,973.6021,1,1,9.0786,,0,25,25,35,1,0,mexican,,,,,,,,,,,,,,,,,,,,,,,,,,,,,,,,,,,,,,,,,,,,,,,,,,,,,,,,
,,,,,,,,,67e9738d6bb6923faef4a165,SPANISH,13 or older,"no, only English or Spanish",no,2025-07-22_23h38.41.207,empathy_intonation_perc,2024.2.4,Win32,120.4819277,67e9738d6bb6923faef4a165,687ed1b7e638a4cbf2f02089,68806671d58bb674b4900c09,,,,,,,,,,,,,71,0,,./stim/wavs/castilian_mismatch_declarative-broad-focus_La-nina-lava-el-plato.wav,,,,,,,,,,,,,,,,,,,,,,973.6026,986.4281,1,0,12.3127,,0,26,26,70,1,0,castilian,,,,,,,,,,,,,,,,,,,,,,,,,,,,,,,,,,,,,,,,,,,,,,,,,,,,,,,,
,,,,,,,,,67e9738d6bb6923faef4a165,SPANISH,13 or older,"no, only English or Spanish",no,2025-07-22_23h38.41.207,empathy_intonation_perc,2024.2.4,Win32,120.4819277,67e9738d6bb6923faef4a165,687ed1b7e638a4cbf2f02089,68806671d58bb674b4900c09,,,,,,,,,,,,,56,0,,./stim/wavs/cuban_match_declarative-broad-focus_Marta-abre-el-regalo.wav,,,,,,,,,,,,,,,,,,,,,,986.4285,1009.5357,0,1,22.5951,,0,27,27,55,1,0,cuban,,,,,,,,,,,,,,,,,,,,,,,,,,,,,,,,,,,,,,,,,,,,,,,,,,,,,,,,
,,,,,,,,,67e9738d6bb6923faef4a165,SPANISH,13 or older,"no, only English or Spanish",no,2025-07-22_23h38.41.207,empathy_intonation_perc,2024.2.4,Win32,120.4819277,67e9738d6bb6923faef4a165,687ed1b7e638a4cbf2f02089,68806671d58bb674b4900c09,,,,,,,,,,,,,18,1,,./stim/wavs/mexican_match_interrogative-total-yn_Marta-abre-el-regalo.wav,,,,,,,,,,,,,,,,,,,,,,1009.536,1020.5374,0,0,10.4856,,0,28,28,17,1,0,mexican,,,,,,,,,,,,,,,,,,,,,,,,,,,,,,,,,,,,,,,,,,,,,,,,,,,,,,,,
,,,,,,,,,67e9738d6bb6923faef4a165,SPANISH,13 or older,"no, only English or Spanish",no,2025-07-22_23h38.41.207,empathy_intonation_perc,2024.2.4,Win32,120.4819277,67e9738d6bb6923faef4a165,687ed1b7e638a4cbf2f02089,68806671d58bb674b4900c09,,,,,,,,,,,,,47,0,,./stim/wavs/castilian_match_declarative-broad-focus_Manuela-vende-el-carro.wav,,,,,,,,,,,,,,,,,,,,,,1020.5377,1029.6039,0,1,8.556,,0,29,29,46,1,0,castilian,,,,,,,,,,,,,,,,,,,,,,,,,,,,,,,,,,,,,,,,,,,,,,,,,,,,,,,,
,,,,,,,,,67e9738d6bb6923faef4a165,SPANISH,13 or older,"no, only English or Spanish",no,2025-07-22_23h38.41.207,empathy_intonation_perc,2024.2.4,Win32,120.4819277,67e9738d6bb6923faef4a165,687ed1b7e638a4cbf2f02089,68806671d58bb674b4900c09,,,,,,,,,,,,,33,1,,./stim/wavs/cuban_mismatch_interrogative-total-yn_Mi-novio-viene-del-lago.wav,,,,,,,,,,,,,,,,,,,,,,1029.6055,1038.2151,0,0,8.094,,0,30,30,32,1,1,cuban,,,,,,,,,,,,,,,,,,,,,,,,,,,,,,,,,,,,,,,,,,,,,,,,,,,,,,,,
,,,,,,,,,67e9738d6bb6923faef4a165,SPANISH,13 or older,"no, only English or Spanish",no,2025-07-22_23h38.41.207,empathy_intonation_perc,2024.2.4,Win32,120.4819277,67e9738d6bb6923faef4a165,687ed1b7e638a4cbf2f02089,68806671d58bb674b4900c09,,,,,,,,,,,,,60,0,,./stim/wavs/mexican_match_declarative-broad-focus_Emilio-ama-la-marcha.wav,,,,,,,,,,,,,,,,,,,,,,1038.2157,1046.494,0,1,7.7595,,0,31,31,59,1,0,mexican,,,,,,,,,,,,,,,,,,,,,,,,,,,,,,,,,,,,,,,,,,,,,,,,,,,,,,,,
,,,,,,,,,67e9738d6bb6923faef4a165,SPANISH,13 or older,"no, only English or Spanish",no,2025-07-22_23h38.41.207,empathy_intonation_perc,2024.2.4,Win32,120.4819277,67e9738d6bb6923faef4a165,687ed1b7e638a4cbf2f02089,68806671d58bb674b4900c09,,,,,,,,,,,,,4,1,,./stim/wavs/castilian_match_interrogative-total-yn_Maria-bebe-el-vino.wav,,,,,,,,,,,,,,,,,,,,,,1046.4954,1060.6356,1,1,13.629,,0,32,32,3,1,0,castilian,,,,,,,,,,,,,,,,,,,,,,,,,,,,,,,,,,,,,,,,,,,,,,,,,,,,,,,,
,,,,,,,,,67e9738d6bb6923faef4a165,SPANISH,13 or older,"no, only English or Spanish",no,2025-07-22_23h38.41.207,empathy_intonation_perc,2024.2.4,Win32,120.4819277,67e9738d6bb6923faef4a165,687ed1b7e638a4cbf2f02089,68806671d58bb674b4900c09,,,,,,,,,,,,,19,1,,./stim/wavs/puertorican_match_interrogative-total-yn_Ana-lleva-el-abrigo.wav,,,,,,,,,,,,,,,,,,,,,,1060.6369,1068.5728,1,1,7.4225,,0,33,33,18,1,1,puertorican,,,,,,,,,,,,,,,,,,,,,,,,,,,,,,,,,,,,,,,,,,,,,,,,,,,,,,,,
,,,,,,,,,67e9738d6bb6923faef4a165,SPANISH,13 or older,"no, only English or Spanish",no,2025-07-22_23h38.41.207,empathy_intonation_perc,2024.2.4,Win32,120.4819277,67e9738d6bb6923faef4a165,687ed1b7e638a4cbf2f02089,68806671d58bb674b4900c09,,,,,,,,,,,,,67,0,,./stim/wavs/puertorican_match_declarative-broad-focus_Manuela-vende-el-carro.wav,,,,,,,,,,,,,,,,,,,,,,1068.5757,1084.846,0,1,15.7573,,0,34,34,66,1,0,puertorican,,,,,,,,,,,,,,,,,,,,,,,,,,,,,,,,,,,,,,,,,,,,,,,,,,,,,,,,
,,,,,,,,,67e9738d6bb6923faef4a165,SPANISH,13 or older,"no, only English or Spanish",no,2025-07-22_23h38.41.207,empathy_intonation_perc,2024.2.4,Win32,120.4819277,67e9738d6bb6923faef4a165,687ed1b7e638a4cbf2f02089,68806671d58bb674b4900c09,,,,,,,,,,,,,20,1,,./stim/wavs/puertorican_match_interrogative-total-yn_Daniel-iba-a-Bolivia.wav,,,,,,,,,,,,,,,,,,,,,,1084.8479,1092.3177,0,0,6.9521,,0,35,35,19,1,1,puertorican,,,,,,,,,,,,,,,,,,,,,,,,,,,,,,,,,,,,,,,,,,,,,,,,,,,,,,,,
,,,,,,,,,67e9738d6bb6923faef4a165,SPANISH,13 or older,"no, only English or Spanish",no,2025-07-22_23h38.41.207,empathy_intonation_perc,2024.2.4,Win32,120.4819277,67e9738d6bb6923faef4a165,687ed1b7e638a4cbf2f02089,68806671d58bb674b4900c09,,,,,,,,,,,,,26,1,,./stim/wavs/castilian_mismatch_interrogative-total-yn_La-nina-lava-el-plato.wav,,,,,,,,,,,,,,,,,,,,,,1092.3182,1105.0686,1,1,12.2357,,0,36,36,25,1,0,castilian,,,,,,,,,,,,,,,,,,,,,,,,,,,,,,,,,,,,,,,,,,,,,,,,,,,,,,,,
,,,,,,,,,67e9738d6bb6923faef4a165,SPANISH,13 or older,"no, only English or Spanish",no,2025-07-22_23h38.41.207,empathy_intonation_perc,2024.2.4,Win32,120.4819277,67e9738d6bb6923faef4a165,687ed1b7e638a4cbf2f02089,68806671d58bb674b4900c09,,,,,,,,,,,,,13,1,,./stim/wavs/mexican_match_interrogative-total-yn_Ana-lleva-el-abrigo.wav,,,,,,,,,,,,,,,,,,,,,,1105.0689,1113.5886,1,1,8.0074,,0,37,37,12,1,0,mexican,,,,,,,,,,,,,,,,,,,,,,,,,,,,,,,,,,,,,,,,,,,,,,,,,,,,,,,,
,,,,,,,,,67e9738d6bb6923faef4a165,SPANISH,13 or older,"no, only English or Spanish",no,2025-07-22_23h38.41.207,empathy_intonation_perc,2024.2.4,Win32,120.4819277,67e9738d6bb6923faef4a165,687ed1b7e638a4cbf2f02089,68806671d58bb674b4900c09,,,,,,,,,,,,,7,1,,./stim/wavs/cuban_match_interrogative-total-yn_Ana-lleva-el-abrigo.wav,,,,,,,,,,,,,,,,,,,,,,1113.589,1121.2177,0,0,7.1127,,0,38,38,6,1,1,cuban,,,,,,,,,,,,,,,,,,,,,,,,,,,,,,,,,,,,,,,,,,,,,,,,,,,,,,,,
,,,,,,,,,67e9738d6bb6923faef4a165,SPANISH,13 or older,"no, only English or Spanish",no,2025-07-22_23h38.41.207,empathy_intonation_perc,2024.2.4,Win32,120.4819277,67e9738d6bb6923faef4a165,687ed1b7e638a4cbf2f02089,68806671d58bb674b4900c09,,,,,,,,,,,,,64,0,,./stim/wavs/puertorican_match_declarative-broad-focus_Daniel-iba-a-Bolivia.wav,,,,,,,,,,,,,,,,,,,,,,1121.2181,1136.535,0,1,14.8023,,0,39,39,63,1,0,puertorican,,,,,,,,,,,,,,,,,,,,,,,,,,,,,,,,,,,,,,,,,,,,,,,,,,,,,,,,
,,,,,,,,,67e9738d6bb6923faef4a165,SPANISH,13 or older,"no, only English or Spanish",no,2025-07-22_23h38.41.207,empathy_intonation_perc,2024.2.4,Win32,120.4819277,67e9738d6bb6923faef4a165,687ed1b7e638a4cbf2f02089,68806671d58bb674b4900c09,,,,,,,,,,,,,61,0,,./stim/wavs/mexican_match_declarative-broad-focus_Mariano-habla-del-tiempo.wav,,,,,,,,,,,,,,,,,,,,,,1136.5363,1170.5813,0,1,33.5345,,0,40,40,60,1,0,mexican,,,,,,,,,,,,,,,,,,,,,,,,,,,,,,,,,,,,,,,,,,,,,,,,,,,,,,,,
,,,,,,,,,67e9738d6bb6923faef4a165,SPANISH,13 or older,"no, only English or Spanish",no,2025-07-22_23h38.41.207,empathy_intonation_perc,2024.2.4,Win32,120.4819277,67e9738d6bb6923faef4a165,687ed1b7e638a4cbf2f02089,68806671d58bb674b4900c09,,,,,,,,,,,,,11,1,,./stim/wavs/cuban_match_interrogative-total-yn_Mariano-habla-del-tiempo.wav,,,,,,,,,,,,,,,,,,,,,,1170.5818,1188.9958,1,1,17.9019,,0,41,41,10,1,1,cuban,,,,,,,,,,,,,,,,,,,,,,,,,,,,,,,,,,,,,,,,,,,,,,,,,,,,,,,,
,,,,,,,,,67e9738d6bb6923faef4a165,SPANISH,13 or older,"no, only English or Spanish",no,2025-07-22_23h38.41.207,empathy_intonation_perc,2024.2.4,Win32,120.4819277,67e9738d6bb6923faef4a165,687ed1b7e638a4cbf2f02089,68806671d58bb674b4900c09,,,,,,,,,,,,,38,1,,./stim/wavs/mexican_mismatch_interrogative-total-yn_Mi-novio-viene-del-lago.wav,,,,,,,,,,,,,,,,,,,,,,1188.9965,1198.8652,1,1,9.3553,,0,42,42,37,1,0,mexican,,,,,,,,,,,,,,,,,,,,,,,,,,,,,,,,,,,,,,,,,,,,,,,,,,,,,,,,
,,,,,,,,,67e9738d6bb6923faef4a165,SPANISH,13 or older,"no, only English or Spanish",no,2025-07-22_23h38.41.207,empathy_intonation_perc,2024.2.4,Win32,120.4819277,67e9738d6bb6923faef4a165,687ed1b7e638a4cbf2f02089,68806671d58bb674b4900c09,,,,,,,,,,,,,24,1,,./stim/wavs/puertorican_match_interrogative-total-yn_Maria-bebe-el-vino.wav,,,,,,,,,,,,,,,,,,,,,,1198.866,1210.6665,0,0,11.2845,,0,43,43,23,1,1,puertorican,,,,,,,,,,,,,,,,,,,,,,,,,,,,,,,,,,,,,,,,,,,,,,,,,,,,,,,,
,,,,,,,,,67e9738d6bb6923faef4a165,SPANISH,13 or older,"no, only English or Spanish",no,2025-07-22_23h38.41.207,empathy_intonation_perc,2024.2.4,Win32,120.4819277,67e9738d6bb6923faef4a165,687ed1b7e638a4cbf2f02089,68806671d58bb674b4900c09,,,,,,,,,,,,,54,0,,./stim/wavs/cuban_match_declarative-broad-focus_Maria-bebe-el-vino.wav,,,,,,,,,,,,,,,,,,,,,,1210.6667,1221.1855,0,1,10.0041,,0,44,44,53,1,0,cuban,,,,,,,,,,,,,,,,,,,,,,,,,,,,,,,,,,,,,,,,,,,,,,,,,,,,,,,,
,,,,,,,,,67e9738d6bb6923faef4a165,SPANISH,13 or older,"no, only English or Spanish",no,2025-07-22_23h38.41.207,empathy_intonation_perc,2024.2.4,Win32,120.4819277,67e9738d6bb6923faef4a165,687ed1b7e638a4cbf2f02089,68806671d58bb674b4900c09,,,,,,,,,,,,,79,0,,./stim/wavs/mexican_mismatch_declarative-broad-focus_El-bebe-comia-muy-bien.wav,,,,,,,,,,,,,,,,,,,,,,1221.1858,1230.2809,0,1,8.5768,,0,45,45,78,1,0,mexican,,,,,,,,,,,,,,,,,,,,,,,,,,,,,,,,,,,,,,,,,,,,,,,,,,,,,,,,
,,,,,,,,,67e9738d6bb6923faef4a165,SPANISH,13 or older,"no, only English or Spanish",no,2025-07-22_23h38.41.207,empathy_intonation_perc,2024.2.4,Win32,120.4819277,67e9738d6bb6923faef4a165,687ed1b7e638a4cbf2f02089,68806671d58bb674b4900c09,,,,,,,,,,,,,25,1,,./stim/wavs/castilian_mismatch_interrogative-total-yn_La-maestra-vive-en-Paris.wav,,,,,,,,,,,,,,,,,,,,,,1230.2814,1242.9235,0,0,12.128,,0,46,46,24,1,0,castilian,,,,,,,,,,,,,,,,,,,,,,,,,,,,,,,,,,,,,,,,,,,,,,,,,,,,,,,,
,,,,,,,,,67e9738d6bb6923faef4a165,SPANISH,13 or older,"no, only English or Spanish",no,2025-07-22_23h38.41.207,empathy_intonation_perc,2024.2.4,Win32,120.4819277,67e9738d6bb6923faef4a165,687ed1b7e638a4cbf2f02089,68806671d58bb674b4900c09,,,,,,,,,,,,,49,0,,./stim/wavs/castilian_match_declarative-broad-focus_Mariano-habla-del-tiempo.wav,,,,,,,,,,,,,,,,,,,,,,1242.9245,1257.874,0,1,14.436,,0,47,47,48,1,0,castilian,,,,,,,,,,,,,,,,,,,,,,,,,,,,,,,,,,,,,,,,,,,,,,,,,,,,,,,,
,,,,,,,,,67e9738d6bb6923faef4a165,SPANISH,13 or older,"no, only English or Spanish",no,2025-07-22_23h38.41.207,empathy_intonation_perc,2024.2.4,Win32,120.4819277,67e9738d6bb6923faef4a165,687ed1b7e638a4cbf2f02089,68806671d58bb674b4900c09,,,,,,,,,,,,,88,0,,./stim/wavs/puertorican_mismatch_declarative-broad-focus_La-nina-lava-el-plato.wav,,,,,,,,,,,,,,,,,,,,,,1257.875,1267.6258,0,1,9.2337,,0,48,48,87,1,0,puertorican,,,,,,,,,,,,,,,,,,,,,,,,,,,,,,,,,,,,,,,,,,,,,,,,,,,,,,,,
,,,,,,,,,67e9738d6bb6923faef4a165,SPANISH,13 or older,"no, only English or Spanish",no,2025-07-22_23h38.41.207,empathy_intonation_perc,2024.2.4,Win32,120.4819277,67e9738d6bb6923faef4a165,687ed1b7e638a4cbf2f02089,68806671d58bb674b4900c09,,,,,,,,,,,,,59,0,,./stim/wavs/mexican_match_declarative-broad-focus_David-leia-el-libro.wav,,,,,,,,,,,,,,,,,,,,,,1267.6262,1286.0566,0,1,17.9127,,0,49,49,58,1,0,mexican,,,,,,,,,,,,,,,,,,,,,,,,,,,,,,,,,,,,,,,,,,,,,,,,,,,,,,,,
,,,,,,,,,67e9738d6bb6923faef4a165,SPANISH,13 or older,"no, only English or Spanish",no,2025-07-22_23h38.41.207,empathy_intonation_perc,2024.2.4,Win32,120.4819277,67e9738d6bb6923faef4a165,687ed1b7e638a4cbf2f02089,68806671d58bb674b4900c09,,,,,,,,,,,,,44,1,,./stim/wavs/puertorican_mismatch_interrogative-total-yn_Mi-madre-come-la-fruta.wav,,,,,,,,,,,,,,,,,,,,,,1286.057,1295.7847,0,0,9.212,,0,50,50,43,1,1,puertorican,,,,,,,,,,,,,,,,,,,,,,,,,,,,,,,,,,,,,,,,,,,,,,,,,,,,,,,,
,,,,,,,,,67e9738d6bb6923faef4a165,SPANISH,13 or older,"no, only English or Spanish",no,2025-07-22_23h38.41.207,empathy_intonation_perc,2024.2.4,Win32,120.4819277,67e9738d6bb6923faef4a165,687ed1b7e638a4cbf2f02089,68806671d58bb674b4900c09,,,,,,,,,,,,,21,1,,./stim/wavs/puertorican_match_interrogative-total-yn_David-leia-el-libro.wav,,,,,,,,,,,,,,,,,,,,,,1295.7853,1305.179,0,0,8.8824,,0,51,51,20,1,1,puertorican,,,,,,,,,,,,,,,,,,,,,,,,,,,,,,,,,,,,,,,,,,,,,,,,,,,,,,,,
,,,,,,,,,67e9738d6bb6923faef4a165,SPANISH,13 or older,"no, only English or Spanish",no,2025-07-22_23h38.41.207,empathy_intonation_perc,2024.2.4,Win32,120.4819277,67e9738d6bb6923faef4a165,687ed1b7e638a4cbf2f02089,68806671d58bb674b4900c09,,,,,,,,,,,,,51,0,,./stim/wavs/cuban_match_declarative-broad-focus_Ana-lleva-el-abrigo.wav,,,,,,,,,,,,,,,,,,,,,,1305.18,1329.0079,0,1,23.3149,,0,52,52,50,1,0,cuban,,,,,,,,,,,,,,,,,,,,,,,,,,,,,,,,,,,,,,,,,,,,,,,,,,,,,,,,
,,,,,,,,,67e9738d6bb6923faef4a165,SPANISH,13 or older,"no, only English or Spanish",no,2025-07-22_23h38.41.207,empathy_intonation_perc,2024.2.4,Win32,120.4819277,67e9738d6bb6923faef4a165,687ed1b7e638a4cbf2f02089,68806671d58bb674b4900c09,,,,,,,,,,,,,32,1,,./stim/wavs/cuban_mismatch_interrogative-total-yn_Mi-madre-come-la-fruta.wav,,,,,,,,,,,,,,,,,,,,,,1329.0094,1338.9596,0,0,9.435,,0,53,53,31,1,1,cuban,,,,,,,,,,,,,,,,,,,,,,,,,,,,,,,,,,,,,,,,,,,,,,,,,,,,,,,,
,,,,,,,,,67e9738d6bb6923faef4a165,SPANISH,13 or older,"no, only English or Spanish",no,2025-07-22_23h38.41.207,empathy_intonation_perc,2024.2.4,Win32,120.4819277,67e9738d6bb6923faef4a165,687ed1b7e638a4cbf2f02089,68806671d58bb674b4900c09,,,,,,,,,,,,,29,1,,./stim/wavs/castilian_mismatch_interrogative-total-yn_Mi-tia-odia-la-lluvia.wav,,,,,,,,,,,,,,,,,,,,,,1338.96,1350.6035,1,1,11.1251,,0,54,54,28,1,0,castilian,,,,,,,,,,,,,,,,,,,,,,,,,,,,,,,,,,,,,,,,,,,,,,,,,,,,,,,,
,,,,,,,,,67e9738d6bb6923faef4a165,SPANISH,13 or older,"no, only English or Spanish",no,2025-07-22_23h38.41.207,empathy_intonation_perc,2024.2.4,Win32,120.4819277,67e9738d6bb6923faef4a165,687ed1b7e638a4cbf2f02089,68806671d58bb674b4900c09,,,,,,,,,,,,,52,0,,./stim/wavs/cuban_match_declarative-broad-focus_Daniel-iba-a-Bolivia.wav,,,,,,,,,,,,,,,,,,,,,,1350.6039,1363.4513,0,1,12.3347,,0,55,55,51,1,0,cuban,,,,,,,,,,,,,,,,,,,,,,,,,,,,,,,,,,,,,,,,,,,,,,,,,,,,,,,,
,,,,,,,,,67e9738d6bb6923faef4a165,SPANISH,13 or older,"no, only English or Spanish",no,2025-07-22_23h38.41.207,empathy_intonation_perc,2024.2.4,Win32,120.4819277,67e9738d6bb6923faef4a165,687ed1b7e638a4cbf2f02089,68806671d58bb674b4900c09,,,,,,,,,,,,,77,0,,./stim/wavs/cuban_mismatch_declarative-broad-focus_Mi-novio-viene-del-lago.wav,,,,,,,,,,,,,,,,,,,,,,1363.4528,1373.0435,0,1,9.0863,,0,56,56,76,1,0,cuban,,,,,,,,,,,,,,,,,,,,,,,,,,,,,,,,,,,,,,,,,,,,,,,,,,,,,,,,
,,,,,,,,,67e9738d6bb6923faef4a165,SPANISH,13 or older,"no, only English or Spanish",no,2025-07-22_23h38.41.207,empathy_intonation_perc,2024.2.4,Win32,120.4819277,67e9738d6bb6923faef4a165,687ed1b7e638a4cbf2f02089,68806671d58bb674b4900c09,,,,,,,,,,,,,86,0,,./stim/wavs/puertorican_mismatch_declarative-broad-focus_El-nino-oye-el-rio.wav,,,,,,,,,,,,,,,,,,,,,,1373.0439,1382.8477,0,1,9.2941,,0,57,57,85,1,0,puertorican,,,,,,,,,,,,,,,,,,,,,,,,,,,,,,,,,,,,,,,,,,,,,,,,,,,,,,,,
,,,,,,,,,67e9738d6bb6923faef4a165,SPANISH,13 or older,"no, only English or Spanish",no,2025-07-22_23h38.41.207,empathy_intonation_perc,2024.2.4,Win32,120.4819277,67e9738d6bb6923faef4a165,687ed1b7e638a4cbf2f02089,68806671d58bb674b4900c09,,,,,,,,,,,,,63,0,,./stim/wavs/puertorican_match_declarative-broad-focus_Ana-lleva-el-abrigo.wav,,,,,,,,,,,,,,,,,,,,,,1382.85,1394.5996,0,1,11.2403,,0,58,58,62,1,0,puertorican,,,,,,,,,,,,,,,,,,,,,,,,,,,,,,,,,,,,,,,,,,,,,,,,,,,,,,,,
,,,,,,,,,67e9738d6bb6923faef4a165,SPANISH,13 or older,"no, only English or Spanish",no,2025-07-22_23h38.41.207,empathy_intonation_perc,2024.2.4,Win32,120.4819277,67e9738d6bb6923faef4a165,687ed1b7e638a4cbf2f02089,68806671d58bb674b4900c09,,,,,,,,,,,,,23,1,,./stim/wavs/puertorican_match_interrogative-total-yn_Manuela-vende-el-carro.wav,,,,,,,,,,,,,,,,,,,,,,1394.6008,1405.5669,0,0,10.4581,,0,59,59,22,1,1,puertorican,,,,,,,,,,,,,,,,,,,,,,,,,,,,,,,,,,,,,,,,,,,,,,,,,,,,,,,,
,,,,,,,,,67e9738d6bb6923faef4a165,SPANISH,13 or older,"no, only English or Spanish",no,2025-07-22_23h38.41.207,empathy_intonation_perc,2024.2.4,Win32,120.4819277,67e9738d6bb6923faef4a165,687ed1b7e638a4cbf2f02089,68806671d58bb674b4900c09,,,,,,,,,,,,,42,1,,./stim/wavs/puertorican_mismatch_interrogative-total-yn_La-maestra-vive-en-Paris.wav,,,,,,,,,,,,,,,,,,,,,,1405.5673,1417.6068,0,0,11.5226,,0,60,60,41,1,1,puertorican,,,,,,,,,,,,,,,,,,,,,,,,,,,,,,,,,,,,,,,,,,,,,,,,,,,,,,,,
,,,,,,,,,67e9738d6bb6923faef4a165,SPANISH,13 or older,"no, only English or Spanish",no,2025-07-22_23h38.41.207,empathy_intonation_perc,2024.2.4,Win32,120.4819277,67e9738d6bb6923faef4a165,687ed1b7e638a4cbf2f02089,68806671d58bb674b4900c09,,,,,,,,,,,,,83,0,,./stim/wavs/mexican_mismatch_declarative-broad-focus_Mi-tia-odia-la-lluvia.wav,,,,,,,,,,,,,,,,,,,,,,1417.6078,1429.3527,0,1,11.2343,,0,61,61,82,1,0,mexican,,,,,,,,,,,,,,,,,,,,,,,,,,,,,,,,,,,,,,,,,,,,,,,,,,,,,,,,
,,,,,,,,,67e9738d6bb6923faef4a165,SPANISH,13 or older,"no, only English or Spanish",no,2025-07-22_23h38.41.207,empathy_intonation_perc,2024.2.4,Win32,120.4819277,67e9738d6bb6923faef4a165,687ed1b7e638a4cbf2f02089,68806671d58bb674b4900c09,,,,,,,,,,,,,84,0,,./stim/wavs/puertorican_mismatch_declarative-broad-focus_El-bebe-comia-muy-bien.wav,,,,,,,,,,,,,,,,,,,,,,1429.3532,1440.2318,0,1,10.3699,,0,62,62,83,1,0,puertorican,,,,,,,,,,,,,,,,,,,,,,,,,,,,,,,,,,,,,,,,,,,,,,,,,,,,,,,,
,,,,,,,,,67e9738d6bb6923faef4a165,SPANISH,13 or older,"no, only English or Spanish",no,2025-07-22_23h38.41.207,empathy_intonation_perc,2024.2.4,Win32,120.4819277,67e9738d6bb6923faef4a165,687ed1b7e638a4cbf2f02089,68806671d58bb674b4900c09,,,,,,,,,,,,,65,0,,./stim/wavs/puertorican_match_declarative-broad-focus_David-leia-el-libro.wav,,,,,,,,,,,,,,,,,,,,,,1440.2326,1449.738,0,1,8.9895,,0,63,63,64,1,0,puertorican,,,,,,,,,,,,,,,,,,,,,,,,,,,,,,,,,,,,,,,,,,,,,,,,,,,,,,,,
,,,,,,,,,67e9738d6bb6923faef4a165,SPANISH,13 or older,"no, only English or Spanish",no,2025-07-22_23h38.41.207,empathy_intonation_perc,2024.2.4,Win32,120.4819277,67e9738d6bb6923faef4a165,687ed1b7e638a4cbf2f02089,68806671d58bb674b4900c09,,,,,,,,,,,,,34,1,,./stim/wavs/cuban_mismatch_interrogative-total-yn_Mi-tia-odia-la-lluvia.wav,,,,,,,,,,,,,,,,,,,,,,1449.7386,1460.8315,0,0,10.5787,,0,64,64,33,1,1,cuban,,,,,,,,,,,,,,,,,,,,,,,,,,,,,,,,,,,,,,,,,,,,,,,,,,,,,,,,
,,,,,,,,,67e9738d6bb6923faef4a165,SPANISH,13 or older,"no, only English or Spanish",no,2025-07-22_23h38.41.207,empathy_intonation_perc,2024.2.4,Win32,120.4819277,67e9738d6bb6923faef4a165,687ed1b7e638a4cbf2f02089,68806671d58bb674b4900c09,,,,,,,,,,,,,46,0,,./stim/wavs/castilian_match_declarative-broad-focus_Emilio-ama-la-marcha.wav,,,,,,,,,,,,,,,,,,,,,,1460.8319,1471.4009,0,1,10.0534,,0,65,65,45,1,0,castilian,,,,,,,,,,,,,,,,,,,,,,,,,,,,,,,,,,,,,,,,,,,,,,,,,,,,,,,,
,,,,,,,,,67e9738d6bb6923faef4a165,SPANISH,13 or older,"no, only English or Spanish",no,2025-07-22_23h38.41.207,empathy_intonation_perc,2024.2.4,Win32,120.4819277,67e9738d6bb6923faef4a165,687ed1b7e638a4cbf2f02089,68806671d58bb674b4900c09,,,,,,,,,,,,,15,1,,./stim/wavs/mexican_match_interrogative-total-yn_David-leia-el-libro.wav,,,,,,,,,,,,,,,,,,,,,,1471.4018,1481.5865,1,1,9.6718,,0,66,66,14,1,0,mexican,,,,,,,,,,,,,,,,,,,,,,,,,,,,,,,,,,,,,,,,,,,,,,,,,,,,,,,,
,,,,,,,,,67e9738d6bb6923faef4a165,SPANISH,13 or older,"no, only English or Spanish",no,2025-07-22_23h38.41.207,empathy_intonation_perc,2024.2.4,Win32,120.4819277,67e9738d6bb6923faef4a165,687ed1b7e638a4cbf2f02089,68806671d58bb674b4900c09,,,,,,,,,,,,,22,1,,./stim/wavs/puertorican_match_interrogative-total-yn_Emilio-ama-la-marcha.wav,,,,,,,,,,,,,,,,,,,,,,1481.5872,1491.256,0,0,9.1524,,0,67,67,21,1,1,puertorican,,,,,,,,,,,,,,,,,,,,,,,,,,,,,,,,,,,,,,,,,,,,,,,,,,,,,,,,
,,,,,,,,,67e9738d6bb6923faef4a165,SPANISH,13 or older,"no, only English or Spanish",no,2025-07-22_23h38.41.207,empathy_intonation_perc,2024.2.4,Win32,120.4819277,67e9738d6bb6923faef4a165,687ed1b7e638a4cbf2f02089,68806671d58bb674b4900c09,,,,,,,,,,,,,8,1,,./stim/wavs/cuban_match_interrogative-total-yn_Daniel-iba-a-Bolivia.wav,,,,,,,,,,,,,,,,,,,,,,1491.2567,1500.6754,0,0,8.9041,,0,68,68,7,1,1,cuban,,,,,,,,,,,,,,,,,,,,,,,,,,,,,,,,,,,,,,,,,,,,,,,,,,,,,,,,
,,,,,,,,,67e9738d6bb6923faef4a165,SPANISH,13 or older,"no, only English or Spanish",no,2025-07-22_23h38.41.207,empathy_intonation_perc,2024.2.4,Win32,120.4819277,67e9738d6bb6923faef4a165,687ed1b7e638a4cbf2f02089,68806671d58bb674b4900c09,,,,,,,,,,,,,3,1,,./stim/wavs/castilian_match_interrogative-total-yn_Manuela-vende-el-carro.wav,,,,,,,,,,,,,,,,,,,,,,1500.6759,1509.6709,1,1,8.4846,,0,69,69,2,1,0,castilian,,,,,,,,,,,,,,,,,,,,,,,,,,,,,,,,,,,,,,,,,,,,,,,,,,,,,,,,
,,,,,,,,,67e9738d6bb6923faef4a165,SPANISH,13 or older,"no, only English or Spanish",no,2025-07-22_23h38.41.207,empathy_intonation_perc,2024.2.4,Win32,120.4819277,67e9738d6bb6923faef4a165,687ed1b7e638a4cbf2f02089,68806671d58bb674b4900c09,,,,,,,,,,,,,6,1,,./stim/wavs/castilian_match_interrogative-total-yn_Marta-abre-el-regalo.wav,,,,,,,,,,,,,,,,,,,,,,1509.6719,1519.2659,1,1,9.0806,,0,70,70,5,1,0,castilian,,,,,,,,,,,,,,,,,,,,,,,,,,,,,,,,,,,,,,,,,,,,,,,,,,,,,,,,
,,,,,,,,,67e9738d6bb6923faef4a165,SPANISH,13 or older,"no, only English or Spanish",no,2025-07-22_23h38.41.207,empathy_intonation_perc,2024.2.4,Win32,120.4819277,67e9738d6bb6923faef4a165,687ed1b7e638a4cbf2f02089,68806671d58bb674b4900c09,,,,,,,,,,,,,31,1,,./stim/wavs/cuban_mismatch_interrogative-total-yn_El-nino-oye-el-rio.wav,,,,,,,,,,,,,,,,,,,,,,1519.2672,1528.7102,0,0,8.9305,,0,71,71,30,1,1,cuban,,,,,,,,,,,,,,,,,,,,,,,,,,,,,,,,,,,,,,,,,,,,,,,,,,,,,,,,
,,,,,,,,,67e9738d6bb6923faef4a165,SPANISH,13 or older,"no, only English or Spanish",no,2025-07-22_23h38.41.207,empathy_intonation_perc,2024.2.4,Win32,120.4819277,67e9738d6bb6923faef4a165,687ed1b7e638a4cbf2f02089,68806671d58bb674b4900c09,,,,,,,,,,,,,35,1,,./stim/wavs/mexican_mismatch_interrogative-total-yn_El-hombre-mira-la-luna.wav,,,,,,,,,,,,,,,,,,,,,,1528.7108,1536.8215,1,1,7.5956,,0,72,72,34,1,0,mexican,,,,,,,,,,,,,,,,,,,,,,,,,,,,,,,,,,,,,,,,,,,,,,,,,,,,,,,,
,,,,,,,,,67e9738d6bb6923faef4a165,SPANISH,13 or older,"no, only English or Spanish",no,2025-07-22_23h38.41.207,empathy_intonation_perc,2024.2.4,Win32,120.4819277,67e9738d6bb6923faef4a165,687ed1b7e638a4cbf2f02089,68806671d58bb674b4900c09,,,,,,,,,,,,,55,0,,./stim/wavs/cuban_match_declarative-broad-focus_Mariano-habla-del-tiempo.wav,,,,,,,,,,,,,,,,,,,,,,1536.822,1545.2334,0,1,7.8952,,0,73,73,54,1,0,cuban,,,,,,,,,,,,,,,,,,,,,,,,,,,,,,,,,,,,,,,,,,,,,,,,,,,,,,,,
,,,,,,,,,67e9738d6bb6923faef4a165,SPANISH,13 or older,"no, only English or Spanish",no,2025-07-22_23h38.41.207,empathy_intonation_perc,2024.2.4,Win32,120.4819277,67e9738d6bb6923faef4a165,687ed1b7e638a4cbf2f02089,68806671d58bb674b4900c09,,,,,,,,,,,,,82,0,,./stim/wavs/mexican_mismatch_declarative-broad-focus_Mi-novio-viene-del-lago.wav,,,,,,,,,,,,,,,,,,,,,,1545.2338,1554.0288,0,1,8.2805,,0,74,74,81,1,0,mexican,,,,,,,,,,,,,,,,,,,,,,,,,,,,,,,,,,,,,,,,,,,,,,,,,,,,,,,,
,,,,,,,,,67e9738d6bb6923faef4a165,SPANISH,13 or older,"no, only English or Spanish",no,2025-07-22_23h38.41.207,empathy_intonation_perc,2024.2.4,Win32,120.4819277,67e9738d6bb6923faef4a165,687ed1b7e638a4cbf2f02089,68806671d58bb674b4900c09,,,,,,,,,,,,,62,0,,./stim/wavs/mexican_match_declarative-broad-focus_Marta-abre-el-regalo.wav,,,,,,,,,,,,,,,,,,,,,,1554.0292,1564.2814,0,1,9.7374,,0,75,75,61,1,0,mexican,,,,,,,,,,,,,,,,,,,,,,,,,,,,,,,,,,,,,,,,,,,,,,,,,,,,,,,,
,,,,,,,,,67e9738d6bb6923faef4a165,SPANISH,13 or older,"no, only English or Spanish",no,2025-07-22_23h38.41.207,empathy_intonation_perc,2024.2.4,Win32,120.4819277,67e9738d6bb6923faef4a165,687ed1b7e638a4cbf2f02089,68806671d58bb674b4900c09,,,,,,,,,,,,,73,0,,./stim/wavs/castilian_mismatch_declarative-broad-focus_Mi-tia-odia-la-lluvia.wav,,,,,,,,,,,,,,,,,,,,,,1564.2819,1574.0586,0,1,9.2612,,0,76,76,72,1,0,castilian,,,,,,,,,,,,,,,,,,,,,,,,,,,,,,,,,,,,,,,,,,,,,,,,,,,,,,,,
,,,,,,,,,67e9738d6bb6923faef4a165,SPANISH,13 or older,"no, only English or Spanish",no,2025-07-22_23h38.41.207,empathy_intonation_perc,2024.2.4,Win32,120.4819277,67e9738d6bb6923faef4a165,687ed1b7e638a4cbf2f02089,68806671d58bb674b4900c09,,,,,,,,,,,,,50,0,,./stim/wavs/castilian_match_declarative-broad-focus_Marta-abre-el-regalo.wav,,,,,,,,,,,,,,,,,,,,,,1574.0589,1582.3459,0,1,7.7714,,0,77,77,49,1,0,castilian,,,,,,,,,,,,,,,,,,,,,,,,,,,,,,,,,,,,,,,,,,,,,,,,,,,,,,,,
,,,,,,,,,67e9738d6bb6923faef4a165,SPANISH,13 or older,"no, only English or Spanish",no,2025-07-22_23h38.41.207,empathy_intonation_perc,2024.2.4,Win32,120.4819277,67e9738d6bb6923faef4a165,687ed1b7e638a4cbf2f02089,68806671d58bb674b4900c09,,,,,,,,,,,,,68,0,,./stim/wavs/puertorican_match_declarative-broad-focus_Maria-bebe-el-vino.wav,,,,,,,,,,,,,,,,,,,,,,1582.3468,1591.8484,1,0,8.9846,,0,78,78,67,1,0,puertorican,,,,,,,,,,,,,,,,,,,,,,,,,,,,,,,,,,,,,,,,,,,,,,,,,,,,,,,,
,,,,,,,,,67e9738d6bb6923faef4a165,SPANISH,13 or older,"no, only English or Spanish",no,2025-07-22_23h38.41.207,empathy_intonation_perc,2024.2.4,Win32,120.4819277,67e9738d6bb6923faef4a165,687ed1b7e638a4cbf2f02089,68806671d58bb674b4900c09,,,,,,,,,,,,,81,0,,./stim/wavs/mexican_mismatch_declarative-broad-focus_La-maestra-vive-en-Paris.wav,,,,,,,,,,,,,,,,,,,,,,1591.8489,1599.8273,0,1,7.4666,,0,79,79,80,1,0,mexican,,,,,,,,,,,,,,,,,,,,,,,,,,,,,,,,,,,,,,,,,,,,,,,,,,,,,,,,
,,,,,,,,,67e9738d6bb6923faef4a165,SPANISH,13 or older,"no, only English or Spanish",no,2025-07-22_23h38.41.207,empathy_intonation_perc,2024.2.4,Win32,120.4819277,67e9738d6bb6923faef4a165,687ed1b7e638a4cbf2f02089,68806671d58bb674b4900c09,,,,,,,,,,,,,39,1,,./stim/wavs/mexican_mismatch_interrogative-total-yn_Mi-tia-odia-la-lluvia.wav,,,,,,,,,,,,,,,,,,,,,,1599.8277,1620.1072,1,1,19.7657,,0,80,80,38,1,0,mexican,,,,,,,,,,,,,,,,,,,,,,,,,,,,,,,,,,,,,,,,,,,,,,,,,,,,,,,,
,,,,,,,,,67e9738d6bb6923faef4a165,SPANISH,13 or older,"no, only English or Spanish",no,2025-07-22_23h38.41.207,empathy_intonation_perc,2024.2.4,Win32,120.4819277,67e9738d6bb6923faef4a165,687ed1b7e638a4cbf2f02089,68806671d58bb674b4900c09,,,,,,,,,,,,,9,1,,./stim/wavs/cuban_match_interrogative-total-yn_Manuela-vende-el-carro.wav,,,,,,,,,,,,,,,,,,,,,,1620.1076,1633.1191,0,0,12.4981,,0,81,81,8,1,1,cuban,,,,,,,,,,,,,,,,,,,,,,,,,,,,,,,,,,,,,,,,,,,,,,,,,,,,,,,,
,,,,,,,,,67e9738d6bb6923faef4a165,SPANISH,13 or older,"no, only English or Spanish",no,2025-07-22_23h38.41.207,empathy_intonation_perc,2024.2.4,Win32,120.4819277,67e9738d6bb6923faef4a165,687ed1b7e638a4cbf2f02089,68806671d58bb674b4900c09,,,,,,,,,,,,,27,1,,./stim/wavs/castilian_mismatch_interrogative-total-yn_Mi-madre-come-la-fruta.wav,,,,,,,,,,,,,,,,,,,,,,1633.1195,1647.5336,1,1,13.9007,,0,82,82,26,1,0,castilian,,,,,,,,,,,,,,,,,,,,,,,,,,,,,,,,,,,,,,,,,,,,,,,,,,,,,,,,
,,,,,,,,,67e9738d6bb6923faef4a165,SPANISH,13 or older,"no, only English or Spanish",no,2025-07-22_23h38.41.207,empathy_intonation_perc,2024.2.4,Win32,120.4819277,67e9738d6bb6923faef4a165,687ed1b7e638a4cbf2f02089,68806671d58bb674b4900c09,,,,,,,,,,,,,80,0,,./stim/wavs/mexican_mismatch_declarative-broad-focus_El-hombre-mira-la-luna.wav,,,,,,,,,,,,,,,,,,,,,,1647.535,1659.968,0,1,11.9204,,0,83,83,79,1,0,mexican,,,,,,,,,,,,,,,,,,,,,,,,,,,,,,,,,,,,,,,,,,,,,,,,,,,,,,,,
,,,,,,,,,67e9738d6bb6923faef4a165,SPANISH,13 or older,"no, only English or Spanish",no,2025-07-22_23h38.41.207,empathy_intonation_perc,2024.2.4,Win32,120.4819277,67e9738d6bb6923faef4a165,687ed1b7e638a4cbf2f02089,68806671d58bb674b4900c09,,,,,,,,,,,,,41,1,,./stim/wavs/puertorican_mismatch_interrogative-total-yn_El-nino-oye-el-rio.wav,,,,,,,,,,,,,,,,,,,,,,1659.9695,1672.8562,0,0,12.3766,,0,84,84,40,1,1,puertorican,,,,,,,,,,,,,,,,,,,,,,,,,,,,,,,,,,,,,,,,,,,,,,,,,,,,,,,,
,,,,,,,,,67e9738d6bb6923faef4a165,SPANISH,13 or older,"no, only English or Spanish",no,2025-07-22_23h38.41.207,empathy_intonation_perc,2024.2.4,Win32,120.4819277,67e9738d6bb6923faef4a165,687ed1b7e638a4cbf2f02089,68806671d58bb674b4900c09,,,,,,,,,,,,,17,1,,./stim/wavs/mexican_match_interrogative-total-yn_Mariano-habla-del-tiempo.wav,,,,,,,,,,,,,,,,,,,,,,1672.8568,1685.4867,1,1,12.1129,,0,85,85,16,1,0,mexican,,,,,,,,,,,,,,,,,,,,,,,,,,,,,,,,,,,,,,,,,,,,,,,,,,,,,,,,
,,,,,,,,,67e9738d6bb6923faef4a165,SPANISH,13 or older,"no, only English or Spanish",no,2025-07-22_23h38.41.207,empathy_intonation_perc,2024.2.4,Win32,120.4819277,67e9738d6bb6923faef4a165,687ed1b7e638a4cbf2f02089,68806671d58bb674b4900c09,,,,,,,,,,,,,1,1,,./stim/wavs/castilian_match_interrogative-total-yn_David-leia-el-libro.wav,,,,,,,,,,,,,,,,,,,,,,1685.4874,1696.2641,1,1,10.261,,0,86,86,0,1,0,castilian,,,,,,,,,,,,,,,,,,,,,,,,,,,,,,,,,,,,,,,,,,,,,,,,,,,,,,,,
,,,,,,,,,67e9738d6bb6923faef4a165,SPANISH,13 or older,"no, only English or Spanish",no,2025-07-22_23h38.41.207,empathy_intonation_perc,2024.2.4,Win32,120.4819277,67e9738d6bb6923faef4a165,687ed1b7e638a4cbf2f02089,68806671d58bb674b4900c09,,,,,,,,,,,,,87,0,,./stim/wavs/puertorican_mismatch_declarative-broad-focus_La-maestra-vive-en-Paris.wav,,,,,,,,,,,,,,,,,,,,,,1696.2649,1708.0941,0,1,11.3183,,0,87,87,86,1,0,puertorican,,,,,,,,,,,,,,,,,,,,,,,,,,,,,,,,,,,,,,,,,,,,,,,,,,,,,,,,
,,,,,,,"Great! Now we will move on. The next task consists of about 60 trials, in each of which you will see a string of letters. 
  
  Your task is to decide whether this is a real Spanish word or not.", (press the spacebar to continue),67e9738d6bb6923faef4a165,SPANISH,13 or older,"no, only English or Spanish",no,2025-07-22_23h38.41.207,empathy_intonation_perc,2024.2.4,Win32,120.4819277,67e9738d6bb6923faef4a165,687ed1b7e638a4cbf2f02089,68806671d58bb674b4900c09,,,,,,,,,,,,,,,,,,,,,,,,,,,,,,,,,,,,,,,,,,,,,,,,,,,1708.1119,1755.2551,0,0,0,0,1,,,,,,,,,,,,,,,,,,,,,,,,,,,,,,,,,,,,,,,,,,,,,,,,,
,,,,,,,"If you think it is an existing Spanish word, you type '1' (for 'REAL'), and if you think it is not an existing Spanish word, you type '0' (for 'FAKE').", (press the spacebar to continue),67e9738d6bb6923faef4a165,SPANISH,13 or older,"no, only English or Spanish",no,2025-07-22_23h38.41.207,empathy_intonation_perc,2024.2.4,Win32,120.4819277,67e9738d6bb6923faef4a165,687ed1b7e638a4cbf2f02089,68806671d58bb674b4900c09,,,,,,,,,,,,,,,,,,,,,,,,,,,,,,,,,,,,,,,,,,,,,,,,,,,1755.2579,1763.5262,0,1,1,1,1,,,,,,,,,,,,,,,,,,,,,,,,,,,,,,,,,,,,,,,,,,,,,,,,,
,,,,,,,"If you are sure that the word exists, even though you don’t know its exact meaning, you may still respond '1' (REAL). 
  
  But if you are not sure if it is an existing word, you should respond '0' (FAKE).
  
  Let's do a practice round...", (press the spacebar to continue),67e9738d6bb6923faef4a165,SPANISH,13 or older,"no, only English or Spanish",no,2025-07-22_23h38.41.207,empathy_intonation_perc,2024.2.4,Win32,120.4819277,67e9738d6bb6923faef4a165,687ed1b7e638a4cbf2f02089,68806671d58bb674b4900c09,,,,,,,,,,,,,,,,,,,,,,,,,,,,,,,,,,,,,,,,,,,,,,,,,,,1763.5327,1800.4962,0,2,2,2,1,,,,,,,,,,,,,,,,,,,,,,,,,,,,,,,,,,,,,,,,,,,,,,,,,
,,,,,,,,,67e9738d6bb6923faef4a165,SPANISH,13 or older,"no, only English or Spanish",no,2025-07-22_23h38.41.207,empathy_intonation_perc,2024.2.4,Win32,120.4819277,67e9738d6bb6923faef4a165,687ed1b7e638a4cbf2f02089,68806671d58bb674b4900c09,,,,,,,,,,,,,,0,,,,,,,,,,,,,,,,,,,,,,,,,,,,,,,,,,,,,,,,,,,,1800.5031,1817.5121,0,1,16.4966,,1817.5135,1818.5105,0,0,0,0,1,0,depiste,REAL,FAKE,,,,,,,,,,,,,,,,,,,,,,,,,,,,,,,,
,,,,,,,,,67e9738d6bb6923faef4a165,SPANISH,13 or older,"no, only English or Spanish",no,2025-07-22_23h38.41.207,empathy_intonation_perc,2024.2.4,Win32,120.4819277,67e9738d6bb6923faef4a165,687ed1b7e638a4cbf2f02089,68806671d58bb674b4900c09,,,,,,,,,,,,,,1,,,,,,,,,,,,,,,,,,,,,,,,,,,,,,,,,,,,,,,,,,,,1818.5126,1832.1192,1,1,13.0847,,1832.1193,1833.1186,0,1,1,1,1,0,sí,REAL,FAKE,,,,,,,,,,,,,,,,,,,,,,,,,,,,,,,,
,,,,,,,,,67e9738d6bb6923faef4a165,SPANISH,13 or older,"no, only English or Spanish",no,2025-07-22_23h38.41.207,empathy_intonation_perc,2024.2.4,Win32,120.4819277,67e9738d6bb6923faef4a165,687ed1b7e638a4cbf2f02089,68806671d58bb674b4900c09,,,,,,,,,,,,,,0,,,,,,,,,,,,,,,,,,,,,,,,,,,,,,,,,,,,,,,,,,,,1833.1207,1841.9718,0,1,8.3301,,1841.9718,1842.9721,0,2,2,2,1,0,coné,REAL,FAKE,,,,,,,,,,,,,,,,,,,,,,,,,,,,,,,,
,,,,,,,,,67e9738d6bb6923faef4a165,SPANISH,13 or older,"no, only English or Spanish",no,2025-07-22_23h38.41.207,empathy_intonation_perc,2024.2.4,Win32,120.4819277,67e9738d6bb6923faef4a165,687ed1b7e638a4cbf2f02089,68806671d58bb674b4900c09,,,,,,,,,,,,,,0,,,,,,,,,,,,,,,,,,,,,,,,,,,,,,,,,,,,,,,,,,,,1842.9754,1852.2083,0,1,8.7093,,1852.2084,1853.2079,0,3,3,3,1,0,calpar,REAL,FAKE,,,,,,,,,,,,,,,,,,,,,,,,,,,,,,,,
,,,,,,,,,67e9738d6bb6923faef4a165,SPANISH,13 or older,"no, only English or Spanish",no,2025-07-22_23h38.41.207,empathy_intonation_perc,2024.2.4,Win32,120.4819277,67e9738d6bb6923faef4a165,687ed1b7e638a4cbf2f02089,68806671d58bb674b4900c09,,,,,,,,,,,,,,0,,,,,,,,,,,,,,,,,,,,,,,,,,,,,,,,,,,,,,,,,,,,1853.209,1860.0535,0,1,6.3282,,1860.0536,1861.0533,0,4,4,4,1,0,joten,REAL,FAKE,,,,,,,,,,,,,,,,,,,,,,,,,,,,,,,,
,,,,,,,,,67e9738d6bb6923faef4a165,SPANISH,13 or older,"no, only English or Spanish",no,2025-07-22_23h38.41.207,empathy_intonation_perc,2024.2.4,Win32,120.4819277,67e9738d6bb6923faef4a165,687ed1b7e638a4cbf2f02089,68806671d58bb674b4900c09,,,,,,,,,,,,,,1,,,,,,,,,,,,,,,,,,,,,,,,,,,,,,,,,,,,,,,,,,,,1861.0551,1872.8215,1,1,11.2463,,1872.8217,1873.8204,0,5,5,5,1,0,sacapuntas,REAL,FAKE,,,,,,,,,,,,,,,,,,,,,,,,,,,,,,,,
,,,,,,,,,67e9738d6bb6923faef4a165,SPANISH,13 or older,"no, only English or Spanish",no,2025-07-22_23h38.41.207,empathy_intonation_perc,2024.2.4,Win32,120.4819277,67e9738d6bb6923faef4a165,687ed1b7e638a4cbf2f02089,68806671d58bb674b4900c09,,,,,,,,,,,,,,0,,,,,,,,,,,,,,,,,,,,,,,,,,,,,,,,,,,,,,,,,,,,1873.8213,1882.9902,0,1,8.6544,,1882.9902,1883.9903,0,6,6,6,1,0,priba,REAL,FAKE,,,,,,,,,,,,,,,,,,,,,,,,,,,,,,,,
,,,,,,,,,67e9738d6bb6923faef4a165,SPANISH,13 or older,"no, only English or Spanish",no,2025-07-22_23h38.41.207,empathy_intonation_perc,2024.2.4,Win32,120.4819277,67e9738d6bb6923faef4a165,687ed1b7e638a4cbf2f02089,68806671d58bb674b4900c09,,,,,,,,,,,,,,0,,,,,,,,,,,,,,,,,,,,,,,,,,,,,,,,,,,,,,,,,,,,1883.991,1894.0505,0,1,9.5433,,1894.0506,1895.0499,0,7,7,7,1,0,pelasula,REAL,FAKE,,,,,,,,,,,,,,,,,,,,,,,,,,,,,,,,
,,,,,,,,,67e9738d6bb6923faef4a165,SPANISH,13 or older,"no, only English or Spanish",no,2025-07-22_23h38.41.207,empathy_intonation_perc,2024.2.4,Win32,120.4819277,67e9738d6bb6923faef4a165,687ed1b7e638a4cbf2f02089,68806671d58bb674b4900c09,,,,,,,,,,,,,,1,,,,,,,,,,,,,,,,,,,,,,,,,,,,,,,,,,,,,,,,,,,,1895.0506,1904.4618,1,1,8.8934,,1904.4619,1905.4612,0,8,8,8,1,0,bien,REAL,FAKE,,,,,,,,,,,,,,,,,,,,,,,,,,,,,,,,
,,,,,,,,,67e9738d6bb6923faef4a165,SPANISH,13 or older,"no, only English or Spanish",no,2025-07-22_23h38.41.207,empathy_intonation_perc,2024.2.4,Win32,120.4819277,67e9738d6bb6923faef4a165,687ed1b7e638a4cbf2f02089,68806671d58bb674b4900c09,,,,,,,,,,,,,,1,,,,,,,,,,,,,,,,,,,,,,,,,,,,,,,,,,,,,,,,,,,,1905.4619,1914.2723,1,1,8.294,,1914.2723,1915.2724,0,9,9,9,1,0,casa,REAL,FAKE,,,,,,,,,,,,,,,,,,,,,,,,,,,,,,,,
,,,,,,,,,67e9738d6bb6923faef4a165,SPANISH,13 or older,"no, only English or Spanish",no,2025-07-22_23h38.41.207,empathy_intonation_perc,2024.2.4,Win32,120.4819277,67e9738d6bb6923faef4a165,687ed1b7e638a4cbf2f02089,68806671d58bb674b4900c09,,,,,,,,,,,,,,0,,,,,,,,,,,,,,,,,,,,,,,,,,,,,,,,,,,,,,,,,,,,1915.2734,1927.6172,0,1,11.829,,1927.6174,1928.6154,0,10,10,10,1,0,lejo,REAL,FAKE,,,,,,,,,,,,,,,,,,,,,,,,,,,,,,,,
,,,,,,,,,67e9738d6bb6923faef4a165,SPANISH,13 or older,"no, only English or Spanish",no,2025-07-22_23h38.41.207,empathy_intonation_perc,2024.2.4,Win32,120.4819277,67e9738d6bb6923faef4a165,687ed1b7e638a4cbf2f02089,68806671d58bb674b4900c09,,,,,,,,,,,,,,0,,,,,,,,,,,,,,,,,,,,,,,,,,,,,,,,,,,,,,,,,,,,1928.6185,1939.4578,0,1,10.3139,,1939.4579,1940.4572,0,11,11,11,1,0,pretantas,REAL,FAKE,,,,,,,,,,,,,,,,,,,,,,,,,,,,,,,,
,,,,,,,,,67e9738d6bb6923faef4a165,SPANISH,13 or older,"no, only English or Spanish",no,2025-07-22_23h38.41.207,empathy_intonation_perc,2024.2.4,Win32,120.4819277,67e9738d6bb6923faef4a165,687ed1b7e638a4cbf2f02089,68806671d58bb674b4900c09,,,,,,,,,,,,,,,,,,,,,,,,,,,,,,,,,,,,,,,,,,,,,,,,,,,,,,,,,,,,,,,,,,,,,,,,,,,1940.4575,1944.3677,,,,,,,,,,,,,,,,,,,,,,,,,,,,,,
,,,,,,,,,67e9738d6bb6923faef4a165,SPANISH,13 or older,"no, only English or Spanish",no,2025-07-22_23h38.41.207,empathy_intonation_perc,2024.2.4,Win32,120.4819277,67e9738d6bb6923faef4a165,687ed1b7e638a4cbf2f02089,68806671d58bb674b4900c09,,,,,,,,,,,,,,1,,,,,,,,,,,,,,,,,,,,,,,,,,,,,,,,,,,,,,,,,,,,,,,,,,,,,,,,,12,asesinato,,,,,1944.3746,1957.2469,1,1,12.3534,,0,0,0,11,1,REAL,FAKE,,,,,,,,,,,,,,,,,
,,,,,,,,,67e9738d6bb6923faef4a165,SPANISH,13 or older,"no, only English or Spanish",no,2025-07-22_23h38.41.207,empathy_intonation_perc,2024.2.4,Win32,120.4819277,67e9738d6bb6923faef4a165,687ed1b7e638a4cbf2f02089,68806671d58bb674b4900c09,,,,,,,,,,,,,,0,,,,,,,,,,,,,,,,,,,,,,,,,,,,,,,,,,,,,,,,,,,,,,,,,,,,,,,,,70,temblo,,,,,1957.2486,1965.0515,0,1,7.2835,,0,1,1,69,1,REAL,FAKE,,,,,,,,,,,,,,,,,
,,,,,,,,,67e9738d6bb6923faef4a165,SPANISH,13 or older,"no, only English or Spanish",no,2025-07-22_23h38.41.207,empathy_intonation_perc,2024.2.4,Win32,120.4819277,67e9738d6bb6923faef4a165,687ed1b7e638a4cbf2f02089,68806671d58bb674b4900c09,,,,,,,,,,,,,,1,,,,,,,,,,,,,,,,,,,,,,,,,,,,,,,,,,,,,,,,,,,,,,,,,,,,,,,,,41,rebuscar,,,,,1965.0532,1973.3555,1,1,7.7805,,0,2,2,40,1,REAL,FAKE,,,,,,,,,,,,,,,,,
,,,,,,,,,67e9738d6bb6923faef4a165,SPANISH,13 or older,"no, only English or Spanish",no,2025-07-22_23h38.41.207,empathy_intonation_perc,2024.2.4,Win32,120.4819277,67e9738d6bb6923faef4a165,687ed1b7e638a4cbf2f02089,68806671d58bb674b4900c09,,,,,,,,,,,,,,1,,,,,,,,,,,,,,,,,,,,,,,,,,,,,,,,,,,,,,,,,,,,,,,,,,,,,,,,,31,pandilla,,,,,1973.3573,1980.2928,1,1,6.4139,,0,3,3,30,1,REAL,FAKE,,,,,,,,,,,,,,,,,
,,,,,,,,,67e9738d6bb6923faef4a165,SPANISH,13 or older,"no, only English or Spanish",no,2025-07-22_23h38.41.207,empathy_intonation_perc,2024.2.4,Win32,120.4819277,67e9738d6bb6923faef4a165,687ed1b7e638a4cbf2f02089,68806671d58bb674b4900c09,,,,,,,,,,,,,,1,,,,,,,,,,,,,,,,,,,,,,,,,,,,,,,,,,,,,,,,,,,,,,,,,,,,,,,,,3,pulmones,,,,,1980.2946,1988,1,1,7.1862,,0,4,4,2,1,REAL,FAKE,,,,,,,,,,,,,,,,,
,,,,,,,,,67e9738d6bb6923faef4a165,SPANISH,13 or older,"no, only English or Spanish",no,2025-07-22_23h38.41.207,empathy_intonation_perc,2024.2.4,Win32,120.4819277,67e9738d6bb6923faef4a165,687ed1b7e638a4cbf2f02089,68806671d58bb674b4900c09,,,,,,,,,,,,,,1,,,,,,,,,,,,,,,,,,,,,,,,,,,,,,,,,,,,,,,,,,,,,,,,,,,,,,,,,83,guante,,,,,1988.0018,1994.7012,1,1,6.1813,,0,5,5,82,1,REAL,FAKE,,,,,,,,,,,,,,,,,
,,,,,,,,,67e9738d6bb6923faef4a165,SPANISH,13 or older,"no, only English or Spanish",no,2025-07-22_23h38.41.207,empathy_intonation_perc,2024.2.4,Win32,120.4819277,67e9738d6bb6923faef4a165,687ed1b7e638a4cbf2f02089,68806671d58bb674b4900c09,,,,,,,,,,,,,,1,,,,,,,,,,,,,,,,,,,,,,,,,,,,,,,,,,,,,,,,,,,,,,,,,,,,,,,,,65,bizcocho,,,,,1994.7026,2008.5198,1,1,13.2955,,0,6,6,64,1,REAL,FAKE,,,,,,,,,,,,,,,,,
,,,,,,,,,67e9738d6bb6923faef4a165,SPANISH,13 or older,"no, only English or Spanish",no,2025-07-22_23h38.41.207,empathy_intonation_perc,2024.2.4,Win32,120.4819277,67e9738d6bb6923faef4a165,687ed1b7e638a4cbf2f02089,68806671d58bb674b4900c09,,,,,,,,,,,,,,1,,,,,,,,,,,,,,,,,,,,,,,,,,,,,,,,,,,,,,,,,,,,,,,,,,,,,,,,,22,lacayo,,,,,2008.5226,2014.7064,1,1,5.6633,,0,7,7,21,1,REAL,FAKE,,,,,,,,,,,,,,,,,
,,,,,,,,,67e9738d6bb6923faef4a165,SPANISH,13 or older,"no, only English or Spanish",no,2025-07-22_23h38.41.207,empathy_intonation_perc,2024.2.4,Win32,120.4819277,67e9738d6bb6923faef4a165,687ed1b7e638a4cbf2f02089,68806671d58bb674b4900c09,,,,,,,,,,,,,,1,,,,,,,,,,,,,,,,,,,,,,,,,,,,,,,,,,,,,,,,,,,,,,,,,,,,,,,,,80,hormiga,,,,,2014.707,2022.5531,1,1,7.3305,,0,8,8,79,1,REAL,FAKE,,,,,,,,,,,,,,,,,
,,,,,,,,,67e9738d6bb6923faef4a165,SPANISH,13 or older,"no, only English or Spanish",no,2025-07-22_23h38.41.207,empathy_intonation_perc,2024.2.4,Win32,120.4819277,67e9738d6bb6923faef4a165,687ed1b7e638a4cbf2f02089,68806671d58bb674b4900c09,,,,,,,,,,,,,,1,,,,,,,,,,,,,,,,,,,,,,,,,,,,,,,,,,,,,,,,,,,,,,,,,,,,,,,,,7,pésimo,,,,,2022.5557,2030.8912,1,1,7.8148,,0,9,9,6,1,REAL,FAKE,,,,,,,,,,,,,,,,,
,,,,,,,,,67e9738d6bb6923faef4a165,SPANISH,13 or older,"no, only English or Spanish",no,2025-07-22_23h38.41.207,empathy_intonation_perc,2024.2.4,Win32,120.4819277,67e9738d6bb6923faef4a165,687ed1b7e638a4cbf2f02089,68806671d58bb674b4900c09,,,,,,,,,,,,,,1,,,,,,,,,,,,,,,,,,,,,,,,,,,,,,,,,,,,,,,,,,,,,,,,,,,,,,,,,59,besar,,,,,2030.8928,2038.843,1,1,7.4298,,0,10,10,58,1,REAL,FAKE,,,,,,,,,,,,,,,,,
,,,,,,,,,67e9738d6bb6923faef4a165,SPANISH,13 or older,"no, only English or Spanish",no,2025-07-22_23h38.41.207,empathy_intonation_perc,2024.2.4,Win32,120.4819277,67e9738d6bb6923faef4a165,687ed1b7e638a4cbf2f02089,68806671d58bb674b4900c09,,,,,,,,,,,,,,0,,,,,,,,,,,,,,,,,,,,,,,,,,,,,,,,,,,,,,,,,,,,,,,,,,,,,,,,,16,abracer,,,,,2038.8446,2047.1602,0,1,7.7969,,0,11,11,15,1,REAL,FAKE,,,,,,,,,,,,,,,,,
,,,,,,,,,67e9738d6bb6923faef4a165,SPANISH,13 or older,"no, only English or Spanish",no,2025-07-22_23h38.41.207,empathy_intonation_perc,2024.2.4,Win32,120.4819277,67e9738d6bb6923faef4a165,687ed1b7e638a4cbf2f02089,68806671d58bb674b4900c09,,,,,,,,,,,,,,1,,,,,,,,,,,,,,,,,,,,,,,,,,,,,,,,,,,,,,,,,,,,,,,,,,,,,,,,,64,orgulloso,,,,,2047.162,2056.4579,1,1,8.7767,,0,12,12,63,1,REAL,FAKE,,,,,,,,,,,,,,,,,
,,,,,,,,,67e9738d6bb6923faef4a165,SPANISH,13 or older,"no, only English or Spanish",no,2025-07-22_23h38.41.207,empathy_intonation_perc,2024.2.4,Win32,120.4819277,67e9738d6bb6923faef4a165,687ed1b7e638a4cbf2f02089,68806671d58bb674b4900c09,,,,,,,,,,,,,,0,,,,,,,,,,,,,,,,,,,,,,,,,,,,,,,,,,,,,,,,,,,,,,,,,,,,,,,,,32,fatacidad,,,,,2056.4597,2065.1942,0,1,8.2132,,0,13,13,31,1,REAL,FAKE,,,,,,,,,,,,,,,,,
,,,,,,,,,67e9738d6bb6923faef4a165,SPANISH,13 or older,"no, only English or Spanish",no,2025-07-22_23h38.41.207,empathy_intonation_perc,2024.2.4,Win32,120.4819277,67e9738d6bb6923faef4a165,687ed1b7e638a4cbf2f02089,68806671d58bb674b4900c09,,,,,,,,,,,,,,0,,,,,,,,,,,,,,,,,,,,,,,,,,,,,,,,,,,,,,,,,,,,,,,,,,,,,,,,,18,arsa,,,,,2065.1957,2073.3289,0,1,7.614,,0,14,14,17,1,REAL,FAKE,,,,,,,,,,,,,,,,,
,,,,,,,,,67e9738d6bb6923faef4a165,SPANISH,13 or older,"no, only English or Spanish",no,2025-07-22_23h38.41.207,empathy_intonation_perc,2024.2.4,Win32,120.4819277,67e9738d6bb6923faef4a165,687ed1b7e638a4cbf2f02089,68806671d58bb674b4900c09,,,,,,,,,,,,,,0,,,,,,,,,,,,,,,,,,,,,,,,,,,,,,,,,,,,,,,,,,,,,,,,,,,,,,,,,23,lampera,,,,,2073.3308,2082.2568,0,1,8.4135,,0,15,15,22,1,REAL,FAKE,,,,,,,,,,,,,,,,,
,,,,,,,,,67e9738d6bb6923faef4a165,SPANISH,13 or older,"no, only English or Spanish",no,2025-07-22_23h38.41.207,empathy_intonation_perc,2024.2.4,Win32,120.4819277,67e9738d6bb6923faef4a165,687ed1b7e638a4cbf2f02089,68806671d58bb674b4900c09,,,,,,,,,,,,,,1,,,,,,,,,,,,,,,,,,,,,,,,,,,,,,,,,,,,,,,,,,,,,,,,,,,,,,,,,69,engatusar,,,,,2082.2586,2094.519,1,1,11.7407,,0,16,16,68,1,REAL,FAKE,,,,,,,,,,,,,,,,,
,,,,,,,,,67e9738d6bb6923faef4a165,SPANISH,13 or older,"no, only English or Spanish",no,2025-07-22_23h38.41.207,empathy_intonation_perc,2024.2.4,Win32,120.4819277,67e9738d6bb6923faef4a165,687ed1b7e638a4cbf2f02089,68806671d58bb674b4900c09,,,,,,,,,,,,,,1,,,,,,,,,,,,,,,,,,,,,,,,,,,,,,,,,,,,,,,,,,,,,,,,,,,,,,,,,37,granuja,,,,,2094.5208,2102.5652,1,1,7.5248,,0,17,17,36,1,REAL,FAKE,,,,,,,,,,,,,,,,,
,,,,,,,,,67e9738d6bb6923faef4a165,SPANISH,13 or older,"no, only English or Spanish",no,2025-07-22_23h38.41.207,empathy_intonation_perc,2024.2.4,Win32,120.4819277,67e9738d6bb6923faef4a165,687ed1b7e638a4cbf2f02089,68806671d58bb674b4900c09,,,,,,,,,,,,,,0,,,,,,,,,,,,,,,,,,,,,,,,,,,,,,,,,,,,,,,,,,,,,,,,,,,,,,,,,35,rompido,,,,,2102.5679,2110.5431,0,1,7.4526,,0,18,18,34,1,REAL,FAKE,,,,,,,,,,,,,,,,,
,,,,,,,,,67e9738d6bb6923faef4a165,SPANISH,13 or older,"no, only English or Spanish",no,2025-07-22_23h38.41.207,empathy_intonation_perc,2024.2.4,Win32,120.4819277,67e9738d6bb6923faef4a165,687ed1b7e638a4cbf2f02089,68806671d58bb674b4900c09,,,,,,,,,,,,,,0,,,,,,,,,,,,,,,,,,,,,,,,,,,,,,,,,,,,,,,,,,,,,,,,,,,,,,,,,87,grodo,,,,,2110.5449,2118.4804,0,1,7.4126,,0,19,19,86,1,REAL,FAKE,,,,,,,,,,,,,,,,,
,,,,,,,,,67e9738d6bb6923faef4a165,SPANISH,13 or older,"no, only English or Spanish",no,2025-07-22_23h38.41.207,empathy_intonation_perc,2024.2.4,Win32,120.4819277,67e9738d6bb6923faef4a165,687ed1b7e638a4cbf2f02089,68806671d58bb674b4900c09,,,,,,,,,,,,,,1,,,,,,,,,,,,,,,,,,,,,,,,,,,,,,,,,,,,,,,,,,,,,,,,,,,,,,,,,52,camisa,,,,,2118.4817,2125.9513,1,1,6.9512,,0,20,20,51,1,REAL,FAKE,,,,,,,,,,,,,,,,,
,,,,,,,,,67e9738d6bb6923faef4a165,SPANISH,13 or older,"no, only English or Spanish",no,2025-07-22_23h38.41.207,empathy_intonation_perc,2024.2.4,Win32,120.4819277,67e9738d6bb6923faef4a165,687ed1b7e638a4cbf2f02089,68806671d58bb674b4900c09,,,,,,,,,,,,,,0,,,,,,,,,,,,,,,,,,,,,,,,,,,,,,,,,,,,,,,,,,,,,,,,,,,,,,,,,29,decar,,,,,2125.9531,2132.3058,0,1,5.8305,,0,21,21,28,1,REAL,FAKE,,,,,,,,,,,,,,,,,
,,,,,,,,,67e9738d6bb6923faef4a165,SPANISH,13 or older,"no, only English or Spanish",no,2025-07-22_23h38.41.207,empathy_intonation_perc,2024.2.4,Win32,120.4819277,67e9738d6bb6923faef4a165,687ed1b7e638a4cbf2f02089,68806671d58bb674b4900c09,,,,,,,,,,,,,,1,,,,,,,,,,,,,,,,,,,,,,,,,,,,,,,,,,,,,,,,,,,,,,,,,,,,,,,,,5,zapato,,,,,2132.3076,2140.8258,1,1,7.9979,,0,22,22,4,1,REAL,FAKE,,,,,,,,,,,,,,,,,
,,,,,,,,,67e9738d6bb6923faef4a165,SPANISH,13 or older,"no, only English or Spanish",no,2025-07-22_23h38.41.207,empathy_intonation_perc,2024.2.4,Win32,120.4819277,67e9738d6bb6923faef4a165,687ed1b7e638a4cbf2f02089,68806671d58bb674b4900c09,,,,,,,,,,,,,,0,,,,,,,,,,,,,,,,,,,,,,,,,,,,,,,,,,,,,,,,,,,,,,,,,,,,,,,,,10,antar,,,,,2140.8276,2147.2713,0,1,5.9241,,0,23,23,9,1,REAL,FAKE,,,,,,,,,,,,,,,,,
,,,,,,,,,67e9738d6bb6923faef4a165,SPANISH,13 or older,"no, only English or Spanish",no,2025-07-22_23h38.41.207,empathy_intonation_perc,2024.2.4,Win32,120.4819277,67e9738d6bb6923faef4a165,687ed1b7e638a4cbf2f02089,68806671d58bb674b4900c09,,,,,,,,,,,,,,1,,,,,,,,,,,,,,,,,,,,,,,,,,,,,,,,,,,,,,,,,,,,,,,,,,,,,,,,,56,musgo,,,,,2147.2745,2155.0178,1,1,7.2132,,0,24,24,55,1,REAL,FAKE,,,,,,,,,,,,,,,,,
,,,,,,,,,67e9738d6bb6923faef4a165,SPANISH,13 or older,"no, only English or Spanish",no,2025-07-22_23h38.41.207,empathy_intonation_perc,2024.2.4,Win32,120.4819277,67e9738d6bb6923faef4a165,687ed1b7e638a4cbf2f02089,68806671d58bb674b4900c09,,,,,,,,,,,,,,1,,,,,,,,,,,,,,,,,,,,,,,,,,,,,,,,,,,,,,,,,,,,,,,,,,,,,,,,,61,seda,,,,,2155.0195,2161.0652,1,1,5.524,,0,25,25,60,1,REAL,FAKE,,,,,,,,,,,,,,,,,
,,,,,,,,,67e9738d6bb6923faef4a165,SPANISH,13 or older,"no, only English or Spanish",no,2025-07-22_23h38.41.207,empathy_intonation_perc,2024.2.4,Win32,120.4819277,67e9738d6bb6923faef4a165,687ed1b7e638a4cbf2f02089,68806671d58bb674b4900c09,,,,,,,,,,,,,,1,,,,,,,,,,,,,,,,,,,,,,,,,,,,,,,,,,,,,,,,,,,,,,,,,,,,,,,,,6,tergiversar,,,,,2161.0679,2182.7442,1,1,21.1559,,0,26,26,5,1,REAL,FAKE,,,,,,,,,,,,,,,,,
,,,,,,,,,67e9738d6bb6923faef4a165,SPANISH,13 or older,"no, only English or Spanish",no,2025-07-22_23h38.41.207,empathy_intonation_perc,2024.2.4,Win32,120.4819277,67e9738d6bb6923faef4a165,687ed1b7e638a4cbf2f02089,68806671d58bb674b4900c09,,,,,,,,,,,,,,1,,,,,,,,,,,,,,,,,,,,,,,,,,,,,,,,,,,,,,,,,,,,,,,,,,,,,,,,,9,hacha,,,,,2182.7463,2190.6756,1,1,7.412,,0,27,27,8,1,REAL,FAKE,,,,,,,,,,,,,,,,,
,,,,,,,,,67e9738d6bb6923faef4a165,SPANISH,13 or older,"no, only English or Spanish",no,2025-07-22_23h38.41.207,empathy_intonation_perc,2024.2.4,Win32,120.4819277,67e9738d6bb6923faef4a165,687ed1b7e638a4cbf2f02089,68806671d58bb674b4900c09,,,,,,,,,,,,,,1,,,,,,,,,,,,,,,,,,,,,,,,,,,,,,,,,,,,,,,,,,,,,,,,,,,,,,,,,45,jilguero,,,,,2190.6763,2201.5678,1,1,10.3744,,0,28,28,44,1,REAL,FAKE,,,,,,,,,,,,,,,,,
,,,,,,,,,67e9738d6bb6923faef4a165,SPANISH,13 or older,"no, only English or Spanish",no,2025-07-22_23h38.41.207,empathy_intonation_perc,2024.2.4,Win32,120.4819277,67e9738d6bb6923faef4a165,687ed1b7e638a4cbf2f02089,68806671d58bb674b4900c09,,,,,,,,,,,,,,1,,,,,,,,,,,,,,,,,,,,,,,,,,,,,,,,,,,,,,,,,,,,,,,,,,,,,,,,,77,tiburón,,,,,2201.5709,2211.311,1,1,9.2204,,0,29,29,76,1,REAL,FAKE,,,,,,,,,,,,,,,,,
,,,,,,,,,67e9738d6bb6923faef4a165,SPANISH,13 or older,"no, only English or Spanish",no,2025-07-22_23h38.41.207,empathy_intonation_perc,2024.2.4,Win32,120.4819277,67e9738d6bb6923faef4a165,687ed1b7e638a4cbf2f02089,68806671d58bb674b4900c09,,,,,,,,,,,,,,0,,,,,,,,,,,,,,,,,,,,,,,,,,,,,,,,,,,,,,,,,,,,,,,,,,,,,,,,,33,pauca,,,,,2211.3127,2218.5151,1,0,6.6838,,0,30,30,32,1,REAL,FAKE,,,,,,,,,,,,,,,,,
,,,,,,,,,67e9738d6bb6923faef4a165,SPANISH,13 or older,"no, only English or Spanish",no,2025-07-22_23h38.41.207,empathy_intonation_perc,2024.2.4,Win32,120.4819277,67e9738d6bb6923faef4a165,687ed1b7e638a4cbf2f02089,68806671d58bb674b4900c09,,,,,,,,,,,,,,1,,,,,,,,,,,,,,,,,,,,,,,,,,,,,,,,,,,,,,,,,,,,,,,,,,,,,,,,,49,ganar,,,,,2218.5171,2227.2714,1,1,8.2358,,0,31,31,48,1,REAL,FAKE,,,,,,,,,,,,,,,,,
,,,,,,,,,67e9738d6bb6923faef4a165,SPANISH,13 or older,"no, only English or Spanish",no,2025-07-22_23h38.41.207,empathy_intonation_perc,2024.2.4,Win32,120.4819277,67e9738d6bb6923faef4a165,687ed1b7e638a4cbf2f02089,68806671d58bb674b4900c09,,,,,,,,,,,,,,0,,,,,,,,,,,,,,,,,,,,,,,,,,,,,,,,,,,,,,,,,,,,,,,,,,,,,,,,,19,brecedad,,,,,2227.2735,2241.4682,0,1,13.6694,,0,32,32,18,1,REAL,FAKE,,,,,,,,,,,,,,,,,
,,,,,,,,,67e9738d6bb6923faef4a165,SPANISH,13 or older,"no, only English or Spanish",no,2025-07-22_23h38.41.207,empathy_intonation_perc,2024.2.4,Win32,120.4819277,67e9738d6bb6923faef4a165,687ed1b7e638a4cbf2f02089,68806671d58bb674b4900c09,,,,,,,,,,,,,,1,,,,,,,,,,,,,,,,,,,,,,,,,,,,,,,,,,,,,,,,,,,,,,,,,,,,,,,,,76,atar,,,,,2241.4699,2248.1232,1,1,6.1311,,0,33,33,75,1,REAL,FAKE,,,,,,,,,,,,,,,,,
,,,,,,,,,67e9738d6bb6923faef4a165,SPANISH,13 or older,"no, only English or Spanish",no,2025-07-22_23h38.41.207,empathy_intonation_perc,2024.2.4,Win32,120.4819277,67e9738d6bb6923faef4a165,687ed1b7e638a4cbf2f02089,68806671d58bb674b4900c09,,,,,,,,,,,,,,0,,,,,,,,,,,,,,,,,,,,,,,,,,,,,,,,,,,,,,,,,,,,,,,,,,,,,,,,,79,tropaje,,,,,2248.1251,2255.8643,0,1,7.2205,,0,34,34,78,1,REAL,FAKE,,,,,,,,,,,,,,,,,
,,,,,,,,,67e9738d6bb6923faef4a165,SPANISH,13 or older,"no, only English or Spanish",no,2025-07-22_23h38.41.207,empathy_intonation_perc,2024.2.4,Win32,120.4819277,67e9738d6bb6923faef4a165,687ed1b7e638a4cbf2f02089,68806671d58bb674b4900c09,,,,,,,,,,,,,,0,,,,,,,,,,,,,,,,,,,,,,,,,,,,,,,,,,,,,,,,,,,,,,,,,,,,,,,,,21,capillo,,,,,2255.8658,2267.8451,0,1,11.4624,,0,35,35,20,1,REAL,FAKE,,,,,,,,,,,,,,,,,
,,,,,,,,,67e9738d6bb6923faef4a165,SPANISH,13 or older,"no, only English or Spanish",no,2025-07-22_23h38.41.207,empathy_intonation_perc,2024.2.4,Win32,120.4819277,67e9738d6bb6923faef4a165,687ed1b7e638a4cbf2f02089,68806671d58bb674b4900c09,,,,,,,,,,,,,,1,,,,,,,,,,,,,,,,,,,,,,,,,,,,,,,,,,,,,,,,,,,,,,,,,,,,,,,,,24,látigo,,,,,2267.8478,2276.1735,1,1,7.7951,,0,36,36,23,1,REAL,FAKE,,,,,,,,,,,,,,,,,
,,,,,,,,,67e9738d6bb6923faef4a165,SPANISH,13 or older,"no, only English or Spanish",no,2025-07-22_23h38.41.207,empathy_intonation_perc,2024.2.4,Win32,120.4819277,67e9738d6bb6923faef4a165,687ed1b7e638a4cbf2f02089,68806671d58bb674b4900c09,,,,,,,,,,,,,,1,,,,,,,,,,,,,,,,,,,,,,,,,,,,,,,,,,,,,,,,,,,,,,,,,,,,,,,,,88,acantilado,,,,,2276.1752,2285.93,1,1,9.2364,,0,37,37,87,1,REAL,FAKE,,,,,,,,,,,,,,,,,
,,,,,,,,,67e9738d6bb6923faef4a165,SPANISH,13 or older,"no, only English or Spanish",no,2025-07-22_23h38.41.207,empathy_intonation_perc,2024.2.4,Win32,120.4819277,67e9738d6bb6923faef4a165,687ed1b7e638a4cbf2f02089,68806671d58bb674b4900c09,,,,,,,,,,,,,,1,,,,,,,,,,,,,,,,,,,,,,,,,,,,,,,,,,,,,,,,,,,,,,,,,,,,,,,,,43,canela,,,,,2285.9313,2293.9632,1,1,7.5054,,0,38,38,42,1,REAL,FAKE,,,,,,,,,,,,,,,,,
,,,,,,,,,67e9738d6bb6923faef4a165,SPANISH,13 or older,"no, only English or Spanish",no,2025-07-22_23h38.41.207,empathy_intonation_perc,2024.2.4,Win32,120.4819277,67e9738d6bb6923faef4a165,687ed1b7e638a4cbf2f02089,68806671d58bb674b4900c09,,,,,,,,,,,,,,1,,,,,,,,,,,,,,,,,,,,,,,,,,,,,,,,,,,,,,,,,,,,,,,,,,,,,,,,,81,pozo,,,,,2293.9641,2300.1014,1,1,5.6164,,0,39,39,80,1,REAL,FAKE,,,,,,,,,,,,,,,,,
,,,,,,,,,67e9738d6bb6923faef4a165,SPANISH,13 or older,"no, only English or Spanish",no,2025-07-22_23h38.41.207,empathy_intonation_perc,2024.2.4,Win32,120.4819277,67e9738d6bb6923faef4a165,687ed1b7e638a4cbf2f02089,68806671d58bb674b4900c09,,,,,,,,,,,,,,0,,,,,,,,,,,,,,,,,,,,,,,,,,,,,,,,,,,,,,,,,,,,,,,,,,,,,,,,,58,plaudir,,,,,2300.1028,2308.6365,0,1,8.0143,,0,40,40,57,1,REAL,FAKE,,,,,,,,,,,,,,,,,
,,,,,,,,,67e9738d6bb6923faef4a165,SPANISH,13 or older,"no, only English or Spanish",no,2025-07-22_23h38.41.207,empathy_intonation_perc,2024.2.4,Win32,120.4819277,67e9738d6bb6923faef4a165,687ed1b7e638a4cbf2f02089,68806671d58bb674b4900c09,,,,,,,,,,,,,,1,,,,,,,,,,,,,,,,,,,,,,,,,,,,,,,,,,,,,,,,,,,,,,,,,,,,,,,,,48,ladrón,,,,,2308.6399,2318.258,1,1,9.0987,,0,41,41,47,1,REAL,FAKE,,,,,,,,,,,,,,,,,
,,,,,,,,,67e9738d6bb6923faef4a165,SPANISH,13 or older,"no, only English or Spanish",no,2025-07-22_23h38.41.207,empathy_intonation_perc,2024.2.4,Win32,120.4819277,67e9738d6bb6923faef4a165,687ed1b7e638a4cbf2f02089,68806671d58bb674b4900c09,,,,,,,,,,,,,,1,,,,,,,,,,,,,,,,,,,,,,,,,,,,,,,,,,,,,,,,,,,,,,,,,,,,,,,,,62,flaco,,,,,2318.2598,2325.9621,1,1,7.18,,0,42,42,61,1,REAL,FAKE,,,,,,,,,,,,,,,,,
,,,,,,,,,67e9738d6bb6923faef4a165,SPANISH,13 or older,"no, only English or Spanish",no,2025-07-22_23h38.41.207,empathy_intonation_perc,2024.2.4,Win32,120.4819277,67e9738d6bb6923faef4a165,687ed1b7e638a4cbf2f02089,68806671d58bb674b4900c09,,,,,,,,,,,,,,1,,,,,,,,,,,,,,,,,,,,,,,,,,,,,,,,,,,,,,,,,,,,,,,,,,,,,,,,,60,matar,,,,,2325.9645,2332.8585,1,1,6.3755,,0,43,43,59,1,REAL,FAKE,,,,,,,,,,,,,,,,,
,,,,,,,,,67e9738d6bb6923faef4a165,SPANISH,13 or older,"no, only English or Spanish",no,2025-07-22_23h38.41.207,empathy_intonation_perc,2024.2.4,Win32,120.4819277,67e9738d6bb6923faef4a165,687ed1b7e638a4cbf2f02089,68806671d58bb674b4900c09,,,,,,,,,,,,,,1,,,,,,,,,,,,,,,,,,,,,,,,,,,,,,,,,,,,,,,,,,,,,,,,,,,,,,,,,11,cenefa,,,,,2332.8621,2341.1838,1,1,7.8047,,0,44,44,10,1,REAL,FAKE,,,,,,,,,,,,,,,,,
,,,,,,,,,67e9738d6bb6923faef4a165,SPANISH,13 or older,"no, only English or Spanish",no,2025-07-22_23h38.41.207,empathy_intonation_perc,2024.2.4,Win32,120.4819277,67e9738d6bb6923faef4a165,687ed1b7e638a4cbf2f02089,68806671d58bb674b4900c09,,,,,,,,,,,,,,1,,,,,,,,,,,,,,,,,,,,,,,,,,,,,,,,,,,,,,,,,,,,,,,,,,,,,,,,,75,yacer,,,,,2341.1849,2349.3119,1,1,7.6099,,0,45,45,74,1,REAL,FAKE,,,,,,,,,,,,,,,,,
,,,,,,,,,67e9738d6bb6923faef4a165,SPANISH,13 or older,"no, only English or Spanish",no,2025-07-22_23h38.41.207,empathy_intonation_perc,2024.2.4,Win32,120.4819277,67e9738d6bb6923faef4a165,687ed1b7e638a4cbf2f02089,68806671d58bb674b4900c09,,,,,,,,,,,,,,0,,,,,,,,,,,,,,,,,,,,,,,,,,,,,,,,,,,,,,,,,,,,,,,,,,,,,,,,,72,pemición,,,,,2349.3156,2359.659,0,1,9.8281,,0,46,46,71,1,REAL,FAKE,,,,,,,,,,,,,,,,,
,,,,,,,,,67e9738d6bb6923faef4a165,SPANISH,13 or older,"no, only English or Spanish",no,2025-07-22_23h38.41.207,empathy_intonation_perc,2024.2.4,Win32,120.4819277,67e9738d6bb6923faef4a165,687ed1b7e638a4cbf2f02089,68806671d58bb674b4900c09,,,,,,,,,,,,,,1,,,,,,,,,,,,,,,,,,,,,,,,,,,,,,,,,,,,,,,,,,,,,,,,,,,,,,,,,51,candado,,,,,2359.6608,2367.355,1,1,7.1728,,0,47,47,50,1,REAL,FAKE,,,,,,,,,,,,,,,,,
,,,,,,,,,67e9738d6bb6923faef4a165,SPANISH,13 or older,"no, only English or Spanish",no,2025-07-22_23h38.41.207,empathy_intonation_perc,2024.2.4,Win32,120.4819277,67e9738d6bb6923faef4a165,687ed1b7e638a4cbf2f02089,68806671d58bb674b4900c09,,,,,,,,,,,,,,0,,,,,,,,,,,,,,,,,,,,,,,,,,,,,,,,,,,,,,,,,,,,,,,,,,,,,,,,,92,click the 0 key.,,,,,2367.3565,2371.7638,0,1,3.8889,,0,48,48,91,1,REAL,FAKE,,,,,,,,,,,,,,,,,
,,,,,,,,,67e9738d6bb6923faef4a165,SPANISH,13 or older,"no, only English or Spanish",no,2025-07-22_23h38.41.207,empathy_intonation_perc,2024.2.4,Win32,120.4819277,67e9738d6bb6923faef4a165,687ed1b7e638a4cbf2f02089,68806671d58bb674b4900c09,,,,,,,,,,,,,,1,,,,,,,,,,,,,,,,,,,,,,,,,,,,,,,,,,,,,,,,,,,,,,,,,,,,,,,,,15,regar,,,,,2371.7648,2378.7651,1,1,6.4841,,0,49,49,14,1,REAL,FAKE,,,,,,,,,,,,,,,,,
,,,,,,,,,67e9738d6bb6923faef4a165,SPANISH,13 or older,"no, only English or Spanish",no,2025-07-22_23h38.41.207,empathy_intonation_perc,2024.2.4,Win32,120.4819277,67e9738d6bb6923faef4a165,687ed1b7e638a4cbf2f02089,68806671d58bb674b4900c09,,,,,,,,,,,,,,1,,,,,,,,,,,,,,,,,,,,,,,,,,,,,,,,,,,,,,,,,,,,,,,,,,,,,,,,,14,yunque,,,,,2378.7672,2389.5252,1,1,10.2394,,0,50,50,13,1,REAL,FAKE,,,,,,,,,,,,,,,,,
,,,,,,,,,67e9738d6bb6923faef4a165,SPANISH,13 or older,"no, only English or Spanish",no,2025-07-22_23h38.41.207,empathy_intonation_perc,2024.2.4,Win32,120.4819277,67e9738d6bb6923faef4a165,687ed1b7e638a4cbf2f02089,68806671d58bb674b4900c09,,,,,,,,,,,,,,1,,,,,,,,,,,,,,,,,,,,,,,,,,,,,,,,,,,,,,,,,,,,,,,,,,,,,,,,,78,frondoso,,,,,2389.5264,2399.5779,1,1,9.5284,,0,51,51,77,1,REAL,FAKE,,,,,,,,,,,,,,,,,
,,,,,,,,,67e9738d6bb6923faef4a165,SPANISH,13 or older,"no, only English or Spanish",no,2025-07-22_23h38.41.207,empathy_intonation_perc,2024.2.4,Win32,120.4819277,67e9738d6bb6923faef4a165,687ed1b7e638a4cbf2f02089,68806671d58bb674b4900c09,,,,,,,,,,,,,,1,,,,,,,,,,,,,,,,,,,,,,,,,,,,,,,,,,,,,,,,,,,,,,,,,,,,,,,,,89,prisa,,,,,2399.58,2408.7054,1,1,8.6059,,0,52,52,88,1,REAL,FAKE,,,,,,,,,,,,,,,,,
,,,,,,,,,67e9738d6bb6923faef4a165,SPANISH,13 or older,"no, only English or Spanish",no,2025-07-22_23h38.41.207,empathy_intonation_perc,2024.2.4,Win32,120.4819277,67e9738d6bb6923faef4a165,687ed1b7e638a4cbf2f02089,68806671d58bb674b4900c09,,,,,,,,,,,,,,0,,,,,,,,,,,,,,,,,,,,,,,,,,,,,,,,,,,,,,,,,,,,,,,,,,,,,,,,,8,cadeña,,,,,2408.7106,2416.4852,1,0,7.252,,0,53,53,7,1,REAL,FAKE,,,,,,,,,,,,,,,,,
,,,,,,,,,67e9738d6bb6923faef4a165,SPANISH,13 or older,"no, only English or Spanish",no,2025-07-22_23h38.41.207,empathy_intonation_perc,2024.2.4,Win32,120.4819277,67e9738d6bb6923faef4a165,687ed1b7e638a4cbf2f02089,68806671d58bb674b4900c09,,,,,,,,,,,,,,1,,,,,,,,,,,,,,,,,,,,,,,,,,,,,,,,,,,,,,,,,,,,,,,,,,,,,,,,,44,cuchara,,,,,2416.4871,2438.6887,1,1,21.6838,,0,54,54,43,1,REAL,FAKE,,,,,,,,,,,,,,,,,
,,,,,,,,,67e9738d6bb6923faef4a165,SPANISH,13 or older,"no, only English or Spanish",no,2025-07-22_23h38.41.207,empathy_intonation_perc,2024.2.4,Win32,120.4819277,67e9738d6bb6923faef4a165,687ed1b7e638a4cbf2f02089,68806671d58bb674b4900c09,,,,,,,,,,,,,,1,,,,,,,,,,,,,,,,,,,,,,,,,,,,,,,,,,,,,,,,,,,,,,,,,,,,,,,,,36,loro,,,,,2438.6899,2445.6408,1,1,6.4278,,0,55,55,35,1,REAL,FAKE,,,,,,,,,,,,,,,,,
,,,,,,,,,67e9738d6bb6923faef4a165,SPANISH,13 or older,"no, only English or Spanish",no,2025-07-22_23h38.41.207,empathy_intonation_perc,2024.2.4,Win32,120.4819277,67e9738d6bb6923faef4a165,687ed1b7e638a4cbf2f02089,68806671d58bb674b4900c09,,,,,,,,,,,,,,0,,,,,,,,,,,,,,,,,,,,,,,,,,,,,,,,,,,,,,,,,,,,,,,,,,,,,,,,,47,cartinar,,,,,2445.6423,2454.4217,0,1,8.2596,,0,56,56,46,1,REAL,FAKE,,,,,,,,,,,,,,,,,
,,,,,,,,,67e9738d6bb6923faef4a165,SPANISH,13 or older,"no, only English or Spanish",no,2025-07-22_23h38.41.207,empathy_intonation_perc,2024.2.4,Win32,120.4819277,67e9738d6bb6923faef4a165,687ed1b7e638a4cbf2f02089,68806671d58bb674b4900c09,,,,,,,,,,,,,,1,,,,,,,,,,,,,,,,,,,,,,,,,,,,,,,,,,,,,,,,,,,,,,,,,,,,,,,,,38,estornudar,,,,,2454.4243,2466.1813,1,1,11.2399,,0,57,57,37,1,REAL,FAKE,,,,,,,,,,,,,,,,,
,,,,,,,,,67e9738d6bb6923faef4a165,SPANISH,13 or older,"no, only English or Spanish",no,2025-07-22_23h38.41.207,empathy_intonation_perc,2024.2.4,Win32,120.4819277,67e9738d6bb6923faef4a165,687ed1b7e638a4cbf2f02089,68806671d58bb674b4900c09,,,,,,,,,,,,,,1,,,,,,,,,,,,,,,,,,,,,,,,,,,,,,,,,,,,,,,,,,,,,,,,,,,,,,,,,73,hervidor,,,,,2466.1827,2475.9259,1,1,9.2197,,0,58,58,72,1,REAL,FAKE,,,,,,,,,,,,,,,,,
,,,,,,,,,67e9738d6bb6923faef4a165,SPANISH,13 or older,"no, only English or Spanish",no,2025-07-22_23h38.41.207,empathy_intonation_perc,2024.2.4,Win32,120.4819277,67e9738d6bb6923faef4a165,687ed1b7e638a4cbf2f02089,68806671d58bb674b4900c09,,,,,,,,,,,,,,0,,,,,,,,,,,,,,,,,,,,,,,,,,,,,,,,,,,,,,,,,,,,,,,,,,,,,,,,,82,empirador,,,,,2475.9278,2487.05,0,1,10.6026,,0,59,59,81,1,REAL,FAKE,,,,,,,,,,,,,,,,,
,,,,,,,,,67e9738d6bb6923faef4a165,SPANISH,13 or older,"no, only English or Spanish",no,2025-07-22_23h38.41.207,empathy_intonation_perc,2024.2.4,Win32,120.4819277,67e9738d6bb6923faef4a165,687ed1b7e638a4cbf2f02089,68806671d58bb674b4900c09,,,,,,,,,,,,,,0,,,,,,,,,,,,,,,,,,,,,,,,,,,,,,,,,,,,,,,,,,,,,,,,,,,,,,,,,1,terzo,,,,,2487.0524,2495.7568,0,1,8.1875,,0,60,60,0,1,REAL,FAKE,,,,,,,,,,,,,,,,,
,,,,,,,,,67e9738d6bb6923faef4a165,SPANISH,13 or older,"no, only English or Spanish",no,2025-07-22_23h38.41.207,empathy_intonation_perc,2024.2.4,Win32,120.4819277,67e9738d6bb6923faef4a165,687ed1b7e638a4cbf2f02089,68806671d58bb674b4900c09,,,,,,,,,,,,,,0,,,,,,,,,,,,,,,,,,,,,,,,,,,,,,,,,,,,,,,,,,,,,,,,,,,,,,,,,66,hacido,,,,,2495.76,2503.9764,0,1,7.6964,,0,61,61,65,1,REAL,FAKE,,,,,,,,,,,,,,,,,
,,,,,,,,,67e9738d6bb6923faef4a165,SPANISH,13 or older,"no, only English or Spanish",no,2025-07-22_23h38.41.207,empathy_intonation_perc,2024.2.4,Win32,120.4819277,67e9738d6bb6923faef4a165,687ed1b7e638a4cbf2f02089,68806671d58bb674b4900c09,,,,,,,,,,,,,,0,,,,,,,,,,,,,,,,,,,,,,,,,,,,,,,,,,,,,,,,,,,,,,,,,,,,,,,,,84,escuto,,,,,2503.9781,2512.0872,0,1,7.5888,,0,62,62,83,1,REAL,FAKE,,,,,,,,,,,,,,,,,
,,,,,,,,,67e9738d6bb6923faef4a165,SPANISH,13 or older,"no, only English or Spanish",no,2025-07-22_23h38.41.207,empathy_intonation_perc,2024.2.4,Win32,120.4819277,67e9738d6bb6923faef4a165,687ed1b7e638a4cbf2f02089,68806671d58bb674b4900c09,,,,,,,,,,,,,,0,,,,,,,,,,,,,,,,,,,,,,,,,,,,,,,,,,,,,,,,,,,,,,,,,,,,,,,,,27,acutación,,,,,2512.089,2521.4039,0,1,8.8036,,0,63,63,26,1,REAL,FAKE,,,,,,,,,,,,,,,,,
,,,,,,,,,67e9738d6bb6923faef4a165,SPANISH,13 or older,"no, only English or Spanish",no,2025-07-22_23h38.41.207,empathy_intonation_perc,2024.2.4,Win32,120.4819277,67e9738d6bb6923faef4a165,687ed1b7e638a4cbf2f02089,68806671d58bb674b4900c09,,,,,,,,,,,,,,1,,,,,,,,,,,,,,,,,,,,,,,,,,,,,,,,,,,,,,,,,,,,,,,,,,,,,,,,,25,bisagra,,,,,2521.4045,2530.0788,1,1,8.1591,,0,64,64,24,1,REAL,FAKE,,,,,,,,,,,,,,,,,
,,,,,,,,,67e9738d6bb6923faef4a165,SPANISH,13 or older,"no, only English or Spanish",no,2025-07-22_23h38.41.207,empathy_intonation_perc,2024.2.4,Win32,120.4819277,67e9738d6bb6923faef4a165,687ed1b7e638a4cbf2f02089,68806671d58bb674b4900c09,,,,,,,,,,,,,,1,,,,,,,,,,,,,,,,,,,,,,,,,,,,,,,,,,,,,,,,,,,,,,,,,,,,,,,,,90,clavel,,,,,2530.0805,2537.7744,1,1,7.1827,,0,65,65,89,1,REAL,FAKE,,,,,,,,,,,,,,,,,
,,,,,,,,,67e9738d6bb6923faef4a165,SPANISH,13 or older,"no, only English or Spanish",no,2025-07-22_23h38.41.207,empathy_intonation_perc,2024.2.4,Win32,120.4819277,67e9738d6bb6923faef4a165,687ed1b7e638a4cbf2f02089,68806671d58bb674b4900c09,,,,,,,,,,,,,,1,,,,,,,,,,,,,,,,,,,,,,,,,,,,,,,,,,,,,,,,,,,,,,,,,,,,,,,,,34,aviso,,,,,2537.7755,2550.3917,1,1,12.0948,,0,66,66,33,1,REAL,FAKE,,,,,,,,,,,,,,,,,
,,,,,,,,,67e9738d6bb6923faef4a165,SPANISH,13 or older,"no, only English or Spanish",no,2025-07-22_23h38.41.207,empathy_intonation_perc,2024.2.4,Win32,120.4819277,67e9738d6bb6923faef4a165,687ed1b7e638a4cbf2f02089,68806671d58bb674b4900c09,,,,,,,,,,,,,,1,,,,,,,,,,,,,,,,,,,,,,,,,,,,,,,,,,,,,,,,,,,,,,,,,,,,,,,,,39,torpe,,,,,2550.3927,2556.9295,1,1,6.0207,,0,67,67,38,1,REAL,FAKE,,,,,,,,,,,,,,,,,
,,,,,,,,,67e9738d6bb6923faef4a165,SPANISH,13 or older,"no, only English or Spanish",no,2025-07-22_23h38.41.207,empathy_intonation_perc,2024.2.4,Win32,120.4819277,67e9738d6bb6923faef4a165,687ed1b7e638a4cbf2f02089,68806671d58bb674b4900c09,,,,,,,,,,,,,,1,,,,,,,,,,,,,,,,,,,,,,,,,,,,,,,,,,,,,,,,,,,,,,,,,,,,,,,,,28,merodear,,,,,2556.9303,2566.6156,1,1,9.1656,,0,68,68,27,1,REAL,FAKE,,,,,,,,,,,,,,,,,
,,,,,,,,,67e9738d6bb6923faef4a165,SPANISH,13 or older,"no, only English or Spanish",no,2025-07-22_23h38.41.207,empathy_intonation_perc,2024.2.4,Win32,120.4819277,67e9738d6bb6923faef4a165,687ed1b7e638a4cbf2f02089,68806671d58bb674b4900c09,,,,,,,,,,,,,,0,,,,,,,,,,,,,,,,,,,,,,,,,,,,,,,,,,,,,,,,,,,,,,,,,,,,,,,,,4,batillón,,,,,2566.6167,2575.8188,0,1,8.6817,,0,69,69,3,1,REAL,FAKE,,,,,,,,,,,,,,,,,
,,,,,,,,,67e9738d6bb6923faef4a165,SPANISH,13 or older,"no, only English or Spanish",no,2025-07-22_23h38.41.207,empathy_intonation_perc,2024.2.4,Win32,120.4819277,67e9738d6bb6923faef4a165,687ed1b7e638a4cbf2f02089,68806671d58bb674b4900c09,,,,,,,,,,,,,,0,,,,,,,,,,,,,,,,,,,,,,,,,,,,,,,,,,,,,,,,,,,,,,,,,,,,,,,,,53,vegada,,,,,2575.82,2583.7062,0,1,7.3682,,0,70,70,52,1,REAL,FAKE,,,,,,,,,,,,,,,,,
,,,,,,,,,67e9738d6bb6923faef4a165,SPANISH,13 or older,"no, only English or Spanish",no,2025-07-22_23h38.41.207,empathy_intonation_perc,2024.2.4,Win32,120.4819277,67e9738d6bb6923faef4a165,687ed1b7e638a4cbf2f02089,68806671d58bb674b4900c09,,,,,,,,,,,,,,0,,,,,,,,,,,,,,,,,,,,,,,,,,,,,,,,,,,,,,,,,,,,,,,,,,,,,,,,,17,floroso,,,,,2583.7072,2592.7673,0,1,8.5449,,0,71,71,16,1,REAL,FAKE,,,,,,,,,,,,,,,,,
,,,,,,,,,67e9738d6bb6923faef4a165,SPANISH,13 or older,"no, only English or Spanish",no,2025-07-22_23h38.41.207,empathy_intonation_perc,2024.2.4,Win32,120.4819277,67e9738d6bb6923faef4a165,687ed1b7e638a4cbf2f02089,68806671d58bb674b4900c09,,,,,,,,,,,,,,1,,,,,,,,,,,,,,,,,,,,,,,,,,,,,,,,,,,,,,,,,,,,,,,,,,,,,,,,,20,ávido,,,,,2592.7686,2600.3547,1,1,7.071,,0,72,72,19,1,REAL,FAKE,,,,,,,,,,,,,,,,,
,,,,,,,,,67e9738d6bb6923faef4a165,SPANISH,13 or older,"no, only English or Spanish",no,2025-07-22_23h38.41.207,empathy_intonation_perc,2024.2.4,Win32,120.4819277,67e9738d6bb6923faef4a165,687ed1b7e638a4cbf2f02089,68806671d58bb674b4900c09,,,,,,,,,,,,,,1,,,,,,,,,,,,,,,,,,,,,,,,,,,,,,,,,,,,,,,,,,,,,,,,,,,,,,,,,46,martillo,,,,,2600.3556,2608.5916,1,1,7.7204,,0,73,73,45,1,REAL,FAKE,,,,,,,,,,,,,,,,,
,,,,,,,,,67e9738d6bb6923faef4a165,SPANISH,13 or older,"no, only English or Spanish",no,2025-07-22_23h38.41.207,empathy_intonation_perc,2024.2.4,Win32,120.4819277,67e9738d6bb6923faef4a165,687ed1b7e638a4cbf2f02089,68806671d58bb674b4900c09,,,,,,,,,,,,,,0,,,,,,,,,,,,,,,,,,,,,,,,,,,,,,,,,,,,,,,,,,,,,,,,,,,,,,,,,50,flamida,,,,,2608.5926,2616.4622,0,1,7.3531,,0,74,74,49,1,REAL,FAKE,,,,,,,,,,,,,,,,,
,,,,,,,,,67e9738d6bb6923faef4a165,SPANISH,13 or older,"no, only English or Spanish",no,2025-07-22_23h38.41.207,empathy_intonation_perc,2024.2.4,Win32,120.4819277,67e9738d6bb6923faef4a165,687ed1b7e638a4cbf2f02089,68806671d58bb674b4900c09,,,,,,,,,,,,,,1,,,,,,,,,,,,,,,,,,,,,,,,,,,,,,,,,,,,,,,,,,,,,,,,,,,,,,,,,2,pellizcar,,,,,2616.4643,2626.4897,1,1,9.5063,,0,75,75,1,1,REAL,FAKE,,,,,,,,,,,,,,,,,
,,,,,,,,,67e9738d6bb6923faef4a165,SPANISH,13 or older,"no, only English or Spanish",no,2025-07-22_23h38.41.207,empathy_intonation_perc,2024.2.4,Win32,120.4819277,67e9738d6bb6923faef4a165,687ed1b7e638a4cbf2f02089,68806671d58bb674b4900c09,,,,,,,,,,,,,,1,,,,,,,,,,,,,,,,,,,,,,,,,,,,,,,,,,,,,,,,,,,,,,,,,,,,,,,,,13,helar,,,,,2626.4917,2634.2771,1,1,7.2739,,0,76,76,12,1,REAL,FAKE,,,,,,,,,,,,,,,,,
,,,,,,,,,67e9738d6bb6923faef4a165,SPANISH,13 or older,"no, only English or Spanish",no,2025-07-22_23h38.41.207,empathy_intonation_perc,2024.2.4,Win32,120.4819277,67e9738d6bb6923faef4a165,687ed1b7e638a4cbf2f02089,68806671d58bb674b4900c09,,,,,,,,,,,,,,1,,,,,,,,,,,,,,,,,,,,,,,,,,,,,,,,,,,,,,,,,,,,,,,,,,,,,,,,,57,tacaño,,,,,2634.279,2646.7114,1,1,11.9219,,0,77,77,56,1,REAL,FAKE,,,,,,,,,,,,,,,,,
,,,,,,,,,67e9738d6bb6923faef4a165,SPANISH,13 or older,"no, only English or Spanish",no,2025-07-22_23h38.41.207,empathy_intonation_perc,2024.2.4,Win32,120.4819277,67e9738d6bb6923faef4a165,687ed1b7e638a4cbf2f02089,68806671d58bb674b4900c09,,,,,,,,,,,,,,1,,,,,,,,,,,,,,,,,,,,,,,,,,,,,,,,,,,,,,,,,,,,,,,,,,,,,,,,,68,alegre,,,,,2646.712,2658.8296,1,1,11.6016,,0,78,78,67,1,REAL,FAKE,,,,,,,,,,,,,,,,,
,,,,,,,,,67e9738d6bb6923faef4a165,SPANISH,13 or older,"no, only English or Spanish",no,2025-07-22_23h38.41.207,empathy_intonation_perc,2024.2.4,Win32,120.4819277,67e9738d6bb6923faef4a165,687ed1b7e638a4cbf2f02089,68806671d58bb674b4900c09,,,,,,,,,,,,,,1,,,,,,,,,,,,,,,,,,,,,,,,,,,,,,,,,,,,,,,,,,,,,,,,,,,,,,,,,55,nevar,,,,,2658.8313,2666.8033,1,1,7.4615,,0,79,79,54,1,REAL,FAKE,,,,,,,,,,,,,,,,,
,,,,,,,,,67e9738d6bb6923faef4a165,SPANISH,13 or older,"no, only English or Spanish",no,2025-07-22_23h38.41.207,empathy_intonation_perc,2024.2.4,Win32,120.4819277,67e9738d6bb6923faef4a165,687ed1b7e638a4cbf2f02089,68806671d58bb674b4900c09,,,,,,,,,,,,,,0,,,,,,,,,,,,,,,,,,,,,,,,,,,,,,,,,,,,,,,,,,,,,,,,,,,,,,,,,63,esposante,,,,,2666.8054,2680.6504,0,1,13.3247,,0,80,80,62,1,REAL,FAKE,,,,,,,,,,,,,,,,,
,,,,,,,,,67e9738d6bb6923faef4a165,SPANISH,13 or older,"no, only English or Spanish",no,2025-07-22_23h38.41.207,empathy_intonation_perc,2024.2.4,Win32,120.4819277,67e9738d6bb6923faef4a165,687ed1b7e638a4cbf2f02089,68806671d58bb674b4900c09,,,,,,,,,,,,,,1,,,,,,,,,,,,,,,,,,,,,,,,,,,,,,,,,,,,,,,,,,,,,,,,,,,,,,,,,71,polvoriento,,,,,2680.6523,2692.8027,1,1,11.6314,,0,81,81,70,1,REAL,FAKE,,,,,,,,,,,,,,,,,
,,,,,,,,,67e9738d6bb6923faef4a165,SPANISH,13 or older,"no, only English or Spanish",no,2025-07-22_23h38.41.207,empathy_intonation_perc,2024.2.4,Win32,120.4819277,67e9738d6bb6923faef4a165,687ed1b7e638a4cbf2f02089,68806671d58bb674b4900c09,,,,,,,,,,,,,,1,,,,,,,,,,,,,,,,,,,,,,,,,,,,,,,,,,,,,,,,,,,,,,,,,,,,,,,,,67,cabello,,,,,2692.8063,2701.1583,1,1,7.8291,,0,82,82,66,1,REAL,FAKE,,,,,,,,,,,,,,,,,
,,,,,,,,,67e9738d6bb6923faef4a165,SPANISH,13 or older,"no, only English or Spanish",no,2025-07-22_23h38.41.207,empathy_intonation_perc,2024.2.4,Win32,120.4819277,67e9738d6bb6923faef4a165,687ed1b7e638a4cbf2f02089,68806671d58bb674b4900c09,,,,,,,,,,,,,,1,,,,,,,,,,,,,,,,,,,,,,,,,,,,,,,,,,,,,,,,,,,,,,,,,,,,,,,,,85,laúd,,,,,2701.1618,2707.8437,0,0,6.1606,,0,83,83,84,1,REAL,FAKE,,,,,,,,,,,,,,,,,
,,,,,,,,,67e9738d6bb6923faef4a165,SPANISH,13 or older,"no, only English or Spanish",no,2025-07-22_23h38.41.207,empathy_intonation_perc,2024.2.4,Win32,120.4819277,67e9738d6bb6923faef4a165,687ed1b7e638a4cbf2f02089,68806671d58bb674b4900c09,,,,,,,,,,,,,,1,,,,,,,,,,,,,,,,,,,,,,,,,,,,,,,,,,,,,,,,,,,,,,,,,,,,,,,,,26,secuestro,,,,,2707.847,2718.5704,1,1,10.2048,,0,84,84,25,1,REAL,FAKE,,,,,,,,,,,,,,,,,
,,,,,,,,,67e9738d6bb6923faef4a165,SPANISH,13 or older,"no, only English or Spanish",no,2025-07-22_23h38.41.207,empathy_intonation_perc,2024.2.4,Win32,120.4819277,67e9738d6bb6923faef4a165,687ed1b7e638a4cbf2f02089,68806671d58bb674b4900c09,,,,,,,,,,,,,,1,,,,,,,,,,,,,,,,,,,,,,,,,,,,,,,,,,,,,,,,,,,,,,,,,,,,,,,,,54,fomentar,,,,,2718.5721,2734.8859,1,1,15.7938,,0,85,85,53,1,REAL,FAKE,,,,,,,,,,,,,,,,,
,,,,,,,,,67e9738d6bb6923faef4a165,SPANISH,13 or older,"no, only English or Spanish",no,2025-07-22_23h38.41.207,empathy_intonation_perc,2024.2.4,Win32,120.4819277,67e9738d6bb6923faef4a165,687ed1b7e638a4cbf2f02089,68806671d58bb674b4900c09,,,,,,,,,,,,,,1,,,,,,,,,,,,,,,,,,,,,,,,,,,,,,,,,,,,,,,,,,,,,,,,,,,,,,,,,86,barato,,,,,2734.8872,2743.3904,1,1,7.9845,,0,86,86,85,1,REAL,FAKE,,,,,,,,,,,,,,,,,
,,,,,,,,,67e9738d6bb6923faef4a165,SPANISH,13 or older,"no, only English or Spanish",no,2025-07-22_23h38.41.207,empathy_intonation_perc,2024.2.4,Win32,120.4819277,67e9738d6bb6923faef4a165,687ed1b7e638a4cbf2f02089,68806671d58bb674b4900c09,,,,,,,,,,,,,,1,,,,,,,,,,,,,,,,,,,,,,,,,,,,,,,,,,,,,,,,,,,,,,,,,,,,,,,,,91,click the 1 key.,,,,,2743.392,2745.7257,1,1,1.8148,,0,87,87,90,1,REAL,FAKE,,,,,,,,,,,,,,,,,
,,,,,,,,,67e9738d6bb6923faef4a165,SPANISH,13 or older,"no, only English or Spanish",no,2025-07-22_23h38.41.207,empathy_intonation_perc,2024.2.4,Win32,120.4819277,67e9738d6bb6923faef4a165,687ed1b7e638a4cbf2f02089,68806671d58bb674b4900c09,,,,,,,,,,,,,,0,,,,,,,,,,,,,,,,,,,,,,,,,,,,,,,,,,,,,,,,,,,,,,,,,,,,,,,,,42,cadallo,,,,,2745.7278,2753.6091,0,1,7.3607,,0,88,88,41,1,REAL,FAKE,,,,,,,,,,,,,,,,,
,,,,,,,,,67e9738d6bb6923faef4a165,SPANISH,13 or older,"no, only English or Spanish",no,2025-07-22_23h38.41.207,empathy_intonation_perc,2024.2.4,Win32,120.4819277,67e9738d6bb6923faef4a165,687ed1b7e638a4cbf2f02089,68806671d58bb674b4900c09,,,,,,,,,,,,,,1,,,,,,,,,,,,,,,,,,,,,,,,,,,,,,,,,,,,,,,,,,,,,,,,,,,,,,,,,40,alfombra,,,,,2753.6118,2762.437,1,1,8.3003,,0,89,89,39,1,REAL,FAKE,,,,,,,,,,,,,,,,,
,,,,,,,,,67e9738d6bb6923faef4a165,SPANISH,13 or older,"no, only English or Spanish",no,2025-07-22_23h38.41.207,empathy_intonation_perc,2024.2.4,Win32,120.4819277,67e9738d6bb6923faef4a165,687ed1b7e638a4cbf2f02089,68806671d58bb674b4900c09,,,,,,,,,,,,,,0,,,,,,,,,,,,,,,,,,,,,,,,,,,,,,,,,,,,,,,,,,,,,,,,,,,,,,,,,74,cintro,,,,,2762.4379,2775.088,0,1,12.1332,,0,90,90,73,1,REAL,FAKE,,,,,,,,,,,,,,,,,
,,,,,,,,,67e9738d6bb6923faef4a165,SPANISH,13 or older,"no, only English or Spanish",no,2025-07-22_23h38.41.207,empathy_intonation_perc,2024.2.4,Win32,120.4819277,67e9738d6bb6923faef4a165,687ed1b7e638a4cbf2f02089,68806671d58bb674b4900c09,,,,,,,,,,,,,,0,,,,,,,,,,,,,,,,,,,,,,,,,,,,,,,,,,,,,,,,,,,,,,,,,,,,,,,,,30,alardio,,,,,2775.0887,2784.4166,0,1,8.8106,,0,91,91,29,1,REAL,FAKE,,,,,,,,,,,,,,,,,
,,,,,,,,,67e9738d6bb6923faef4a165,SPANISH,13 or older,"no, only English or Spanish",no,2025-07-22_23h38.41.207,empathy_intonation_perc,2024.2.4,Win32,120.4819277,67e9738d6bb6923faef4a165,687ed1b7e638a4cbf2f02089,68806671d58bb674b4900c09,,,,,,,,,,,,,,,,,,,,,,,,,,,,,,,,,,,,,,,,,,,,,,,,,,,,,,,,,,,,,,,,,,,,,,,,,,,,,,,,,,,,,,,,,,2784.4173,2797.9708,,,,,,,,,,,,,,,
,,,,,,,,,67e9738d6bb6923faef4a165,SPANISH,13 or older,"no, only English or Spanish",no,2025-07-22_23h38.41.207,empathy_intonation_perc,2024.2.4,Win32,120.4819277,67e9738d6bb6923faef4a165,687ed1b7e638a4cbf2f02089,68806671d58bb674b4900c09,,,,,,,,,,,,,1,,,,,,,,,,,,,,,,,,,,,,,,,,,,,,,,,,,,,,,,,,,,,,,,,,,,,,,,,,,,,,,,,,,,,,,,,,,,,,,2798.0014,2806.0378,strongly agree,0,0,0,0,1,I can easily tell if someone else wants to enter a conversation.,1,0,1,0,,
,,,,,,,,,67e9738d6bb6923faef4a165,SPANISH,13 or older,"no, only English or Spanish",no,2025-07-22_23h38.41.207,empathy_intonation_perc,2024.2.4,Win32,120.4819277,67e9738d6bb6923faef4a165,687ed1b7e638a4cbf2f02089,68806671d58bb674b4900c09,,,,,,,,,,,,,2,,,,,,,,,,,,,,,,,,,,,,,,,,,,,,,,,,,,,,,,,,,,,,,,,,,,,,,,,,,,,,,,,,,,,,,,,,,,,,,2806.0404,2810.0712,slightly disagree,0,1,1,1,1,I prefer animals to humans.,0,1,0,0,,
,,,,,,,,,67e9738d6bb6923faef4a165,SPANISH,13 or older,"no, only English or Spanish",no,2025-07-22_23h38.41.207,empathy_intonation_perc,2024.2.4,Win32,120.4819277,67e9738d6bb6923faef4a165,687ed1b7e638a4cbf2f02089,68806671d58bb674b4900c09,,,,,,,,,,,,,3,,,,,,,,,,,,,,,,,,,,,,,,,,,,,,,,,,,,,,,,,,,,,,,,,,,,,,,,,,,,,,,,,,,,,,,,,,,,,,,2810.0726,2814.5727,slightly agree,0,2,2,2,1,I try to keep up with the current trends and fashions.,0,1,0,0,,
,,,,,,,,,67e9738d6bb6923faef4a165,SPANISH,13 or older,"no, only English or Spanish",no,2025-07-22_23h38.41.207,empathy_intonation_perc,2024.2.4,Win32,120.4819277,67e9738d6bb6923faef4a165,687ed1b7e638a4cbf2f02089,68806671d58bb674b4900c09,,,,,,,,,,,,,4,,,,,,,,,,,,,,,,,,,,,,,,,,,,,,,,,,,,,,,,,,,,,,,,,,,,,,,,,,,,,,,,,,,,,,,,,,,,,,,2814.5777,2823.019,slightly agree,0,3,3,3,1,"I find it difficult to explain to others things that I understand easily,   when they don't understand it first time.",1,0,0,1,,
,,,,,,,,,67e9738d6bb6923faef4a165,SPANISH,13 or older,"no, only English or Spanish",no,2025-07-22_23h38.41.207,empathy_intonation_perc,2024.2.4,Win32,120.4819277,67e9738d6bb6923faef4a165,687ed1b7e638a4cbf2f02089,68806671d58bb674b4900c09,,,,,,,,,,,,,5,,,,,,,,,,,,,,,,,,,,,,,,,,,,,,,,,,,,,,,,,,,,,,,,,,,,,,,,,,,,,,,,,,,,,,,,,,,,,,,2823.0205,2826.1146,slightly agree,0,4,4,4,1,I dream most nights.,0,1,0,0,,
,,,,,,,,,67e9738d6bb6923faef4a165,SPANISH,13 or older,"no, only English or Spanish",no,2025-07-22_23h38.41.207,empathy_intonation_perc,2024.2.4,Win32,120.4819277,67e9738d6bb6923faef4a165,687ed1b7e638a4cbf2f02089,68806671d58bb674b4900c09,,,,,,,,,,,,,6,,,,,,,,,,,,,,,,,,,,,,,,,,,,,,,,,,,,,,,,,,,,,,,,,,,,,,,,,,,,,,,,,,,,,,,,,,,,,,,2826.1164,2829.6821,strongly agree,0,5,5,5,1,I really enjoy caring for other people.,1,0,1,0,,
,,,,,,,,,67e9738d6bb6923faef4a165,SPANISH,13 or older,"no, only English or Spanish",no,2025-07-22_23h38.41.207,empathy_intonation_perc,2024.2.4,Win32,120.4819277,67e9738d6bb6923faef4a165,687ed1b7e638a4cbf2f02089,68806671d58bb674b4900c09,,,,,,,,,,,,,7,,,,,,,,,,,,,,,,,,,,,,,,,,,,,,,,,,,,,,,,,,,,,,,,,,,,,,,,,,,,,,,,,,,,,,,,,,,,,,,2829.6863,2834.5457,slightly agree,0,6,6,6,1,I try to solve my own problems rather than discussing them with others.,0,1,0,0,,
,,,,,,,,,67e9738d6bb6923faef4a165,SPANISH,13 or older,"no, only English or Spanish",no,2025-07-22_23h38.41.207,empathy_intonation_perc,2024.2.4,Win32,120.4819277,67e9738d6bb6923faef4a165,687ed1b7e638a4cbf2f02089,68806671d58bb674b4900c09,,,,,,,,,,,,,8,,,,,,,,,,,,,,,,,,,,,,,,,,,,,,,,,,,,,,,,,,,,,,,,,,,,,,,,,,,,,,,,,,,,,,,,,,,,,,,2834.548,2839.5959,slightly disagree,0,7,7,7,1,I find it hard to know what to do in a social situation.,1,0,0,1,,
,,,,,,,,,67e9738d6bb6923faef4a165,SPANISH,13 or older,"no, only English or Spanish",no,2025-07-22_23h38.41.207,empathy_intonation_perc,2024.2.4,Win32,120.4819277,67e9738d6bb6923faef4a165,687ed1b7e638a4cbf2f02089,68806671d58bb674b4900c09,,,,,,,,,,,,,9,,,,,,,,,,,,,,,,,,,,,,,,,,,,,,,,,,,,,,,,,,,,,,,,,,,,,,,,,,,,,,,,,,,,,,,,,,,,,,,2839.597,2844.7148,slightly agree,0,8,8,8,1,I am at my best first thing in the morning.,0,1,0,0,,
