instructions_exposure.started,instructions_exposure.stopped,instructions_exposure_loop.thisRepN,instructions_exposure_loop.thisTrialN,instructions_exposure_loop.thisN,instructions_exposure_loop.thisIndex,instructions_exposure_loop.ran,instructions_text,continue_text,participant_id,"What variety of Spanish are you most familiar with? (e.g., Peruvian, Spanish, Mexican)",At what age did you begin learning Spanish?,Are you proficient in any languages other than English/Spanish?,"Are you familiar with Caribbean (e.g., Caribbean, Puerto Rican) or Galician Spanish?",date,expName,psychopyVersion,OS,frameRate,id,study_id,session,trial_exposure.started,trial_exposure.stopped,key_resp_exposure.keys,key_resp_exposure.corr,key_resp_exposure.rt,key_resp_exposure.duration,key_resp.keys,exposure_loop.thisRepN,exposure_loop.thisTrialN,exposure_loop.thisN,exposure_loop.thisIndex,exposure_loop.ran,item_num,correct_response,question,path,duration,instructions_2afc.started,instructions_2afc.stopped,instructions_2afc_loop.thisRepN,instructions_2afc_loop.thisTrialN,instructions_2afc_loop.thisN,instructions_2afc_loop.thisIndex,instructions_2afc_loop.ran,practice_2afc.started,practice_2afc.stopped,key_resp_2afc_practice.keys,key_resp_2afc_practice.corr,key_resp_2afc_practice.rt,key_resp_2afc_practice.duration,trials_2afc_practice_loop.thisRepN,trials_2afc_practice_loop.thisTrialN,trials_2afc_practice_loop.thisN,trials_2afc_practice_loop.thisIndex,trials_2afc_practice_loop.ran,check_2afc.started,check_2afc.stopped,trial_2afc.started,trial_2afc.stopped,key_resp_2afc_trial.keys,key_resp_2afc_trial.corr,key_resp_2afc_trial.rt,key_resp_2afc_trial.duration,trials_2afc_loop.thisRepN,trials_2afc_loop.thisTrialN,trials_2afc_loop.thisN,trials_2afc_loop.thisIndex,trials_2afc_loop.ran,target,variety,instructions_lextale.started,instructions_lextale.stopped,instructions_lextale_loop.thisRepN,instructions_lextale_loop.thisTrialN,instructions_lextale_loop.thisN,instructions_lextale_loop.thisIndex,instructions_lextale_loop.ran,practice_lextale.started,practice_lextale.stopped,key_resp_lextale_practice.keys,key_resp_lextale_practice.corr,key_resp_lextale_practice.rt,key_resp_lextale_practice.duration,practice_feedback_lextale.started,practice_feedback_lextale.stopped,trials_lextale_practice_loop.thisRepN,trials_lextale_practice_loop.thisTrialN,trials_lextale_practice_loop.thisN,trials_lextale_practice_loop.thisIndex,trials_lextale_practice_loop.ran,stim,word,prac_button_real,prac_button_false,check_lextale.started,check_lextale.stopped,trial_lextale.started,trial_lextale.stopped,key_resp_lextale_trial.keys,key_resp_lextale_trial.corr,key_resp_lextale_trial.rt,key_resp_lextale_trial.duration,trials_lextale_loop.thisRepN,trials_lextale_loop.thisTrialN,trials_lextale_loop.thisN,trials_lextale_loop.thisIndex,trials_lextale_loop.ran,button_real,button_false,instructions_eq.started,instructions_eq.stopped,trial_eq.started,trial_eq.stopped,slider_eq_trial.response,trials_eq_loop.thisRepN,trials_eq_loop.thisTrialN,trials_eq_loop.thisN,trials_eq_loop.thisIndex,trials_eq_loop.ran,item,is_test_item,is_distractor,is_agree_score,is_disagree_score,end_exp.started,end_exp.stopped
0.0114,4.6636,0,0,0,0,1,"In the following task, you are going to hear a series of conversations.", (press the space bar to continue),CKT2VZHG,spanish,13 or older,click here to respond,no,2025-07-23_06h48.38.514,empathy_intonation_perc,2024.2.4,Win32,58.82352941,605f61f6a2529d666698844b,687ed1b7e638a4cbf2f02089,6880bdd16d78a169880536e2,,,,,,,,,,,,,,,,,,,,,,,,,,,,,,,,,,,,,,,,,,,,,,,,,,,,,,,,,,,,,,,,,,,,,,,,,,,,,,,,,,,,,,,,,,,,,,,,,,,,,,,,,,
4.6651,9.3476,0,1,1,1,1,It is okay if you don't not 100% understand them!, (press the space bar to continue),CKT2VZHG,spanish,13 or older,click here to respond,no,2025-07-23_06h48.38.514,empathy_intonation_perc,2024.2.4,Win32,58.82352941,605f61f6a2529d666698844b,687ed1b7e638a4cbf2f02089,6880bdd16d78a169880536e2,,,,,,,,,,,,,,,,,,,,,,,,,,,,,,,,,,,,,,,,,,,,,,,,,,,,,,,,,,,,,,,,,,,,,,,,,,,,,,,,,,,,,,,,,,,,,,,,,,,,,,,,,,
9.3503,13.0358,0,2,2,2,1,"After, you will read a sentence about the conversation and decide if it's true or false.", (press the space bar to continue),CKT2VZHG,spanish,13 or older,click here to respond,no,2025-07-23_06h48.38.514,empathy_intonation_perc,2024.2.4,Win32,58.82352941,605f61f6a2529d666698844b,687ed1b7e638a4cbf2f02089,6880bdd16d78a169880536e2,,,,,,,,,,,,,,,,,,,,,,,,,,,,,,,,,,,,,,,,,,,,,,,,,,,,,,,,,,,,,,,,,,,,,,,,,,,,,,,,,,,,,,,,,,,,,,,,,,,,,,,,,,
13.0392,16.0049,0,3,3,3,1,"If it's true, press '1' (True) and if it's false press '0' (False).", (press the space bar to continue),CKT2VZHG,spanish,13 or older,click here to respond,no,2025-07-23_06h48.38.514,empathy_intonation_perc,2024.2.4,Win32,58.82352941,605f61f6a2529d666698844b,687ed1b7e638a4cbf2f02089,6880bdd16d78a169880536e2,,,,,,,,,,,,,,,,,,,,,,,,,,,,,,,,,,,,,,,,,,,,,,,,,,,,,,,,,,,,,,,,,,,,,,,,,,,,,,,,,,,,,,,,,,,,,,,,,,,,,,,,,,
,,,,,,,,,CKT2VZHG,spanish,13 or older,click here to respond,no,2025-07-23_06h48.38.514,empathy_intonation_perc,2024.2.4,Win32,58.82352941,605f61f6a2529d666698844b,687ed1b7e638a4cbf2f02089,6880bdd16d78a169880536e2,16.0184,69.8299,1,1,6.7656,,,0,0,0,0,1,1,1,The son asked the mom if Aunt Marina is okay.,./stim/exposure_wavs/ga_stimuli_convo.wav,47,,,,,,,,,,,,,,,,,,,,,,,,,,,,,,,,,,,,,,,,,,,,,,,,,,,,,,,,,,,,,,,,,,,,,,,,,,,,,,,,,,,,,,,,,
,,,,,,,,,CKT2VZHG,spanish,13 or older,click here to respond,no,2025-07-23_06h48.38.514,empathy_intonation_perc,2024.2.4,Win32,58.82352941,605f61f6a2529d666698844b,687ed1b7e638a4cbf2f02089,6880bdd16d78a169880536e2,69.8329,109.5489,1,0,3.672,,,0,1,1,2,1,3,0,The mom already has rice.,./stim/exposure_wavs/pr_stimuli_convo.wav,36,,,,,,,,,,,,,,,,,,,,,,,,,,,,,,,,,,,,,,,,,,,,,,,,,,,,,,,,,,,,,,,,,,,,,,,,,,,,,,,,,,,,,,,,,
,,,,,,,,,CKT2VZHG,spanish,13 or older,click here to respond,no,2025-07-23_06h48.38.514,empathy_intonation_perc,2024.2.4,Win32,58.82352941,605f61f6a2529d666698844b,687ed1b7e638a4cbf2f02089,6880bdd16d78a169880536e2,109.5553,180.6862,0,0,11.0942,,,0,2,2,1,1,2,1,The mom asked the daughter if she already went to the supermarket.,./stim/exposure_wavs/dr_stimuli_convo.wav,60,,,,,,,,,,,,,,,,,,,,,,,,,,,,,,,,,,,,,,,,,,,,,,,,,,,,,,,,,,,,,,,,,,,,,,,,,,,,,,,,,,,,,,,,,
,,,,,,,"In the following task you are going to hear a series of utterances. 

  You will decide if the utterances sound like questions or not using your keyboard.", (press the spacebar to continue),CKT2VZHG,spanish,13 or older,click here to respond,no,2025-07-23_06h48.38.514,empathy_intonation_perc,2024.2.4,Win32,58.82352941,605f61f6a2529d666698844b,687ed1b7e638a4cbf2f02089,6880bdd16d78a169880536e2,,,,,,,,,,,,,,,,,,180.6948,188.7126,0,0,0,0,1,,,,,,,,,,,,,,,,,,,,,,,,,,,,,,,,,,,,,,,,,,,,,,,,,,,,,,,,,,,,,,,,,,,,,,,,,,,,,,,,,,
,,,,,,,"If you believe the utterance is a question, type '1' (for 'yes') and if you do not 
  believe it is a question type '0' (for 'no').

  Let's practice a bit...", (press the spacebar to continue),CKT2VZHG,spanish,13 or older,click here to respond,no,2025-07-23_06h48.38.514,empathy_intonation_perc,2024.2.4,Win32,58.82352941,605f61f6a2529d666698844b,687ed1b7e638a4cbf2f02089,6880bdd16d78a169880536e2,,,,,,,,,,,,,,,,,,188.7153,196.4017,0,1,1,1,1,,,,,,,,,,,,,,,,,,,,,,,,,,,,,,,,,,,,,,,,,,,,,,,,,,,,,,,,,,,,,,,,,,,,,,,,,,,,,,,,,,
,,,,,,,,,CKT2VZHG,spanish,13 or older,click here to respond,no,2025-07-23_06h48.38.514,empathy_intonation_perc,2024.2.4,Win32,58.82352941,605f61f6a2529d666698844b,687ed1b7e638a4cbf2f02089,6880bdd16d78a169880536e2,,,,,,,,,,,,,,0,,./stim/wavs/cuban_statement_filler_Cocinabas-por-la-noche.wav,,,,,,,,,196.4123,200.9794,0,1,4.0557,,0,0,0,4,1,,,,,,,,,,,,,,,,,,,,,,,,,,,,,,,,,,,,,,,,,,,,,,,,,,,,,,,,,,,,,,,,,,,,,,,
,,,,,,,,,CKT2VZHG,spanish,13 or older,click here to respond,no,2025-07-23_06h48.38.514,empathy_intonation_perc,2024.2.4,Win32,58.82352941,605f61f6a2529d666698844b,687ed1b7e638a4cbf2f02089,6880bdd16d78a169880536e2,,,,,,,,,,,,,,0,,./stim/wavs/peruvian_statement_filler_El-nino-habla-con-su-madre.wav,,,,,,,,,200.9802,204.363,0,1,2.8539,,0,1,1,6,1,,,,,,,,,,,,,,,,,,,,,,,,,,,,,,,,,,,,,,,,,,,,,,,,,,,,,,,,,,,,,,,,,,,,,,,
,,,,,,,,,CKT2VZHG,spanish,13 or older,click here to respond,no,2025-07-23_06h48.38.514,empathy_intonation_perc,2024.2.4,Win32,58.82352941,605f61f6a2529d666698844b,687ed1b7e638a4cbf2f02089,6880bdd16d78a169880536e2,,,,,,,,,,,,,,1,,./stim/wavs/argentine_question_filler_Mi-vecino-habla-mucho.wav,,,,,,,,,204.3644,207.3307,1,1,2.4369,,0,2,2,1,1,,,,,,,,,,,,,,,,,,,,,,,,,,,,,,,,,,,,,,,,,,,,,,,,,,,,,,,,,,,,,,,,,,,,,,,
,,,,,,,,,CKT2VZHG,spanish,13 or older,click here to respond,no,2025-07-23_06h48.38.514,empathy_intonation_perc,2024.2.4,Win32,58.82352941,605f61f6a2529d666698844b,687ed1b7e638a4cbf2f02089,6880bdd16d78a169880536e2,,,,,,,,,,,,,,1,,./stim/wavs/chilean_question_filler_Mi-padre-cantaba-bien.wav,,,,,,,,,207.3322,211.0996,0,0,3.2363,,0,3,3,2,1,,,,,,,,,,,,,,,,,,,,,,,,,,,,,,,,,,,,,,,,,,,,,,,,,,,,,,,,,,,,,,,,,,,,,,,
,,,,,,,,,CKT2VZHG,spanish,13 or older,click here to respond,no,2025-07-23_06h48.38.514,empathy_intonation_perc,2024.2.4,Win32,58.82352941,605f61f6a2529d666698844b,687ed1b7e638a4cbf2f02089,6880bdd16d78a169880536e2,,,,,,,,,,,,,,1,,./stim/wavs/castilian_question_filler_Mi-esposo-conoce-al-chico.wav,,,,,,,,,211.1002,214.3871,1,1,2.7528,,0,4,4,0,1,,,,,,,,,,,,,,,,,,,,,,,,,,,,,,,,,,,,,,,,,,,,,,,,,,,,,,,,,,,,,,,,,,,,,,,
,,,,,,,,,CKT2VZHG,spanish,13 or older,click here to respond,no,2025-07-23_06h48.38.514,empathy_intonation_perc,2024.2.4,Win32,58.82352941,605f61f6a2529d666698844b,687ed1b7e638a4cbf2f02089,6880bdd16d78a169880536e2,,,,,,,,,,,,,,0,,./stim/wavs/puertorican_statement_filler_La-nina-pinta-con-su-amiga.wav,,,,,,,,,214.3879,217.456,0,1,2.5357,,0,5,5,7,1,,,,,,,,,,,,,,,,,,,,,,,,,,,,,,,,,,,,,,,,,,,,,,,,,,,,,,,,,,,,,,,,,,,,,,,
,,,,,,,,,CKT2VZHG,spanish,13 or older,click here to respond,no,2025-07-23_06h48.38.514,empathy_intonation_perc,2024.2.4,Win32,58.82352941,605f61f6a2529d666698844b,687ed1b7e638a4cbf2f02089,6880bdd16d78a169880536e2,,,,,,,,,,,,,,0,,./stim/wavs/andalusian_statement_filler_Alberto-nunca-se-afeita.wav,,,,,,,,,217.4569,221.8444,0,1,3.854,,0,6,6,5,1,,,,,,,,,,,,,,,,,,,,,,,,,,,,,,,,,,,,,,,,,,,,,,,,,,,,,,,,,,,,,,,,,,,,,,,
,,,,,,,,,CKT2VZHG,spanish,13 or older,click here to respond,no,2025-07-23_06h48.38.514,empathy_intonation_perc,2024.2.4,Win32,58.82352941,605f61f6a2529d666698844b,687ed1b7e638a4cbf2f02089,6880bdd16d78a169880536e2,,,,,,,,,,,,,,1,,./stim/wavs/mexican_question_filler_Felipe-no-tiene-contrasena.wav,,,,,,,,,221.8462,225.03,1,1,2.6527,,0,7,7,3,1,,,,,,,,,,,,,,,,,,,,,,,,,,,,,,,,,,,,,,,,,,,,,,,,,,,,,,,,,,,,,,,,,,,,,,,
,,,,,,,,,CKT2VZHG,spanish,13 or older,click here to respond,no,2025-07-23_06h48.38.514,empathy_intonation_perc,2024.2.4,Win32,58.82352941,605f61f6a2529d666698844b,687ed1b7e638a4cbf2f02089,6880bdd16d78a169880536e2,,,,,,,,,,,,,,,,,,,,,,,,,,,,,,,,,,,,225.0305,236.2239,,,,,,,,,,,,,,,,,,,,,,,,,,,,,,,,,,,,,,,,,,,,,,,,,,,,,,,,,,,,,,,,,,,,,
,,,,,,,,,CKT2VZHG,spanish,13 or older,click here to respond,no,2025-07-23_06h48.38.514,empathy_intonation_perc,2024.2.4,Win32,58.82352941,605f61f6a2529d666698844b,687ed1b7e638a4cbf2f02089,6880bdd16d78a169880536e2,,,,,,,,,,,,,67,0,,./stim/wavs/puertorican_match_declarative-broad-focus_Manuela-vende-el-carro.wav,,,,,,,,,,,,,,,,,,,,,,236.2294,238.7792,0,1,2.0191,,0,0,0,66,1,0,puertorican,,,,,,,,,,,,,,,,,,,,,,,,,,,,,,,,,,,,,,,,,,,,,,,,,,,,,,,,
,,,,,,,,,CKT2VZHG,spanish,13 or older,click here to respond,no,2025-07-23_06h48.38.514,empathy_intonation_perc,2024.2.4,Win32,58.82352941,605f61f6a2529d666698844b,687ed1b7e638a4cbf2f02089,6880bdd16d78a169880536e2,,,,,,,,,,,,,7,1,,./stim/wavs/cuban_match_interrogative-total-yn_Ana-lleva-el-abrigo.wav,,,,,,,,,,,,,,,,,,,,,,238.7803,240.7622,0,0,1.4508,,0,1,1,6,1,1,cuban,,,,,,,,,,,,,,,,,,,,,,,,,,,,,,,,,,,,,,,,,,,,,,,,,,,,,,,,
,,,,,,,,,CKT2VZHG,spanish,13 or older,click here to respond,no,2025-07-23_06h48.38.514,empathy_intonation_perc,2024.2.4,Win32,58.82352941,605f61f6a2529d666698844b,687ed1b7e638a4cbf2f02089,6880bdd16d78a169880536e2,,,,,,,,,,,,,66,0,,./stim/wavs/puertorican_match_declarative-broad-focus_Emilio-ama-la-marcha.wav,,,,,,,,,,,,,,,,,,,,,,240.7626,242.9789,0,1,1.674,,0,2,2,65,1,0,puertorican,,,,,,,,,,,,,,,,,,,,,,,,,,,,,,,,,,,,,,,,,,,,,,,,,,,,,,,,
,,,,,,,,,CKT2VZHG,spanish,13 or older,click here to respond,no,2025-07-23_06h48.38.514,empathy_intonation_perc,2024.2.4,Win32,58.82352941,605f61f6a2529d666698844b,687ed1b7e638a4cbf2f02089,6880bdd16d78a169880536e2,,,,,,,,,,,,,52,0,,./stim/wavs/cuban_match_declarative-broad-focus_Daniel-iba-a-Bolivia.wav,,,,,,,,,,,,,,,,,,,,,,242.9795,245.3956,0,1,1.8893,,0,3,3,51,1,0,cuban,,,,,,,,,,,,,,,,,,,,,,,,,,,,,,,,,,,,,,,,,,,,,,,,,,,,,,,,
,,,,,,,,,CKT2VZHG,spanish,13 or older,click here to respond,no,2025-07-23_06h48.38.514,empathy_intonation_perc,2024.2.4,Win32,58.82352941,605f61f6a2529d666698844b,687ed1b7e638a4cbf2f02089,6880bdd16d78a169880536e2,,,,,,,,,,,,,5,1,,./stim/wavs/castilian_match_interrogative-total-yn_Mariano-habla-del-tiempo.wav,,,,,,,,,,,,,,,,,,,,,,245.3964,247.7792,1,1,1.8524,,0,4,4,4,1,0,castilian,,,,,,,,,,,,,,,,,,,,,,,,,,,,,,,,,,,,,,,,,,,,,,,,,,,,,,,,
,,,,,,,,,CKT2VZHG,spanish,13 or older,click here to respond,no,2025-07-23_06h48.38.514,empathy_intonation_perc,2024.2.4,Win32,58.82352941,605f61f6a2529d666698844b,687ed1b7e638a4cbf2f02089,6880bdd16d78a169880536e2,,,,,,,,,,,,,78,0,,./stim/wavs/cuban_mismatch_declarative-broad-focus_Mi-tia-odia-la-lluvia.wav,,,,,,,,,,,,,,,,,,,,,,247.78,250.0291,0,1,1.7183,,0,5,5,77,1,0,cuban,,,,,,,,,,,,,,,,,,,,,,,,,,,,,,,,,,,,,,,,,,,,,,,,,,,,,,,,
,,,,,,,,,CKT2VZHG,spanish,13 or older,click here to respond,no,2025-07-23_06h48.38.514,empathy_intonation_perc,2024.2.4,Win32,58.82352941,605f61f6a2529d666698844b,687ed1b7e638a4cbf2f02089,6880bdd16d78a169880536e2,,,,,,,,,,,,,29,1,,./stim/wavs/castilian_mismatch_interrogative-total-yn_Mi-tia-odia-la-lluvia.wav,,,,,,,,,,,,,,,,,,,,,,250.0299,252.2624,1,1,1.7015,,0,6,6,28,1,0,castilian,,,,,,,,,,,,,,,,,,,,,,,,,,,,,,,,,,,,,,,,,,,,,,,,,,,,,,,,
,,,,,,,,,CKT2VZHG,spanish,13 or older,click here to respond,no,2025-07-23_06h48.38.514,empathy_intonation_perc,2024.2.4,Win32,58.82352941,605f61f6a2529d666698844b,687ed1b7e638a4cbf2f02089,6880bdd16d78a169880536e2,,,,,,,,,,,,,21,1,,./stim/wavs/puertorican_match_interrogative-total-yn_David-leia-el-libro.wav,,,,,,,,,,,,,,,,,,,,,,252.2631,254.4116,0,0,1.6178,,0,7,7,20,1,1,puertorican,,,,,,,,,,,,,,,,,,,,,,,,,,,,,,,,,,,,,,,,,,,,,,,,,,,,,,,,
,,,,,,,,,CKT2VZHG,spanish,13 or older,click here to respond,no,2025-07-23_06h48.38.514,empathy_intonation_perc,2024.2.4,Win32,58.82352941,605f61f6a2529d666698844b,687ed1b7e638a4cbf2f02089,6880bdd16d78a169880536e2,,,,,,,,,,,,,68,0,,./stim/wavs/puertorican_match_declarative-broad-focus_Maria-bebe-el-vino.wav,,,,,,,,,,,,,,,,,,,,,,254.4119,257.1287,0,1,2.2022,,0,8,8,67,1,0,puertorican,,,,,,,,,,,,,,,,,,,,,,,,,,,,,,,,,,,,,,,,,,,,,,,,,,,,,,,,
,,,,,,,,,CKT2VZHG,spanish,13 or older,click here to respond,no,2025-07-23_06h48.38.514,empathy_intonation_perc,2024.2.4,Win32,58.82352941,605f61f6a2529d666698844b,687ed1b7e638a4cbf2f02089,6880bdd16d78a169880536e2,,,,,,,,,,,,,81,0,,./stim/wavs/mexican_mismatch_declarative-broad-focus_La-maestra-vive-en-Paris.wav,,,,,,,,,,,,,,,,,,,,,,257.1294,259.7821,0,1,2.1196,,0,9,9,80,1,0,mexican,,,,,,,,,,,,,,,,,,,,,,,,,,,,,,,,,,,,,,,,,,,,,,,,,,,,,,,,
,,,,,,,,,CKT2VZHG,spanish,13 or older,click here to respond,no,2025-07-23_06h48.38.514,empathy_intonation_perc,2024.2.4,Win32,58.82352941,605f61f6a2529d666698844b,687ed1b7e638a4cbf2f02089,6880bdd16d78a169880536e2,,,,,,,,,,,,,46,0,,./stim/wavs/castilian_match_declarative-broad-focus_Emilio-ama-la-marcha.wav,,,,,,,,,,,,,,,,,,,,,,259.7829,262.4344,0,1,2.1189,,0,10,10,45,1,0,castilian,,,,,,,,,,,,,,,,,,,,,,,,,,,,,,,,,,,,,,,,,,,,,,,,,,,,,,,,
,,,,,,,,,CKT2VZHG,spanish,13 or older,click here to respond,no,2025-07-23_06h48.38.514,empathy_intonation_perc,2024.2.4,Win32,58.82352941,605f61f6a2529d666698844b,687ed1b7e638a4cbf2f02089,6880bdd16d78a169880536e2,,,,,,,,,,,,,54,0,,./stim/wavs/cuban_match_declarative-broad-focus_Maria-bebe-el-vino.wav,,,,,,,,,,,,,,,,,,,,,,262.4348,264.5704,0,1,1.6017,,0,11,11,53,1,0,cuban,,,,,,,,,,,,,,,,,,,,,,,,,,,,,,,,,,,,,,,,,,,,,,,,,,,,,,,,
,,,,,,,,,CKT2VZHG,spanish,13 or older,click here to respond,no,2025-07-23_06h48.38.514,empathy_intonation_perc,2024.2.4,Win32,58.82352941,605f61f6a2529d666698844b,687ed1b7e638a4cbf2f02089,6880bdd16d78a169880536e2,,,,,,,,,,,,,44,1,,./stim/wavs/puertorican_mismatch_interrogative-total-yn_Mi-madre-come-la-fruta.wav,,,,,,,,,,,,,,,,,,,,,,264.5714,266.9721,0,0,1.8686,,0,12,12,43,1,1,puertorican,,,,,,,,,,,,,,,,,,,,,,,,,,,,,,,,,,,,,,,,,,,,,,,,,,,,,,,,
,,,,,,,,,CKT2VZHG,spanish,13 or older,click here to respond,no,2025-07-23_06h48.38.514,empathy_intonation_perc,2024.2.4,Win32,58.82352941,605f61f6a2529d666698844b,687ed1b7e638a4cbf2f02089,6880bdd16d78a169880536e2,,,,,,,,,,,,,27,1,,./stim/wavs/castilian_mismatch_interrogative-total-yn_Mi-madre-come-la-fruta.wav,,,,,,,,,,,,,,,,,,,,,,266.9727,269.275,1,1,1.7694,,0,13,13,26,1,0,castilian,,,,,,,,,,,,,,,,,,,,,,,,,,,,,,,,,,,,,,,,,,,,,,,,,,,,,,,,
,,,,,,,,,CKT2VZHG,spanish,13 or older,click here to respond,no,2025-07-23_06h48.38.514,empathy_intonation_perc,2024.2.4,Win32,58.82352941,605f61f6a2529d666698844b,687ed1b7e638a4cbf2f02089,6880bdd16d78a169880536e2,,,,,,,,,,,,,73,0,,./stim/wavs/castilian_mismatch_declarative-broad-focus_Mi-tia-odia-la-lluvia.wav,,,,,,,,,,,,,,,,,,,,,,269.2758,271.3926,0,1,1.5845,,0,14,14,72,1,0,castilian,,,,,,,,,,,,,,,,,,,,,,,,,,,,,,,,,,,,,,,,,,,,,,,,,,,,,,,,
,,,,,,,,,CKT2VZHG,spanish,13 or older,click here to respond,no,2025-07-23_06h48.38.514,empathy_intonation_perc,2024.2.4,Win32,58.82352941,605f61f6a2529d666698844b,687ed1b7e638a4cbf2f02089,6880bdd16d78a169880536e2,,,,,,,,,,,,,45,0,,./stim/wavs/castilian_match_declarative-broad-focus_David-leia-el-libro.wav,,,,,,,,,,,,,,,,,,,,,,271.393,273.6132,0,1,1.7024,,0,15,15,44,1,0,castilian,,,,,,,,,,,,,,,,,,,,,,,,,,,,,,,,,,,,,,,,,,,,,,,,,,,,,,,,
,,,,,,,,,CKT2VZHG,spanish,13 or older,click here to respond,no,2025-07-23_06h48.38.514,empathy_intonation_perc,2024.2.4,Win32,58.82352941,605f61f6a2529d666698844b,687ed1b7e638a4cbf2f02089,6880bdd16d78a169880536e2,,,,,,,,,,,,,47,0,,./stim/wavs/castilian_match_declarative-broad-focus_Manuela-vende-el-carro.wav,,,,,,,,,,,,,,,,,,,,,,273.6143,275.9324,0,1,1.7858,,0,16,16,46,1,0,castilian,,,,,,,,,,,,,,,,,,,,,,,,,,,,,,,,,,,,,,,,,,,,,,,,,,,,,,,,
,,,,,,,,,CKT2VZHG,spanish,13 or older,click here to respond,no,2025-07-23_06h48.38.514,empathy_intonation_perc,2024.2.4,Win32,58.82352941,605f61f6a2529d666698844b,687ed1b7e638a4cbf2f02089,6880bdd16d78a169880536e2,,,,,,,,,,,,,79,0,,./stim/wavs/mexican_mismatch_declarative-broad-focus_El-bebe-comia-muy-bien.wav,,,,,,,,,,,,,,,,,,,,,,275.9332,278.1995,0,1,1.735,,0,17,17,78,1,0,mexican,,,,,,,,,,,,,,,,,,,,,,,,,,,,,,,,,,,,,,,,,,,,,,,,,,,,,,,,
,,,,,,,,,CKT2VZHG,spanish,13 or older,click here to respond,no,2025-07-23_06h48.38.514,empathy_intonation_perc,2024.2.4,Win32,58.82352941,605f61f6a2529d666698844b,687ed1b7e638a4cbf2f02089,6880bdd16d78a169880536e2,,,,,,,,,,,,,39,1,,./stim/wavs/mexican_mismatch_interrogative-total-yn_Mi-tia-odia-la-lluvia.wav,,,,,,,,,,,,,,,,,,,,,,278.1998,280.5036,1,1,1.7861,,0,18,18,38,1,0,mexican,,,,,,,,,,,,,,,,,,,,,,,,,,,,,,,,,,,,,,,,,,,,,,,,,,,,,,,,
,,,,,,,,,CKT2VZHG,spanish,13 or older,click here to respond,no,2025-07-23_06h48.38.514,empathy_intonation_perc,2024.2.4,Win32,58.82352941,605f61f6a2529d666698844b,687ed1b7e638a4cbf2f02089,6880bdd16d78a169880536e2,,,,,,,,,,,,,13,1,,./stim/wavs/mexican_match_interrogative-total-yn_Ana-lleva-el-abrigo.wav,,,,,,,,,,,,,,,,,,,,,,280.5051,283.0725,1,1,2.0357,,0,19,19,12,1,0,mexican,,,,,,,,,,,,,,,,,,,,,,,,,,,,,,,,,,,,,,,,,,,,,,,,,,,,,,,,
,,,,,,,,,CKT2VZHG,spanish,13 or older,click here to respond,no,2025-07-23_06h48.38.514,empathy_intonation_perc,2024.2.4,Win32,58.82352941,605f61f6a2529d666698844b,687ed1b7e638a4cbf2f02089,6880bdd16d78a169880536e2,,,,,,,,,,,,,43,1,,./stim/wavs/puertorican_mismatch_interrogative-total-yn_La-nina-lava-el-plato.wav,,,,,,,,,,,,,,,,,,,,,,283.0736,285.0567,0,0,1.4515,,0,20,20,42,1,1,puertorican,,,,,,,,,,,,,,,,,,,,,,,,,,,,,,,,,,,,,,,,,,,,,,,,,,,,,,,,
,,,,,,,,,CKT2VZHG,spanish,13 or older,click here to respond,no,2025-07-23_06h48.38.514,empathy_intonation_perc,2024.2.4,Win32,58.82352941,605f61f6a2529d666698844b,687ed1b7e638a4cbf2f02089,6880bdd16d78a169880536e2,,,,,,,,,,,,,26,1,,./stim/wavs/castilian_mismatch_interrogative-total-yn_La-nina-lava-el-plato.wav,,,,,,,,,,,,,,,,,,,,,,285.0572,287.3101,1,1,1.7193,,0,21,21,25,1,0,castilian,,,,,,,,,,,,,,,,,,,,,,,,,,,,,,,,,,,,,,,,,,,,,,,,,,,,,,,,
,,,,,,,,,CKT2VZHG,spanish,13 or older,click here to respond,no,2025-07-23_06h48.38.514,empathy_intonation_perc,2024.2.4,Win32,58.82352941,605f61f6a2529d666698844b,687ed1b7e638a4cbf2f02089,6880bdd16d78a169880536e2,,,,,,,,,,,,,72,0,,./stim/wavs/castilian_mismatch_declarative-broad-focus_Mi-novio-viene-del-lago.wav,,,,,,,,,,,,,,,,,,,,,,287.3111,290.0953,0,1,2.2525,,0,22,22,71,1,0,castilian,,,,,,,,,,,,,,,,,,,,,,,,,,,,,,,,,,,,,,,,,,,,,,,,,,,,,,,,
,,,,,,,,,CKT2VZHG,spanish,13 or older,click here to respond,no,2025-07-23_06h48.38.514,empathy_intonation_perc,2024.2.4,Win32,58.82352941,605f61f6a2529d666698844b,687ed1b7e638a4cbf2f02089,6880bdd16d78a169880536e2,,,,,,,,,,,,,80,0,,./stim/wavs/mexican_mismatch_declarative-broad-focus_El-hombre-mira-la-luna.wav,,,,,,,,,,,,,,,,,,,,,,290.0959,292.4484,0,1,1.8191,,0,23,23,79,1,0,mexican,,,,,,,,,,,,,,,,,,,,,,,,,,,,,,,,,,,,,,,,,,,,,,,,,,,,,,,,
,,,,,,,,,CKT2VZHG,spanish,13 or older,click here to respond,no,2025-07-23_06h48.38.514,empathy_intonation_perc,2024.2.4,Win32,58.82352941,605f61f6a2529d666698844b,687ed1b7e638a4cbf2f02089,6880bdd16d78a169880536e2,,,,,,,,,,,,,2,1,,./stim/wavs/castilian_match_interrogative-total-yn_Emilio-ama-la-marcha.wav,,,,,,,,,,,,,,,,,,,,,,292.4492,294.6837,1,1,1.702,,0,24,24,1,1,0,castilian,,,,,,,,,,,,,,,,,,,,,,,,,,,,,,,,,,,,,,,,,,,,,,,,,,,,,,,,
,,,,,,,,,CKT2VZHG,spanish,13 or older,click here to respond,no,2025-07-23_06h48.38.514,empathy_intonation_perc,2024.2.4,Win32,58.82352941,605f61f6a2529d666698844b,687ed1b7e638a4cbf2f02089,6880bdd16d78a169880536e2,,,,,,,,,,,,,85,0,,./stim/wavs/puertorican_mismatch_declarative-broad-focus_El-hombre-mira-la-luna.wav,,,,,,,,,,,,,,,,,,,,,,294.6845,296.8859,0,1,1.6687,,0,25,25,84,1,0,puertorican,,,,,,,,,,,,,,,,,,,,,,,,,,,,,,,,,,,,,,,,,,,,,,,,,,,,,,,,
,,,,,,,,,CKT2VZHG,spanish,13 or older,click here to respond,no,2025-07-23_06h48.38.514,empathy_intonation_perc,2024.2.4,Win32,58.82352941,605f61f6a2529d666698844b,687ed1b7e638a4cbf2f02089,6880bdd16d78a169880536e2,,,,,,,,,,,,,32,1,,./stim/wavs/cuban_mismatch_interrogative-total-yn_Mi-madre-come-la-fruta.wav,,,,,,,,,,,,,,,,,,,,,,296.887,301.0404,0,0,3.6214,,0,26,26,31,1,1,cuban,,,,,,,,,,,,,,,,,,,,,,,,,,,,,,,,,,,,,,,,,,,,,,,,,,,,,,,,
,,,,,,,,,CKT2VZHG,spanish,13 or older,click here to respond,no,2025-07-23_06h48.38.514,empathy_intonation_perc,2024.2.4,Win32,58.82352941,605f61f6a2529d666698844b,687ed1b7e638a4cbf2f02089,6880bdd16d78a169880536e2,,,,,,,,,,,,,23,1,,./stim/wavs/puertorican_match_interrogative-total-yn_Manuela-vende-el-carro.wav,,,,,,,,,,,,,,,,,,,,,,301.0413,304.827,0,0,3.2538,,0,27,27,22,1,1,puertorican,,,,,,,,,,,,,,,,,,,,,,,,,,,,,,,,,,,,,,,,,,,,,,,,,,,,,,,,
,,,,,,,,,CKT2VZHG,spanish,13 or older,click here to respond,no,2025-07-23_06h48.38.514,empathy_intonation_perc,2024.2.4,Win32,58.82352941,605f61f6a2529d666698844b,687ed1b7e638a4cbf2f02089,6880bdd16d78a169880536e2,,,,,,,,,,,,,10,1,,./stim/wavs/cuban_match_interrogative-total-yn_Maria-bebe-el-vino.wav,,,,,,,,,,,,,,,,,,,,,,304.8279,306.8786,0,0,1.518,,0,28,28,9,1,1,cuban,,,,,,,,,,,,,,,,,,,,,,,,,,,,,,,,,,,,,,,,,,,,,,,,,,,,,,,,
,,,,,,,,,CKT2VZHG,spanish,13 or older,click here to respond,no,2025-07-23_06h48.38.514,empathy_intonation_perc,2024.2.4,Win32,58.82352941,605f61f6a2529d666698844b,687ed1b7e638a4cbf2f02089,6880bdd16d78a169880536e2,,,,,,,,,,,,,20,1,,./stim/wavs/puertorican_match_interrogative-total-yn_Daniel-iba-a-Bolivia.wav,,,,,,,,,,,,,,,,,,,,,,306.8792,308.9636,0,0,1.5681,,0,29,29,19,1,1,puertorican,,,,,,,,,,,,,,,,,,,,,,,,,,,,,,,,,,,,,,,,,,,,,,,,,,,,,,,,
,,,,,,,,,CKT2VZHG,spanish,13 or older,click here to respond,no,2025-07-23_06h48.38.514,empathy_intonation_perc,2024.2.4,Win32,58.82352941,605f61f6a2529d666698844b,687ed1b7e638a4cbf2f02089,6880bdd16d78a169880536e2,,,,,,,,,,,,,40,1,,./stim/wavs/puertorican_mismatch_interrogative-total-yn_El-hombre-mira-la-luna.wav,,,,,,,,,,,,,,,,,,,,,,308.9639,311.3324,0,0,1.8516,,0,30,30,39,1,1,puertorican,,,,,,,,,,,,,,,,,,,,,,,,,,,,,,,,,,,,,,,,,,,,,,,,,,,,,,,,
,,,,,,,,,CKT2VZHG,spanish,13 or older,click here to respond,no,2025-07-23_06h48.38.514,empathy_intonation_perc,2024.2.4,Win32,58.82352941,605f61f6a2529d666698844b,687ed1b7e638a4cbf2f02089,6880bdd16d78a169880536e2,,,,,,,,,,,,,82,0,,./stim/wavs/mexican_mismatch_declarative-broad-focus_Mi-novio-viene-del-lago.wav,,,,,,,,,,,,,,,,,,,,,,311.3328,313.3849,0,1,1.5189,,0,31,31,81,1,0,mexican,,,,,,,,,,,,,,,,,,,,,,,,,,,,,,,,,,,,,,,,,,,,,,,,,,,,,,,,
,,,,,,,,,CKT2VZHG,spanish,13 or older,click here to respond,no,2025-07-23_06h48.38.514,empathy_intonation_perc,2024.2.4,Win32,58.82352941,605f61f6a2529d666698844b,687ed1b7e638a4cbf2f02089,6880bdd16d78a169880536e2,,,,,,,,,,,,,59,0,,./stim/wavs/mexican_match_declarative-broad-focus_David-leia-el-libro.wav,,,,,,,,,,,,,,,,,,,,,,313.3852,315.3383,0,1,1.4192,,0,32,32,58,1,0,mexican,,,,,,,,,,,,,,,,,,,,,,,,,,,,,,,,,,,,,,,,,,,,,,,,,,,,,,,,
,,,,,,,,,CKT2VZHG,spanish,13 or older,click here to respond,no,2025-07-23_06h48.38.514,empathy_intonation_perc,2024.2.4,Win32,58.82352941,605f61f6a2529d666698844b,687ed1b7e638a4cbf2f02089,6880bdd16d78a169880536e2,,,,,,,,,,,,,88,0,,./stim/wavs/puertorican_mismatch_declarative-broad-focus_La-nina-lava-el-plato.wav,,,,,,,,,,,,,,,,,,,,,,315.3394,317.4056,0,1,1.5349,,0,33,33,87,1,0,puertorican,,,,,,,,,,,,,,,,,,,,,,,,,,,,,,,,,,,,,,,,,,,,,,,,,,,,,,,,
,,,,,,,,,CKT2VZHG,spanish,13 or older,click here to respond,no,2025-07-23_06h48.38.514,empathy_intonation_perc,2024.2.4,Win32,58.82352941,605f61f6a2529d666698844b,687ed1b7e638a4cbf2f02089,6880bdd16d78a169880536e2,,,,,,,,,,,,,71,0,,./stim/wavs/castilian_mismatch_declarative-broad-focus_La-nina-lava-el-plato.wav,,,,,,,,,,,,,,,,,,,,,,317.4063,319.8253,0,1,1.8859,,0,34,34,70,1,0,castilian,,,,,,,,,,,,,,,,,,,,,,,,,,,,,,,,,,,,,,,,,,,,,,,,,,,,,,,,
,,,,,,,,,CKT2VZHG,spanish,13 or older,click here to respond,no,2025-07-23_06h48.38.514,empathy_intonation_perc,2024.2.4,Win32,58.82352941,605f61f6a2529d666698844b,687ed1b7e638a4cbf2f02089,6880bdd16d78a169880536e2,,,,,,,,,,,,,41,1,,./stim/wavs/puertorican_mismatch_interrogative-total-yn_El-nino-oye-el-rio.wav,,,,,,,,,,,,,,,,,,,,,,319.8259,322.0943,0,0,1.7359,,0,35,35,40,1,1,puertorican,,,,,,,,,,,,,,,,,,,,,,,,,,,,,,,,,,,,,,,,,,,,,,,,,,,,,,,,
,,,,,,,,,CKT2VZHG,spanish,13 or older,click here to respond,no,2025-07-23_06h48.38.514,empathy_intonation_perc,2024.2.4,Win32,58.82352941,605f61f6a2529d666698844b,687ed1b7e638a4cbf2f02089,6880bdd16d78a169880536e2,,,,,,,,,,,,,64,0,,./stim/wavs/puertorican_match_declarative-broad-focus_Daniel-iba-a-Bolivia.wav,,,,,,,,,,,,,,,,,,,,,,322.0953,324.1288,0,1,1.5132,,0,36,36,63,1,0,puertorican,,,,,,,,,,,,,,,,,,,,,,,,,,,,,,,,,,,,,,,,,,,,,,,,,,,,,,,,
,,,,,,,,,CKT2VZHG,spanish,13 or older,click here to respond,no,2025-07-23_06h48.38.514,empathy_intonation_perc,2024.2.4,Win32,58.82352941,605f61f6a2529d666698844b,687ed1b7e638a4cbf2f02089,6880bdd16d78a169880536e2,,,,,,,,,,,,,6,1,,./stim/wavs/castilian_match_interrogative-total-yn_Marta-abre-el-regalo.wav,,,,,,,,,,,,,,,,,,,,,,324.1294,326.8125,1,1,2.1597,,0,37,37,5,1,0,castilian,,,,,,,,,,,,,,,,,,,,,,,,,,,,,,,,,,,,,,,,,,,,,,,,,,,,,,,,
,,,,,,,,,CKT2VZHG,spanish,13 or older,click here to respond,no,2025-07-23_06h48.38.514,empathy_intonation_perc,2024.2.4,Win32,58.82352941,605f61f6a2529d666698844b,687ed1b7e638a4cbf2f02089,6880bdd16d78a169880536e2,,,,,,,,,,,,,75,0,,./stim/wavs/cuban_mismatch_declarative-broad-focus_El-hombre-mira-la-luna.wav,,,,,,,,,,,,,,,,,,,,,,326.8136,328.8286,0,1,1.4945,,0,38,38,74,1,0,cuban,,,,,,,,,,,,,,,,,,,,,,,,,,,,,,,,,,,,,,,,,,,,,,,,,,,,,,,,
,,,,,,,,,CKT2VZHG,spanish,13 or older,click here to respond,no,2025-07-23_06h48.38.514,empathy_intonation_perc,2024.2.4,Win32,58.82352941,605f61f6a2529d666698844b,687ed1b7e638a4cbf2f02089,6880bdd16d78a169880536e2,,,,,,,,,,,,,35,1,,./stim/wavs/mexican_mismatch_interrogative-total-yn_El-hombre-mira-la-luna.wav,,,,,,,,,,,,,,,,,,,,,,328.8296,331.1616,1,1,1.8127,,0,39,39,34,1,0,mexican,,,,,,,,,,,,,,,,,,,,,,,,,,,,,,,,,,,,,,,,,,,,,,,,,,,,,,,,
,,,,,,,,,CKT2VZHG,spanish,13 or older,click here to respond,no,2025-07-23_06h48.38.514,empathy_intonation_perc,2024.2.4,Win32,58.82352941,605f61f6a2529d666698844b,687ed1b7e638a4cbf2f02089,6880bdd16d78a169880536e2,,,,,,,,,,,,,16,1,,./stim/wavs/mexican_match_interrogative-total-yn_Emilio-ama-la-marcha.wav,,,,,,,,,,,,,,,,,,,,,,331.1618,333.2783,0,0,1.6071,,0,40,40,15,1,0,mexican,,,,,,,,,,,,,,,,,,,,,,,,,,,,,,,,,,,,,,,,,,,,,,,,,,,,,,,,
,,,,,,,,,CKT2VZHG,spanish,13 or older,click here to respond,no,2025-07-23_06h48.38.514,empathy_intonation_perc,2024.2.4,Win32,58.82352941,605f61f6a2529d666698844b,687ed1b7e638a4cbf2f02089,6880bdd16d78a169880536e2,,,,,,,,,,,,,57,0,,./stim/wavs/mexican_match_declarative-broad-focus_Ana-lleva-el-abrigo.wav,,,,,,,,,,,,,,,,,,,,,,333.2786,335.2953,0,1,1.5015,,0,41,41,56,1,0,mexican,,,,,,,,,,,,,,,,,,,,,,,,,,,,,,,,,,,,,,,,,,,,,,,,,,,,,,,,
,,,,,,,,,CKT2VZHG,spanish,13 or older,click here to respond,no,2025-07-23_06h48.38.514,empathy_intonation_perc,2024.2.4,Win32,58.82352941,605f61f6a2529d666698844b,687ed1b7e638a4cbf2f02089,6880bdd16d78a169880536e2,,,,,,,,,,,,,51,0,,./stim/wavs/cuban_match_declarative-broad-focus_Ana-lleva-el-abrigo.wav,,,,,,,,,,,,,,,,,,,,,,335.296,337.5619,0,1,1.7379,,0,42,42,50,1,0,cuban,,,,,,,,,,,,,,,,,,,,,,,,,,,,,,,,,,,,,,,,,,,,,,,,,,,,,,,,
,,,,,,,,,CKT2VZHG,spanish,13 or older,click here to respond,no,2025-07-23_06h48.38.514,empathy_intonation_perc,2024.2.4,Win32,58.82352941,605f61f6a2529d666698844b,687ed1b7e638a4cbf2f02089,6880bdd16d78a169880536e2,,,,,,,,,,,,,4,1,,./stim/wavs/castilian_match_interrogative-total-yn_Maria-bebe-el-vino.wav,,,,,,,,,,,,,,,,,,,,,,337.5623,339.829,1,1,1.7357,,0,43,43,3,1,0,castilian,,,,,,,,,,,,,,,,,,,,,,,,,,,,,,,,,,,,,,,,,,,,,,,,,,,,,,,,
,,,,,,,,,CKT2VZHG,spanish,13 or older,click here to respond,no,2025-07-23_06h48.38.514,empathy_intonation_perc,2024.2.4,Win32,58.82352941,605f61f6a2529d666698844b,687ed1b7e638a4cbf2f02089,6880bdd16d78a169880536e2,,,,,,,,,,,,,25,1,,./stim/wavs/castilian_mismatch_interrogative-total-yn_La-maestra-vive-en-Paris.wav,,,,,,,,,,,,,,,,,,,,,,339.8299,342.4641,1,1,2.1017,,0,44,44,24,1,0,castilian,,,,,,,,,,,,,,,,,,,,,,,,,,,,,,,,,,,,,,,,,,,,,,,,,,,,,,,,
,,,,,,,,,CKT2VZHG,spanish,13 or older,click here to respond,no,2025-07-23_06h48.38.514,empathy_intonation_perc,2024.2.4,Win32,58.82352941,605f61f6a2529d666698844b,687ed1b7e638a4cbf2f02089,6880bdd16d78a169880536e2,,,,,,,,,,,,,22,1,,./stim/wavs/puertorican_match_interrogative-total-yn_Emilio-ama-la-marcha.wav,,,,,,,,,,,,,,,,,,,,,,342.4647,344.9158,0,0,1.9189,,0,45,45,21,1,1,puertorican,,,,,,,,,,,,,,,,,,,,,,,,,,,,,,,,,,,,,,,,,,,,,,,,,,,,,,,,
,,,,,,,,,CKT2VZHG,spanish,13 or older,click here to respond,no,2025-07-23_06h48.38.514,empathy_intonation_perc,2024.2.4,Win32,58.82352941,605f61f6a2529d666698844b,687ed1b7e638a4cbf2f02089,6880bdd16d78a169880536e2,,,,,,,,,,,,,14,1,,./stim/wavs/mexican_match_interrogative-total-yn_Daniel-iba-a-Bolivia.wav,,,,,,,,,,,,,,,,,,,,,,344.916,347.4529,1,1,2.0194,,0,46,46,13,1,0,mexican,,,,,,,,,,,,,,,,,,,,,,,,,,,,,,,,,,,,,,,,,,,,,,,,,,,,,,,,
,,,,,,,,,CKT2VZHG,spanish,13 or older,click here to respond,no,2025-07-23_06h48.38.514,empathy_intonation_perc,2024.2.4,Win32,58.82352941,605f61f6a2529d666698844b,687ed1b7e638a4cbf2f02089,6880bdd16d78a169880536e2,,,,,,,,,,,,,50,0,,./stim/wavs/castilian_match_declarative-broad-focus_Marta-abre-el-regalo.wav,,,,,,,,,,,,,,,,,,,,,,347.4536,350.0224,0,1,2.0363,,0,47,47,49,1,0,castilian,,,,,,,,,,,,,,,,,,,,,,,,,,,,,,,,,,,,,,,,,,,,,,,,,,,,,,,,
,,,,,,,,,CKT2VZHG,spanish,13 or older,click here to respond,no,2025-07-23_06h48.38.514,empathy_intonation_perc,2024.2.4,Win32,58.82352941,605f61f6a2529d666698844b,687ed1b7e638a4cbf2f02089,6880bdd16d78a169880536e2,,,,,,,,,,,,,48,0,,./stim/wavs/castilian_match_declarative-broad-focus_Maria-bebe-el-vino.wav,,,,,,,,,,,,,,,,,,,,,,350.0232,352.3741,0,1,1.8187,,0,48,48,47,1,0,castilian,,,,,,,,,,,,,,,,,,,,,,,,,,,,,,,,,,,,,,,,,,,,,,,,,,,,,,,,
,,,,,,,,,CKT2VZHG,spanish,13 or older,click here to respond,no,2025-07-23_06h48.38.514,empathy_intonation_perc,2024.2.4,Win32,58.82352941,605f61f6a2529d666698844b,687ed1b7e638a4cbf2f02089,6880bdd16d78a169880536e2,,,,,,,,,,,,,1,1,,./stim/wavs/castilian_match_interrogative-total-yn_David-leia-el-libro.wav,,,,,,,,,,,,,,,,,,,,,,352.3747,354.8435,1,1,1.9356,,0,49,49,0,1,0,castilian,,,,,,,,,,,,,,,,,,,,,,,,,,,,,,,,,,,,,,,,,,,,,,,,,,,,,,,,
,,,,,,,,,CKT2VZHG,spanish,13 or older,click here to respond,no,2025-07-23_06h48.38.514,empathy_intonation_perc,2024.2.4,Win32,58.82352941,605f61f6a2529d666698844b,687ed1b7e638a4cbf2f02089,6880bdd16d78a169880536e2,,,,,,,,,,,,,62,0,,./stim/wavs/mexican_match_declarative-broad-focus_Marta-abre-el-regalo.wav,,,,,,,,,,,,,,,,,,,,,,354.8442,356.8788,0,1,1.5028,,0,50,50,61,1,0,mexican,,,,,,,,,,,,,,,,,,,,,,,,,,,,,,,,,,,,,,,,,,,,,,,,,,,,,,,,
,,,,,,,,,CKT2VZHG,spanish,13 or older,click here to respond,no,2025-07-23_06h48.38.514,empathy_intonation_perc,2024.2.4,Win32,58.82352941,605f61f6a2529d666698844b,687ed1b7e638a4cbf2f02089,6880bdd16d78a169880536e2,,,,,,,,,,,,,8,1,,./stim/wavs/cuban_match_interrogative-total-yn_Daniel-iba-a-Bolivia.wav,,,,,,,,,,,,,,,,,,,,,,356.8795,359.1307,0,0,1.7344,,0,51,51,7,1,1,cuban,,,,,,,,,,,,,,,,,,,,,,,,,,,,,,,,,,,,,,,,,,,,,,,,,,,,,,,,
,,,,,,,,,CKT2VZHG,spanish,13 or older,click here to respond,no,2025-07-23_06h48.38.514,empathy_intonation_perc,2024.2.4,Win32,58.82352941,605f61f6a2529d666698844b,687ed1b7e638a4cbf2f02089,6880bdd16d78a169880536e2,,,,,,,,,,,,,38,1,,./stim/wavs/mexican_mismatch_interrogative-total-yn_Mi-novio-viene-del-lago.wav,,,,,,,,,,,,,,,,,,,,,,359.1313,361.6501,1,1,1.9862,,0,52,52,37,1,0,mexican,,,,,,,,,,,,,,,,,,,,,,,,,,,,,,,,,,,,,,,,,,,,,,,,,,,,,,,,
,,,,,,,,,CKT2VZHG,spanish,13 or older,click here to respond,no,2025-07-23_06h48.38.514,empathy_intonation_perc,2024.2.4,Win32,58.82352941,605f61f6a2529d666698844b,687ed1b7e638a4cbf2f02089,6880bdd16d78a169880536e2,,,,,,,,,,,,,30,1,,./stim/wavs/cuban_mismatch_interrogative-total-yn_El-hombre-mira-la-luna.wav,,,,,,,,,,,,,,,,,,,,,,361.6508,364.1537,0,0,1.9696,,0,53,53,29,1,1,cuban,,,,,,,,,,,,,,,,,,,,,,,,,,,,,,,,,,,,,,,,,,,,,,,,,,,,,,,,
,,,,,,,,,CKT2VZHG,spanish,13 or older,click here to respond,no,2025-07-23_06h48.38.514,empathy_intonation_perc,2024.2.4,Win32,58.82352941,605f61f6a2529d666698844b,687ed1b7e638a4cbf2f02089,6880bdd16d78a169880536e2,,,,,,,,,,,,,87,0,,./stim/wavs/puertorican_mismatch_declarative-broad-focus_La-maestra-vive-en-Paris.wav,,,,,,,,,,,,,,,,,,,,,,364.1547,366.5044,0,1,1.8183,,0,54,54,86,1,0,puertorican,,,,,,,,,,,,,,,,,,,,,,,,,,,,,,,,,,,,,,,,,,,,,,,,,,,,,,,,
,,,,,,,,,CKT2VZHG,spanish,13 or older,click here to respond,no,2025-07-23_06h48.38.514,empathy_intonation_perc,2024.2.4,Win32,58.82352941,605f61f6a2529d666698844b,687ed1b7e638a4cbf2f02089,6880bdd16d78a169880536e2,,,,,,,,,,,,,34,1,,./stim/wavs/cuban_mismatch_interrogative-total-yn_Mi-tia-odia-la-lluvia.wav,,,,,,,,,,,,,,,,,,,,,,366.5049,368.5575,0,0,1.5192,,0,55,55,33,1,1,cuban,,,,,,,,,,,,,,,,,,,,,,,,,,,,,,,,,,,,,,,,,,,,,,,,,,,,,,,,
,,,,,,,,,CKT2VZHG,spanish,13 or older,click here to respond,no,2025-07-23_06h48.38.514,empathy_intonation_perc,2024.2.4,Win32,58.82352941,605f61f6a2529d666698844b,687ed1b7e638a4cbf2f02089,6880bdd16d78a169880536e2,,,,,,,,,,,,,56,0,,./stim/wavs/cuban_match_declarative-broad-focus_Marta-abre-el-regalo.wav,,,,,,,,,,,,,,,,,,,,,,368.5583,370.7418,0,1,1.6524,,0,56,56,55,1,0,cuban,,,,,,,,,,,,,,,,,,,,,,,,,,,,,,,,,,,,,,,,,,,,,,,,,,,,,,,,
,,,,,,,,,CKT2VZHG,spanish,13 or older,click here to respond,no,2025-07-23_06h48.38.514,empathy_intonation_perc,2024.2.4,Win32,58.82352941,605f61f6a2529d666698844b,687ed1b7e638a4cbf2f02089,6880bdd16d78a169880536e2,,,,,,,,,,,,,24,1,,./stim/wavs/puertorican_match_interrogative-total-yn_Maria-bebe-el-vino.wav,,,,,,,,,,,,,,,,,,,,,,370.742,375.4481,0,0,4.1719,,0,57,57,23,1,1,puertorican,,,,,,,,,,,,,,,,,,,,,,,,,,,,,,,,,,,,,,,,,,,,,,,,,,,,,,,,
,,,,,,,,,CKT2VZHG,spanish,13 or older,click here to respond,no,2025-07-23_06h48.38.514,empathy_intonation_perc,2024.2.4,Win32,58.82352941,605f61f6a2529d666698844b,687ed1b7e638a4cbf2f02089,6880bdd16d78a169880536e2,,,,,,,,,,,,,65,0,,./stim/wavs/puertorican_match_declarative-broad-focus_David-leia-el-libro.wav,,,,,,,,,,,,,,,,,,,,,,375.4489,378.1672,0,1,2.186,,0,58,58,64,1,0,puertorican,,,,,,,,,,,,,,,,,,,,,,,,,,,,,,,,,,,,,,,,,,,,,,,,,,,,,,,,
,,,,,,,,,CKT2VZHG,spanish,13 or older,click here to respond,no,2025-07-23_06h48.38.514,empathy_intonation_perc,2024.2.4,Win32,58.82352941,605f61f6a2529d666698844b,687ed1b7e638a4cbf2f02089,6880bdd16d78a169880536e2,,,,,,,,,,,,,77,0,,./stim/wavs/cuban_mismatch_declarative-broad-focus_Mi-novio-viene-del-lago.wav,,,,,,,,,,,,,,,,,,,,,,378.1679,380.3853,0,1,1.6848,,0,59,59,76,1,0,cuban,,,,,,,,,,,,,,,,,,,,,,,,,,,,,,,,,,,,,,,,,,,,,,,,,,,,,,,,
,,,,,,,,,CKT2VZHG,spanish,13 or older,click here to respond,no,2025-07-23_06h48.38.514,empathy_intonation_perc,2024.2.4,Win32,58.82352941,605f61f6a2529d666698844b,687ed1b7e638a4cbf2f02089,6880bdd16d78a169880536e2,,,,,,,,,,,,,9,1,,./stim/wavs/cuban_match_interrogative-total-yn_Manuela-vende-el-carro.wav,,,,,,,,,,,,,,,,,,,,,,380.386,383.5222,0,0,2.6025,,0,60,60,8,1,1,cuban,,,,,,,,,,,,,,,,,,,,,,,,,,,,,,,,,,,,,,,,,,,,,,,,,,,,,,,,
,,,,,,,,,CKT2VZHG,spanish,13 or older,click here to respond,no,2025-07-23_06h48.38.514,empathy_intonation_perc,2024.2.4,Win32,58.82352941,605f61f6a2529d666698844b,687ed1b7e638a4cbf2f02089,6880bdd16d78a169880536e2,,,,,,,,,,,,,84,0,,./stim/wavs/puertorican_mismatch_declarative-broad-focus_El-bebe-comia-muy-bien.wav,,,,,,,,,,,,,,,,,,,,,,383.5229,386.1921,0,1,2.136,,0,61,61,83,1,0,puertorican,,,,,,,,,,,,,,,,,,,,,,,,,,,,,,,,,,,,,,,,,,,,,,,,,,,,,,,,
,,,,,,,,,CKT2VZHG,spanish,13 or older,click here to respond,no,2025-07-23_06h48.38.514,empathy_intonation_perc,2024.2.4,Win32,58.82352941,605f61f6a2529d666698844b,687ed1b7e638a4cbf2f02089,6880bdd16d78a169880536e2,,,,,,,,,,,,,55,0,,./stim/wavs/cuban_match_declarative-broad-focus_Mariano-habla-del-tiempo.wav,,,,,,,,,,,,,,,,,,,,,,386.1931,390.0118,0,1,3.2861,,0,62,62,54,1,0,cuban,,,,,,,,,,,,,,,,,,,,,,,,,,,,,,,,,,,,,,,,,,,,,,,,,,,,,,,,
,,,,,,,,,CKT2VZHG,spanish,13 or older,click here to respond,no,2025-07-23_06h48.38.514,empathy_intonation_perc,2024.2.4,Win32,58.82352941,605f61f6a2529d666698844b,687ed1b7e638a4cbf2f02089,6880bdd16d78a169880536e2,,,,,,,,,,,,,12,1,,./stim/wavs/cuban_match_interrogative-total-yn_Marta-abre-el-regalo.wav,,,,,,,,,,,,,,,,,,,,,,390.0122,393.2483,0,0,2.7193,,0,63,63,11,1,1,cuban,,,,,,,,,,,,,,,,,,,,,,,,,,,,,,,,,,,,,,,,,,,,,,,,,,,,,,,,
,,,,,,,,,CKT2VZHG,spanish,13 or older,click here to respond,no,2025-07-23_06h48.38.514,empathy_intonation_perc,2024.2.4,Win32,58.82352941,605f61f6a2529d666698844b,687ed1b7e638a4cbf2f02089,6880bdd16d78a169880536e2,,,,,,,,,,,,,31,1,,./stim/wavs/cuban_mismatch_interrogative-total-yn_El-nino-oye-el-rio.wav,,,,,,,,,,,,,,,,,,,,,,393.249,395.7514,0,0,1.9687,,0,64,64,30,1,1,cuban,,,,,,,,,,,,,,,,,,,,,,,,,,,,,,,,,,,,,,,,,,,,,,,,,,,,,,,,
,,,,,,,,,CKT2VZHG,spanish,13 or older,click here to respond,no,2025-07-23_06h48.38.514,empathy_intonation_perc,2024.2.4,Win32,58.82352941,605f61f6a2529d666698844b,687ed1b7e638a4cbf2f02089,6880bdd16d78a169880536e2,,,,,,,,,,,,,76,0,,./stim/wavs/cuban_mismatch_declarative-broad-focus_La-nina-lava-el-plato.wav,,,,,,,,,,,,,,,,,,,,,,395.7524,397.8869,0,1,1.6027,,0,65,65,75,1,0,cuban,,,,,,,,,,,,,,,,,,,,,,,,,,,,,,,,,,,,,,,,,,,,,,,,,,,,,,,,
,,,,,,,,,CKT2VZHG,spanish,13 or older,click here to respond,no,2025-07-23_06h48.38.514,empathy_intonation_perc,2024.2.4,Win32,58.82352941,605f61f6a2529d666698844b,687ed1b7e638a4cbf2f02089,6880bdd16d78a169880536e2,,,,,,,,,,,,,61,0,,./stim/wavs/mexican_match_declarative-broad-focus_Mariano-habla-del-tiempo.wav,,,,,,,,,,,,,,,,,,,,,,397.8878,400.0217,0,1,1.6018,,0,66,66,60,1,0,mexican,,,,,,,,,,,,,,,,,,,,,,,,,,,,,,,,,,,,,,,,,,,,,,,,,,,,,,,,
,,,,,,,,,CKT2VZHG,spanish,13 or older,click here to respond,no,2025-07-23_06h48.38.514,empathy_intonation_perc,2024.2.4,Win32,58.82352941,605f61f6a2529d666698844b,687ed1b7e638a4cbf2f02089,6880bdd16d78a169880536e2,,,,,,,,,,,,,33,1,,./stim/wavs/cuban_mismatch_interrogative-total-yn_Mi-novio-viene-del-lago.wav,,,,,,,,,,,,,,,,,,,,,,400.0223,402.441,0,0,1.8859,,0,67,67,32,1,1,cuban,,,,,,,,,,,,,,,,,,,,,,,,,,,,,,,,,,,,,,,,,,,,,,,,,,,,,,,,
,,,,,,,,,CKT2VZHG,spanish,13 or older,click here to respond,no,2025-07-23_06h48.38.514,empathy_intonation_perc,2024.2.4,Win32,58.82352941,605f61f6a2529d666698844b,687ed1b7e638a4cbf2f02089,6880bdd16d78a169880536e2,,,,,,,,,,,,,15,1,,./stim/wavs/mexican_match_interrogative-total-yn_David-leia-el-libro.wav,,,,,,,,,,,,,,,,,,,,,,402.4417,405.0606,1,1,2.0864,,0,68,68,14,1,0,mexican,,,,,,,,,,,,,,,,,,,,,,,,,,,,,,,,,,,,,,,,,,,,,,,,,,,,,,,,
,,,,,,,,,CKT2VZHG,spanish,13 or older,click here to respond,no,2025-07-23_06h48.38.514,empathy_intonation_perc,2024.2.4,Win32,58.82352941,605f61f6a2529d666698844b,687ed1b7e638a4cbf2f02089,6880bdd16d78a169880536e2,,,,,,,,,,,,,17,1,,./stim/wavs/mexican_match_interrogative-total-yn_Mariano-habla-del-tiempo.wav,,,,,,,,,,,,,,,,,,,,,,405.0619,407.479,1,1,1.8907,,0,69,69,16,1,0,mexican,,,,,,,,,,,,,,,,,,,,,,,,,,,,,,,,,,,,,,,,,,,,,,,,,,,,,,,,
,,,,,,,,,CKT2VZHG,spanish,13 or older,click here to respond,no,2025-07-23_06h48.38.514,empathy_intonation_perc,2024.2.4,Win32,58.82352941,605f61f6a2529d666698844b,687ed1b7e638a4cbf2f02089,6880bdd16d78a169880536e2,,,,,,,,,,,,,74,0,,./stim/wavs/cuban_mismatch_declarative-broad-focus_El-bebe-comia-muy-bien.wav,,,,,,,,,,,,,,,,,,,,,,407.4796,409.5122,0,1,1.5094,,0,70,70,73,1,0,cuban,,,,,,,,,,,,,,,,,,,,,,,,,,,,,,,,,,,,,,,,,,,,,,,,,,,,,,,,
,,,,,,,,,CKT2VZHG,spanish,13 or older,click here to respond,no,2025-07-23_06h48.38.514,empathy_intonation_perc,2024.2.4,Win32,58.82352941,605f61f6a2529d666698844b,687ed1b7e638a4cbf2f02089,6880bdd16d78a169880536e2,,,,,,,,,,,,,86,0,,./stim/wavs/puertorican_mismatch_declarative-broad-focus_El-nino-oye-el-rio.wav,,,,,,,,,,,,,,,,,,,,,,409.5129,412.3785,0,1,2.3446,,0,71,71,85,1,0,puertorican,,,,,,,,,,,,,,,,,,,,,,,,,,,,,,,,,,,,,,,,,,,,,,,,,,,,,,,,
,,,,,,,,,CKT2VZHG,spanish,13 or older,click here to respond,no,2025-07-23_06h48.38.514,empathy_intonation_perc,2024.2.4,Win32,58.82352941,605f61f6a2529d666698844b,687ed1b7e638a4cbf2f02089,6880bdd16d78a169880536e2,,,,,,,,,,,,,63,0,,./stim/wavs/puertorican_match_declarative-broad-focus_Ana-lleva-el-abrigo.wav,,,,,,,,,,,,,,,,,,,,,,412.3796,414.9622,0,1,2.0565,,0,72,72,62,1,0,puertorican,,,,,,,,,,,,,,,,,,,,,,,,,,,,,,,,,,,,,,,,,,,,,,,,,,,,,,,,
,,,,,,,,,CKT2VZHG,spanish,13 or older,click here to respond,no,2025-07-23_06h48.38.514,empathy_intonation_perc,2024.2.4,Win32,58.82352941,605f61f6a2529d666698844b,687ed1b7e638a4cbf2f02089,6880bdd16d78a169880536e2,,,,,,,,,,,,,58,0,,./stim/wavs/mexican_match_declarative-broad-focus_Daniel-iba-a-Bolivia.wav,,,,,,,,,,,,,,,,,,,,,,414.963,417.5458,0,1,2.0561,,0,73,73,57,1,0,mexican,,,,,,,,,,,,,,,,,,,,,,,,,,,,,,,,,,,,,,,,,,,,,,,,,,,,,,,,
,,,,,,,,,CKT2VZHG,spanish,13 or older,click here to respond,no,2025-07-23_06h48.38.514,empathy_intonation_perc,2024.2.4,Win32,58.82352941,605f61f6a2529d666698844b,687ed1b7e638a4cbf2f02089,6880bdd16d78a169880536e2,,,,,,,,,,,,,19,1,,./stim/wavs/puertorican_match_interrogative-total-yn_Ana-lleva-el-abrigo.wav,,,,,,,,,,,,,,,,,,,,,,417.5467,419.7453,0,0,1.6679,,0,74,74,18,1,1,puertorican,,,,,,,,,,,,,,,,,,,,,,,,,,,,,,,,,,,,,,,,,,,,,,,,,,,,,,,,
,,,,,,,,,CKT2VZHG,spanish,13 or older,click here to respond,no,2025-07-23_06h48.38.514,empathy_intonation_perc,2024.2.4,Win32,58.82352941,605f61f6a2529d666698844b,687ed1b7e638a4cbf2f02089,6880bdd16d78a169880536e2,,,,,,,,,,,,,42,1,,./stim/wavs/puertorican_mismatch_interrogative-total-yn_La-maestra-vive-en-Paris.wav,,,,,,,,,,,,,,,,,,,,,,419.7458,422.2122,0,0,1.935,,0,75,75,41,1,1,puertorican,,,,,,,,,,,,,,,,,,,,,,,,,,,,,,,,,,,,,,,,,,,,,,,,,,,,,,,,
,,,,,,,,,CKT2VZHG,spanish,13 or older,click here to respond,no,2025-07-23_06h48.38.514,empathy_intonation_perc,2024.2.4,Win32,58.82352941,605f61f6a2529d666698844b,687ed1b7e638a4cbf2f02089,6880bdd16d78a169880536e2,,,,,,,,,,,,,83,0,,./stim/wavs/mexican_mismatch_declarative-broad-focus_Mi-tia-odia-la-lluvia.wav,,,,,,,,,,,,,,,,,,,,,,422.213,424.2807,0,1,1.5369,,0,76,76,82,1,0,mexican,,,,,,,,,,,,,,,,,,,,,,,,,,,,,,,,,,,,,,,,,,,,,,,,,,,,,,,,
,,,,,,,,,CKT2VZHG,spanish,13 or older,click here to respond,no,2025-07-23_06h48.38.514,empathy_intonation_perc,2024.2.4,Win32,58.82352941,605f61f6a2529d666698844b,687ed1b7e638a4cbf2f02089,6880bdd16d78a169880536e2,,,,,,,,,,,,,18,1,,./stim/wavs/mexican_match_interrogative-total-yn_Marta-abre-el-regalo.wav,,,,,,,,,,,,,,,,,,,,,,424.2818,426.9476,1,1,2.1352,,0,77,77,17,1,0,mexican,,,,,,,,,,,,,,,,,,,,,,,,,,,,,,,,,,,,,,,,,,,,,,,,,,,,,,,,
,,,,,,,,,CKT2VZHG,spanish,13 or older,click here to respond,no,2025-07-23_06h48.38.514,empathy_intonation_perc,2024.2.4,Win32,58.82352941,605f61f6a2529d666698844b,687ed1b7e638a4cbf2f02089,6880bdd16d78a169880536e2,,,,,,,,,,,,,70,0,,./stim/wavs/castilian_mismatch_declarative-broad-focus_La-maestra-vive-en-Paris.wav,,,,,,,,,,,,,,,,,,,,,,426.9478,429.3839,0,1,1.9184,,0,78,78,69,1,0,castilian,,,,,,,,,,,,,,,,,,,,,,,,,,,,,,,,,,,,,,,,,,,,,,,,,,,,,,,,
,,,,,,,,,CKT2VZHG,spanish,13 or older,click here to respond,no,2025-07-23_06h48.38.514,empathy_intonation_perc,2024.2.4,Win32,58.82352941,605f61f6a2529d666698844b,687ed1b7e638a4cbf2f02089,6880bdd16d78a169880536e2,,,,,,,,,,,,,37,1,,./stim/wavs/mexican_mismatch_interrogative-total-yn_La-maestra-vive-en-Paris.wav,,,,,,,,,,,,,,,,,,,,,,429.3843,431.5878,0,0,1.6866,,0,79,79,36,1,0,mexican,,,,,,,,,,,,,,,,,,,,,,,,,,,,,,,,,,,,,,,,,,,,,,,,,,,,,,,,
,,,,,,,,,CKT2VZHG,spanish,13 or older,click here to respond,no,2025-07-23_06h48.38.514,empathy_intonation_perc,2024.2.4,Win32,58.82352941,605f61f6a2529d666698844b,687ed1b7e638a4cbf2f02089,6880bdd16d78a169880536e2,,,,,,,,,,,,,60,0,,./stim/wavs/mexican_match_declarative-broad-focus_Emilio-ama-la-marcha.wav,,,,,,,,,,,,,,,,,,,,,,431.5886,434.4573,0,1,2.337,,0,80,80,59,1,0,mexican,,,,,,,,,,,,,,,,,,,,,,,,,,,,,,,,,,,,,,,,,,,,,,,,,,,,,,,,
,,,,,,,,,CKT2VZHG,spanish,13 or older,click here to respond,no,2025-07-23_06h48.38.514,empathy_intonation_perc,2024.2.4,Win32,58.82352941,605f61f6a2529d666698844b,687ed1b7e638a4cbf2f02089,6880bdd16d78a169880536e2,,,,,,,,,,,,,53,0,,./stim/wavs/cuban_match_declarative-broad-focus_Manuela-vende-el-carro.wav,,,,,,,,,,,,,,,,,,,,,,434.4583,436.6763,0,1,1.686,,0,81,81,52,1,0,cuban,,,,,,,,,,,,,,,,,,,,,,,,,,,,,,,,,,,,,,,,,,,,,,,,,,,,,,,,
,,,,,,,,,CKT2VZHG,spanish,13 or older,click here to respond,no,2025-07-23_06h48.38.514,empathy_intonation_perc,2024.2.4,Win32,58.82352941,605f61f6a2529d666698844b,687ed1b7e638a4cbf2f02089,6880bdd16d78a169880536e2,,,,,,,,,,,,,11,1,,./stim/wavs/cuban_match_interrogative-total-yn_Mariano-habla-del-tiempo.wav,,,,,,,,,,,,,,,,,,,,,,436.6773,440.3626,0,0,3.1539,,0,82,82,10,1,1,cuban,,,,,,,,,,,,,,,,,,,,,,,,,,,,,,,,,,,,,,,,,,,,,,,,,,,,,,,,
,,,,,,,,,CKT2VZHG,spanish,13 or older,click here to respond,no,2025-07-23_06h48.38.514,empathy_intonation_perc,2024.2.4,Win32,58.82352941,605f61f6a2529d666698844b,687ed1b7e638a4cbf2f02089,6880bdd16d78a169880536e2,,,,,,,,,,,,,28,1,,./stim/wavs/castilian_mismatch_interrogative-total-yn_Mi-novio-viene-del-lago.wav,,,,,,,,,,,,,,,,,,,,,,440.3634,442.6797,1,1,1.7845,,0,83,83,27,1,0,castilian,,,,,,,,,,,,,,,,,,,,,,,,,,,,,,,,,,,,,,,,,,,,,,,,,,,,,,,,
,,,,,,,,,CKT2VZHG,spanish,13 or older,click here to respond,no,2025-07-23_06h48.38.514,empathy_intonation_perc,2024.2.4,Win32,58.82352941,605f61f6a2529d666698844b,687ed1b7e638a4cbf2f02089,6880bdd16d78a169880536e2,,,,,,,,,,,,,49,0,,./stim/wavs/castilian_match_declarative-broad-focus_Mariano-habla-del-tiempo.wav,,,,,,,,,,,,,,,,,,,,,,442.68,446.1684,0,1,2.9703,,0,84,84,48,1,0,castilian,,,,,,,,,,,,,,,,,,,,,,,,,,,,,,,,,,,,,,,,,,,,,,,,,,,,,,,,
,,,,,,,,,CKT2VZHG,spanish,13 or older,click here to respond,no,2025-07-23_06h48.38.514,empathy_intonation_perc,2024.2.4,Win32,58.82352941,605f61f6a2529d666698844b,687ed1b7e638a4cbf2f02089,6880bdd16d78a169880536e2,,,,,,,,,,,,,36,1,,./stim/wavs/mexican_mismatch_interrogative-total-yn_El-nino-oye-el-rio.wav,,,,,,,,,,,,,,,,,,,,,,446.1692,448.2537,0,0,1.5521,,0,85,85,35,1,0,mexican,,,,,,,,,,,,,,,,,,,,,,,,,,,,,,,,,,,,,,,,,,,,,,,,,,,,,,,,
,,,,,,,,,CKT2VZHG,spanish,13 or older,click here to respond,no,2025-07-23_06h48.38.514,empathy_intonation_perc,2024.2.4,Win32,58.82352941,605f61f6a2529d666698844b,687ed1b7e638a4cbf2f02089,6880bdd16d78a169880536e2,,,,,,,,,,,,,69,0,,./stim/wavs/castilian_mismatch_declarative-broad-focus_El-nino-oye-el-rio.wav,,,,,,,,,,,,,,,,,,,,,,448.2545,450.4724,1,0,1.6854,,0,86,86,68,1,0,castilian,,,,,,,,,,,,,,,,,,,,,,,,,,,,,,,,,,,,,,,,,,,,,,,,,,,,,,,,
,,,,,,,,,CKT2VZHG,spanish,13 or older,click here to respond,no,2025-07-23_06h48.38.514,empathy_intonation_perc,2024.2.4,Win32,58.82352941,605f61f6a2529d666698844b,687ed1b7e638a4cbf2f02089,6880bdd16d78a169880536e2,,,,,,,,,,,,,3,1,,./stim/wavs/castilian_match_interrogative-total-yn_Manuela-vende-el-carro.wav,,,,,,,,,,,,,,,,,,,,,,450.4732,452.6422,1,1,1.6362,,0,87,87,2,1,0,castilian,,,,,,,,,,,,,,,,,,,,,,,,,,,,,,,,,,,,,,,,,,,,,,,,,,,,,,,,
,,,,,,,"Great! Now we will move on. The next task consists of about 60 trials, in each of which you will see a string of letters. 
  
  Your task is to decide whether this is a real Spanish word or not.", (press the spacebar to continue),CKT2VZHG,spanish,13 or older,click here to respond,no,2025-07-23_06h48.38.514,empathy_intonation_perc,2024.2.4,Win32,58.82352941,605f61f6a2529d666698844b,687ed1b7e638a4cbf2f02089,6880bdd16d78a169880536e2,,,,,,,,,,,,,,,,,,,,,,,,,,,,,,,,,,,,,,,,,,,,,,,,,,,452.6554,461.6953,0,0,0,0,1,,,,,,,,,,,,,,,,,,,,,,,,,,,,,,,,,,,,,,,,,,,,,,,,,
,,,,,,,"If you think it is an existing Spanish word, you type '1' (for 'REAL'), and if you think it is not an existing Spanish word, you type '0' (for 'FAKE').", (press the spacebar to continue),CKT2VZHG,spanish,13 or older,click here to respond,no,2025-07-23_06h48.38.514,empathy_intonation_perc,2024.2.4,Win32,58.82352941,605f61f6a2529d666698844b,687ed1b7e638a4cbf2f02089,6880bdd16d78a169880536e2,,,,,,,,,,,,,,,,,,,,,,,,,,,,,,,,,,,,,,,,,,,,,,,,,,,461.6967,465.529,0,1,1,1,1,,,,,,,,,,,,,,,,,,,,,,,,,,,,,,,,,,,,,,,,,,,,,,,,,
,,,,,,,"If you are sure that the word exists, even though you don’t know its exact meaning, you may still respond '1' (REAL). 
  
  But if you are not sure if it is an existing word, you should respond '0' (FAKE).
  
  Let's do a practice round...", (press the spacebar to continue),CKT2VZHG,spanish,13 or older,click here to respond,no,2025-07-23_06h48.38.514,empathy_intonation_perc,2024.2.4,Win32,58.82352941,605f61f6a2529d666698844b,687ed1b7e638a4cbf2f02089,6880bdd16d78a169880536e2,,,,,,,,,,,,,,,,,,,,,,,,,,,,,,,,,,,,,,,,,,,,,,,,,,,465.5329,474.131,0,2,2,2,1,,,,,,,,,,,,,,,,,,,,,,,,,,,,,,,,,,,,,,,,,,,,,,,,,
,,,,,,,,,CKT2VZHG,spanish,13 or older,click here to respond,no,2025-07-23_06h48.38.514,empathy_intonation_perc,2024.2.4,Win32,58.82352941,605f61f6a2529d666698844b,687ed1b7e638a4cbf2f02089,6880bdd16d78a169880536e2,,,,,,,,,,,,,,0,,,,,,,,,,,,,,,,,,,,,,,,,,,,,,,,,,,,,,,,,,,,474.1439,478.6181,1,0,3.9545,,478.6186,479.612,0,0,0,0,1,0,depiste,REAL,FAKE,,,,,,,,,,,,,,,,,,,,,,,,,,,,,,,,
,,,,,,,,,CKT2VZHG,spanish,13 or older,click here to respond,no,2025-07-23_06h48.38.514,empathy_intonation_perc,2024.2.4,Win32,58.82352941,605f61f6a2529d666698844b,687ed1b7e638a4cbf2f02089,6880bdd16d78a169880536e2,,,,,,,,,,,,,,1,,,,,,,,,,,,,,,,,,,,,,,,,,,,,,,,,,,,,,,,,,,,479.6132,481.979,1,1,1.8232,,481.9801,482.9786,0,1,1,1,1,0,sí,REAL,FAKE,,,,,,,,,,,,,,,,,,,,,,,,,,,,,,,,
,,,,,,,,,CKT2VZHG,spanish,13 or older,click here to respond,no,2025-07-23_06h48.38.514,empathy_intonation_perc,2024.2.4,Win32,58.82352941,605f61f6a2529d666698844b,687ed1b7e638a4cbf2f02089,6880bdd16d78a169880536e2,,,,,,,,,,,,,,0,,,,,,,,,,,,,,,,,,,,,,,,,,,,,,,,,,,,,,,,,,,,482.9803,485.1125,1,0,1.6022,,485.1139,486.1128,0,2,2,2,1,0,coné,REAL,FAKE,,,,,,,,,,,,,,,,,,,,,,,,,,,,,,,,
,,,,,,,,,CKT2VZHG,spanish,13 or older,click here to respond,no,2025-07-23_06h48.38.514,empathy_intonation_perc,2024.2.4,Win32,58.82352941,605f61f6a2529d666698844b,687ed1b7e638a4cbf2f02089,6880bdd16d78a169880536e2,,,,,,,,,,,,,,0,,,,,,,,,,,,,,,,,,,,,,,,,,,,,,,,,,,,,,,,,,,,486.1144,488.0627,0,1,1.4026,,488.0638,489.062,0,3,3,3,1,0,calpar,REAL,FAKE,,,,,,,,,,,,,,,,,,,,,,,,,,,,,,,,
,,,,,,,,,CKT2VZHG,spanish,13 or older,click here to respond,no,2025-07-23_06h48.38.514,empathy_intonation_perc,2024.2.4,Win32,58.82352941,605f61f6a2529d666698844b,687ed1b7e638a4cbf2f02089,6880bdd16d78a169880536e2,,,,,,,,,,,,,,0,,,,,,,,,,,,,,,,,,,,,,,,,,,,,,,,,,,,,,,,,,,,489.063,490.6783,0,1,1.0673,,490.6784,491.6794,0,4,4,4,1,0,joten,REAL,FAKE,,,,,,,,,,,,,,,,,,,,,,,,,,,,,,,,
,,,,,,,,,CKT2VZHG,spanish,13 or older,click here to respond,no,2025-07-23_06h48.38.514,empathy_intonation_perc,2024.2.4,Win32,58.82352941,605f61f6a2529d666698844b,687ed1b7e638a4cbf2f02089,6880bdd16d78a169880536e2,,,,,,,,,,,,,,1,,,,,,,,,,,,,,,,,,,,,,,,,,,,,,,,,,,,,,,,,,,,491.6808,493.1156,0,0,0.9027,,493.1166,494.1155,0,5,5,5,1,0,sacapuntas,REAL,FAKE,,,,,,,,,,,,,,,,,,,,,,,,,,,,,,,,
,,,,,,,,,CKT2VZHG,spanish,13 or older,click here to respond,no,2025-07-23_06h48.38.514,empathy_intonation_perc,2024.2.4,Win32,58.82352941,605f61f6a2529d666698844b,687ed1b7e638a4cbf2f02089,6880bdd16d78a169880536e2,,,,,,,,,,,,,,0,,,,,,,,,,,,,,,,,,,,,,,,,,,,,,,,,,,,,,,,,,,,494.1171,496.1179,1,0,1.4852,,496.1181,497.1181,0,6,6,6,1,0,priba,REAL,FAKE,,,,,,,,,,,,,,,,,,,,,,,,,,,,,,,,
,,,,,,,,,CKT2VZHG,spanish,13 or older,click here to respond,no,2025-07-23_06h48.38.514,empathy_intonation_perc,2024.2.4,Win32,58.82352941,605f61f6a2529d666698844b,687ed1b7e638a4cbf2f02089,6880bdd16d78a169880536e2,,,,,,,,,,,,,,0,,,,,,,,,,,,,,,,,,,,,,,,,,,,,,,,,,,,,,,,,,,,497.1195,498.8545,1,0,1.2185,,498.8545,499.855,0,7,7,7,1,0,pelasula,REAL,FAKE,,,,,,,,,,,,,,,,,,,,,,,,,,,,,,,,
,,,,,,,,,CKT2VZHG,spanish,13 or older,click here to respond,no,2025-07-23_06h48.38.514,empathy_intonation_perc,2024.2.4,Win32,58.82352941,605f61f6a2529d666698844b,687ed1b7e638a4cbf2f02089,6880bdd16d78a169880536e2,,,,,,,,,,,,,,1,,,,,,,,,,,,,,,,,,,,,,,,,,,,,,,,,,,,,,,,,,,,499.857,501.1724,1,1,0.7843,,501.1731,502.1733,0,8,8,8,1,0,bien,REAL,FAKE,,,,,,,,,,,,,,,,,,,,,,,,,,,,,,,,
,,,,,,,,,CKT2VZHG,spanish,13 or older,click here to respond,no,2025-07-23_06h48.38.514,empathy_intonation_perc,2024.2.4,Win32,58.82352941,605f61f6a2529d666698844b,687ed1b7e638a4cbf2f02089,6880bdd16d78a169880536e2,,,,,,,,,,,,,,1,,,,,,,,,,,,,,,,,,,,,,,,,,,,,,,,,,,,,,,,,,,,502.1752,503.4754,1,1,0.7844,,503.4755,504.4759,0,9,9,9,1,0,casa,REAL,FAKE,,,,,,,,,,,,,,,,,,,,,,,,,,,,,,,,
,,,,,,,,,CKT2VZHG,spanish,13 or older,click here to respond,no,2025-07-23_06h48.38.514,empathy_intonation_perc,2024.2.4,Win32,58.82352941,605f61f6a2529d666698844b,687ed1b7e638a4cbf2f02089,6880bdd16d78a169880536e2,,,,,,,,,,,,,,0,,,,,,,,,,,,,,,,,,,,,,,,,,,,,,,,,,,,,,,,,,,,504.4775,505.6121,0,1,0.6007,,505.6122,506.612,0,10,10,10,1,0,lejo,REAL,FAKE,,,,,,,,,,,,,,,,,,,,,,,,,,,,,,,,
,,,,,,,,,CKT2VZHG,spanish,13 or older,click here to respond,no,2025-07-23_06h48.38.514,empathy_intonation_perc,2024.2.4,Win32,58.82352941,605f61f6a2529d666698844b,687ed1b7e638a4cbf2f02089,6880bdd16d78a169880536e2,,,,,,,,,,,,,,0,,,,,,,,,,,,,,,,,,,,,,,,,,,,,,,,,,,,,,,,,,,,506.6135,508.7132,0,1,1.5686,,508.7133,509.7141,0,11,11,11,1,0,pretantas,REAL,FAKE,,,,,,,,,,,,,,,,,,,,,,,,,,,,,,,,
,,,,,,,,,CKT2VZHG,spanish,13 or older,click here to respond,no,2025-07-23_06h48.38.514,empathy_intonation_perc,2024.2.4,Win32,58.82352941,605f61f6a2529d666698844b,687ed1b7e638a4cbf2f02089,6880bdd16d78a169880536e2,,,,,,,,,,,,,,,,,,,,,,,,,,,,,,,,,,,,,,,,,,,,,,,,,,,,,,,,,,,,,,,,,,,,,,,,,,,509.7148,511.6336,,,,,,,,,,,,,,,,,,,,,,,,,,,,,,
,,,,,,,,,CKT2VZHG,spanish,13 or older,click here to respond,no,2025-07-23_06h48.38.514,empathy_intonation_perc,2024.2.4,Win32,58.82352941,605f61f6a2529d666698844b,687ed1b7e638a4cbf2f02089,6880bdd16d78a169880536e2,,,,,,,,,,,,,,1,,,,,,,,,,,,,,,,,,,,,,,,,,,,,,,,,,,,,,,,,,,,,,,,,,,,,,,,,46,martillo,,,,,511.6515,513.4467,1,1,1.2553,,0,0,0,45,1,REAL,FAKE,,,,,,,,,,,,,,,,,
,,,,,,,,,CKT2VZHG,spanish,13 or older,click here to respond,no,2025-07-23_06h48.38.514,empathy_intonation_perc,2024.2.4,Win32,58.82352941,605f61f6a2529d666698844b,687ed1b7e638a4cbf2f02089,6880bdd16d78a169880536e2,,,,,,,,,,,,,,1,,,,,,,,,,,,,,,,,,,,,,,,,,,,,,,,,,,,,,,,,,,,,,,,,,,,,,,,,39,torpe,,,,,513.449,515.3618,1,1,1.3733,,0,1,1,38,1,REAL,FAKE,,,,,,,,,,,,,,,,,
,,,,,,,,,CKT2VZHG,spanish,13 or older,click here to respond,no,2025-07-23_06h48.38.514,empathy_intonation_perc,2024.2.4,Win32,58.82352941,605f61f6a2529d666698844b,687ed1b7e638a4cbf2f02089,6880bdd16d78a169880536e2,,,,,,,,,,,,,,1,,,,,,,,,,,,,,,,,,,,,,,,,,,,,,,,,,,,,,,,,,,,,,,,,,,,,,,,,9,hacha,,,,,515.3626,517.3289,1,1,1.436,,0,2,2,8,1,REAL,FAKE,,,,,,,,,,,,,,,,,
,,,,,,,,,CKT2VZHG,spanish,13 or older,click here to respond,no,2025-07-23_06h48.38.514,empathy_intonation_perc,2024.2.4,Win32,58.82352941,605f61f6a2529d666698844b,687ed1b7e638a4cbf2f02089,6880bdd16d78a169880536e2,,,,,,,,,,,,,,0,,,,,,,,,,,,,,,,,,,,,,,,,,,,,,,,,,,,,,,,,,,,,,,,,,,,,,,,,87,grodo,,,,,517.3304,519.3954,0,1,1.5187,,0,3,3,86,1,REAL,FAKE,,,,,,,,,,,,,,,,,
,,,,,,,,,CKT2VZHG,spanish,13 or older,click here to respond,no,2025-07-23_06h48.38.514,empathy_intonation_perc,2024.2.4,Win32,58.82352941,605f61f6a2529d666698844b,687ed1b7e638a4cbf2f02089,6880bdd16d78a169880536e2,,,,,,,,,,,,,,1,,,,,,,,,,,,,,,,,,,,,,,,,,,,,,,,,,,,,,,,,,,,,,,,,,,,,,,,,55,nevar,,,,,519.3971,520.812,0,0,0.8678,,0,4,4,54,1,REAL,FAKE,,,,,,,,,,,,,,,,,
,,,,,,,,,CKT2VZHG,spanish,13 or older,click here to respond,no,2025-07-23_06h48.38.514,empathy_intonation_perc,2024.2.4,Win32,58.82352941,605f61f6a2529d666698844b,687ed1b7e638a4cbf2f02089,6880bdd16d78a169880536e2,,,,,,,,,,,,,,0,,,,,,,,,,,,,,,,,,,,,,,,,,,,,,,,,,,,,,,,,,,,,,,,,,,,,,,,,63,esposante,,,,,520.8132,522.3617,1,0,1.003,,0,5,5,62,1,REAL,FAKE,,,,,,,,,,,,,,,,,
,,,,,,,,,CKT2VZHG,spanish,13 or older,click here to respond,no,2025-07-23_06h48.38.514,empathy_intonation_perc,2024.2.4,Win32,58.82352941,605f61f6a2529d666698844b,687ed1b7e638a4cbf2f02089,6880bdd16d78a169880536e2,,,,,,,,,,,,,,1,,,,,,,,,,,,,,,,,,,,,,,,,,,,,,,,,,,,,,,,,,,,,,,,,,,,,,,,,5,zapato,,,,,522.3628,524.3136,0,0,1.4358,,0,6,6,4,1,REAL,FAKE,,,,,,,,,,,,,,,,,
,,,,,,,,,CKT2VZHG,spanish,13 or older,click here to respond,no,2025-07-23_06h48.38.514,empathy_intonation_perc,2024.2.4,Win32,58.82352941,605f61f6a2529d666698844b,687ed1b7e638a4cbf2f02089,6880bdd16d78a169880536e2,,,,,,,,,,,,,,0,,,,,,,,,,,,,,,,,,,,,,,,,,,,,,,,,,,,,,,,,,,,,,,,,,,,,,,,,70,temblo,,,,,524.3156,526.4136,1,0,1.5684,,0,7,7,69,1,REAL,FAKE,,,,,,,,,,,,,,,,,
,,,,,,,,,CKT2VZHG,spanish,13 or older,click here to respond,no,2025-07-23_06h48.38.514,empathy_intonation_perc,2024.2.4,Win32,58.82352941,605f61f6a2529d666698844b,687ed1b7e638a4cbf2f02089,6880bdd16d78a169880536e2,,,,,,,,,,,,,,1,,,,,,,,,,,,,,,,,,,,,,,,,,,,,,,,,,,,,,,,,,,,,,,,,,,,,,,,,75,yacer,,,,,526.414,528.3836,0,0,1.4527,,0,8,8,74,1,REAL,FAKE,,,,,,,,,,,,,,,,,
,,,,,,,,,CKT2VZHG,spanish,13 or older,click here to respond,no,2025-07-23_06h48.38.514,empathy_intonation_perc,2024.2.4,Win32,58.82352941,605f61f6a2529d666698844b,687ed1b7e638a4cbf2f02089,6880bdd16d78a169880536e2,,,,,,,,,,,,,,1,,,,,,,,,,,,,,,,,,,,,,,,,,,,,,,,,,,,,,,,,,,,,,,,,,,,,,,,,24,látigo,,,,,528.3857,530.4846,1,1,1.5688,,0,9,9,23,1,REAL,FAKE,,,,,,,,,,,,,,,,,
,,,,,,,,,CKT2VZHG,spanish,13 or older,click here to respond,no,2025-07-23_06h48.38.514,empathy_intonation_perc,2024.2.4,Win32,58.82352941,605f61f6a2529d666698844b,687ed1b7e638a4cbf2f02089,6880bdd16d78a169880536e2,,,,,,,,,,,,,,1,,,,,,,,,,,,,,,,,,,,,,,,,,,,,,,,,,,,,,,,,,,,,,,,,,,,,,,,,59,besar,,,,,530.4851,532.3028,0,0,1.285,,0,10,10,58,1,REAL,FAKE,,,,,,,,,,,,,,,,,
,,,,,,,,,CKT2VZHG,spanish,13 or older,click here to respond,no,2025-07-23_06h48.38.514,empathy_intonation_perc,2024.2.4,Win32,58.82352941,605f61f6a2529d666698844b,687ed1b7e638a4cbf2f02089,6880bdd16d78a169880536e2,,,,,,,,,,,,,,1,,,,,,,,,,,,,,,,,,,,,,,,,,,,,,,,,,,,,,,,,,,,,,,,,,,,,,,,,64,orgulloso,,,,,532.3033,533.9363,0,0,1.1158,,0,11,11,63,1,REAL,FAKE,,,,,,,,,,,,,,,,,
,,,,,,,,,CKT2VZHG,spanish,13 or older,click here to respond,no,2025-07-23_06h48.38.514,empathy_intonation_perc,2024.2.4,Win32,58.82352941,605f61f6a2529d666698844b,687ed1b7e638a4cbf2f02089,6880bdd16d78a169880536e2,,,,,,,,,,,,,,0,,,,,,,,,,,,,,,,,,,,,,,,,,,,,,,,,,,,,,,,,,,,,,,,,,,,,,,,,21,capillo,,,,,533.9374,535.5566,1,0,1.1023,,0,12,12,20,1,REAL,FAKE,,,,,,,,,,,,,,,,,
,,,,,,,,,CKT2VZHG,spanish,13 or older,click here to respond,no,2025-07-23_06h48.38.514,empathy_intonation_perc,2024.2.4,Win32,58.82352941,605f61f6a2529d666698844b,687ed1b7e638a4cbf2f02089,6880bdd16d78a169880536e2,,,,,,,,,,,,,,1,,,,,,,,,,,,,,,,,,,,,,,,,,,,,,,,,,,,,,,,,,,,,,,,,,,,,,,,,61,seda,,,,,535.5584,538.0087,1,1,1.9199,,0,13,13,60,1,REAL,FAKE,,,,,,,,,,,,,,,,,
,,,,,,,,,CKT2VZHG,spanish,13 or older,click here to respond,no,2025-07-23_06h48.38.514,empathy_intonation_perc,2024.2.4,Win32,58.82352941,605f61f6a2529d666698844b,687ed1b7e638a4cbf2f02089,6880bdd16d78a169880536e2,,,,,,,,,,,,,,0,,,,,,,,,,,,,,,,,,,,,,,,,,,,,,,,,,,,,,,,,,,,,,,,,,,,,,,,,58,plaudir,,,,,538.0102,540.2767,0,1,1.7362,,0,14,14,57,1,REAL,FAKE,,,,,,,,,,,,,,,,,
,,,,,,,,,CKT2VZHG,spanish,13 or older,click here to respond,no,2025-07-23_06h48.38.514,empathy_intonation_perc,2024.2.4,Win32,58.82352941,605f61f6a2529d666698844b,687ed1b7e638a4cbf2f02089,6880bdd16d78a169880536e2,,,,,,,,,,,,,,1,,,,,,,,,,,,,,,,,,,,,,,,,,,,,,,,,,,,,,,,,,,,,,,,,,,,,,,,,15,regar,,,,,540.2774,542.7301,0,0,1.936,,0,15,15,14,1,REAL,FAKE,,,,,,,,,,,,,,,,,
,,,,,,,,,CKT2VZHG,spanish,13 or older,click here to respond,no,2025-07-23_06h48.38.514,empathy_intonation_perc,2024.2.4,Win32,58.82352941,605f61f6a2529d666698844b,687ed1b7e638a4cbf2f02089,6880bdd16d78a169880536e2,,,,,,,,,,,,,,0,,,,,,,,,,,,,,,,,,,,,,,,,,,,,,,,,,,,,,,,,,,,,,,,,,,,,,,,,16,abracer,,,,,542.7308,544.25,0,1,1.0021,,0,16,16,15,1,REAL,FAKE,,,,,,,,,,,,,,,,,
,,,,,,,,,CKT2VZHG,spanish,13 or older,click here to respond,no,2025-07-23_06h48.38.514,empathy_intonation_perc,2024.2.4,Win32,58.82352941,605f61f6a2529d666698844b,687ed1b7e638a4cbf2f02089,6880bdd16d78a169880536e2,,,,,,,,,,,,,,0,,,,,,,,,,,,,,,,,,,,,,,,,,,,,,,,,,,,,,,,,,,,,,,,,,,,,,,,,10,antar,,,,,544.2518,545.9176,0,1,1.1355,,0,17,17,9,1,REAL,FAKE,,,,,,,,,,,,,,,,,
,,,,,,,,,CKT2VZHG,spanish,13 or older,click here to respond,no,2025-07-23_06h48.38.514,empathy_intonation_perc,2024.2.4,Win32,58.82352941,605f61f6a2529d666698844b,687ed1b7e638a4cbf2f02089,6880bdd16d78a169880536e2,,,,,,,,,,,,,,0,,,,,,,,,,,,,,,,,,,,,,,,,,,,,,,,,,,,,,,,,,,,,,,,,,,,,,,,,23,lampera,,,,,545.9188,547.253,1,0,0.8018,,0,18,18,22,1,REAL,FAKE,,,,,,,,,,,,,,,,,
,,,,,,,,,CKT2VZHG,spanish,13 or older,click here to respond,no,2025-07-23_06h48.38.514,empathy_intonation_perc,2024.2.4,Win32,58.82352941,605f61f6a2529d666698844b,687ed1b7e638a4cbf2f02089,6880bdd16d78a169880536e2,,,,,,,,,,,,,,1,,,,,,,,,,,,,,,,,,,,,,,,,,,,,,,,,,,,,,,,,,,,,,,,,,,,,,,,,85,laúd,,,,,547.2559,549.7886,1,1,2.0026,,0,19,19,84,1,REAL,FAKE,,,,,,,,,,,,,,,,,
,,,,,,,,,CKT2VZHG,spanish,13 or older,click here to respond,no,2025-07-23_06h48.38.514,empathy_intonation_perc,2024.2.4,Win32,58.82352941,605f61f6a2529d666698844b,687ed1b7e638a4cbf2f02089,6880bdd16d78a169880536e2,,,,,,,,,,,,,,0,,,,,,,,,,,,,,,,,,,,,,,,,,,,,,,,,,,,,,,,,,,,,,,,,,,,,,,,,32,fatacidad,,,,,549.7907,551.205,1,0,0.884,,0,20,20,31,1,REAL,FAKE,,,,,,,,,,,,,,,,,
,,,,,,,,,CKT2VZHG,spanish,13 or older,click here to respond,no,2025-07-23_06h48.38.514,empathy_intonation_perc,2024.2.4,Win32,58.82352941,605f61f6a2529d666698844b,687ed1b7e638a4cbf2f02089,6880bdd16d78a169880536e2,,,,,,,,,,,,,,1,,,,,,,,,,,,,,,,,,,,,,,,,,,,,,,,,,,,,,,,,,,,,,,,,,,,,,,,,43,canela,,,,,551.2055,552.6915,1,1,0.9685,,0,21,21,42,1,REAL,FAKE,,,,,,,,,,,,,,,,,
,,,,,,,,,CKT2VZHG,spanish,13 or older,click here to respond,no,2025-07-23_06h48.38.514,empathy_intonation_perc,2024.2.4,Win32,58.82352941,605f61f6a2529d666698844b,687ed1b7e638a4cbf2f02089,6880bdd16d78a169880536e2,,,,,,,,,,,,,,1,,,,,,,,,,,,,,,,,,,,,,,,,,,,,,,,,,,,,,,,,,,,,,,,,,,,,,,,,90,clavel,,,,,552.6931,554.6104,0,0,1.386,,0,22,22,89,1,REAL,FAKE,,,,,,,,,,,,,,,,,
,,,,,,,,,CKT2VZHG,spanish,13 or older,click here to respond,no,2025-07-23_06h48.38.514,empathy_intonation_perc,2024.2.4,Win32,58.82352941,605f61f6a2529d666698844b,687ed1b7e638a4cbf2f02089,6880bdd16d78a169880536e2,,,,,,,,,,,,,,0,,,,,,,,,,,,,,,,,,,,,,,,,,,,,,,,,,,,,,,,,,,,,,,,,,,,,,,,,82,empirador,,,,,554.6128,556.0452,1,0,0.9016,,0,23,23,81,1,REAL,FAKE,,,,,,,,,,,,,,,,,
,,,,,,,,,CKT2VZHG,spanish,13 or older,click here to respond,no,2025-07-23_06h48.38.514,empathy_intonation_perc,2024.2.4,Win32,58.82352941,605f61f6a2529d666698844b,687ed1b7e638a4cbf2f02089,6880bdd16d78a169880536e2,,,,,,,,,,,,,,1,,,,,,,,,,,,,,,,,,,,,,,,,,,,,,,,,,,,,,,,,,,,,,,,,,,,,,,,,7,pésimo,,,,,556.0465,558.0961,1,1,1.5015,,0,24,24,6,1,REAL,FAKE,,,,,,,,,,,,,,,,,
,,,,,,,,,CKT2VZHG,spanish,13 or older,click here to respond,no,2025-07-23_06h48.38.514,empathy_intonation_perc,2024.2.4,Win32,58.82352941,605f61f6a2529d666698844b,687ed1b7e638a4cbf2f02089,6880bdd16d78a169880536e2,,,,,,,,,,,,,,1,,,,,,,,,,,,,,,,,,,,,,,,,,,,,,,,,,,,,,,,,,,,,,,,,,,,,,,,,26,secuestro,,,,,558.0972,559.5645,0,0,0.9347,,0,25,25,25,1,REAL,FAKE,,,,,,,,,,,,,,,,,
,,,,,,,,,CKT2VZHG,spanish,13 or older,click here to respond,no,2025-07-23_06h48.38.514,empathy_intonation_perc,2024.2.4,Win32,58.82352941,605f61f6a2529d666698844b,687ed1b7e638a4cbf2f02089,6880bdd16d78a169880536e2,,,,,,,,,,,,,,0,,,,,,,,,,,,,,,,,,,,,,,,,,,,,,,,,,,,,,,,,,,,,,,,,,,,,,,,,35,rompido,,,,,559.5658,561.634,0,1,1.5523,,0,26,26,34,1,REAL,FAKE,,,,,,,,,,,,,,,,,
,,,,,,,,,CKT2VZHG,spanish,13 or older,click here to respond,no,2025-07-23_06h48.38.514,empathy_intonation_perc,2024.2.4,Win32,58.82352941,605f61f6a2529d666698844b,687ed1b7e638a4cbf2f02089,6880bdd16d78a169880536e2,,,,,,,,,,,,,,1,,,,,,,,,,,,,,,,,,,,,,,,,,,,,,,,,,,,,,,,,,,,,,,,,,,,,,,,,57,tacaño,,,,,561.6367,563.6793,1,1,1.5052,,0,27,27,56,1,REAL,FAKE,,,,,,,,,,,,,,,,,
,,,,,,,,,CKT2VZHG,spanish,13 or older,click here to respond,no,2025-07-23_06h48.38.514,empathy_intonation_perc,2024.2.4,Win32,58.82352941,605f61f6a2529d666698844b,687ed1b7e638a4cbf2f02089,6880bdd16d78a169880536e2,,,,,,,,,,,,,,0,,,,,,,,,,,,,,,,,,,,,,,,,,,,,,,,,,,,,,,,,,,,,,,,,,,,,,,,,29,decar,,,,,563.6813,565.4957,0,1,1.2671,,0,28,28,28,1,REAL,FAKE,,,,,,,,,,,,,,,,,
,,,,,,,,,CKT2VZHG,spanish,13 or older,click here to respond,no,2025-07-23_06h48.38.514,empathy_intonation_perc,2024.2.4,Win32,58.82352941,605f61f6a2529d666698844b,687ed1b7e638a4cbf2f02089,6880bdd16d78a169880536e2,,,,,,,,,,,,,,1,,,,,,,,,,,,,,,,,,,,,,,,,,,,,,,,,,,,,,,,,,,,,,,,,,,,,,,,,41,rebuscar,,,,,565.4976,566.9454,0,0,0.9013,,0,29,29,40,1,REAL,FAKE,,,,,,,,,,,,,,,,,
,,,,,,,,,CKT2VZHG,spanish,13 or older,click here to respond,no,2025-07-23_06h48.38.514,empathy_intonation_perc,2024.2.4,Win32,58.82352941,605f61f6a2529d666698844b,687ed1b7e638a4cbf2f02089,6880bdd16d78a169880536e2,,,,,,,,,,,,,,0,,,,,,,,,,,,,,,,,,,,,,,,,,,,,,,,,,,,,,,,,,,,,,,,,,,,,,,,,53,vegada,,,,,566.9468,568.4123,1,0,0.9202,,0,30,30,52,1,REAL,FAKE,,,,,,,,,,,,,,,,,
,,,,,,,,,CKT2VZHG,spanish,13 or older,click here to respond,no,2025-07-23_06h48.38.514,empathy_intonation_perc,2024.2.4,Win32,58.82352941,605f61f6a2529d666698844b,687ed1b7e638a4cbf2f02089,6880bdd16d78a169880536e2,,,,,,,,,,,,,,0,,,,,,,,,,,,,,,,,,,,,,,,,,,,,,,,,,,,,,,,,,,,,,,,,,,,,,,,,42,cadallo,,,,,568.414,570.1289,1,0,1.1701,,0,31,31,41,1,REAL,FAKE,,,,,,,,,,,,,,,,,
,,,,,,,,,CKT2VZHG,spanish,13 or older,click here to respond,no,2025-07-23_06h48.38.514,empathy_intonation_perc,2024.2.4,Win32,58.82352941,605f61f6a2529d666698844b,687ed1b7e638a4cbf2f02089,6880bdd16d78a169880536e2,,,,,,,,,,,,,,0,,,,,,,,,,,,,,,,,,,,,,,,,,,,,,,,,,,,,,,,,,,,,,,,,,,,,,,,,50,flamida,,,,,570.1304,573.0951,0,1,2.419,,0,32,32,49,1,REAL,FAKE,,,,,,,,,,,,,,,,,
,,,,,,,,,CKT2VZHG,spanish,13 or older,click here to respond,no,2025-07-23_06h48.38.514,empathy_intonation_perc,2024.2.4,Win32,58.82352941,605f61f6a2529d666698844b,687ed1b7e638a4cbf2f02089,6880bdd16d78a169880536e2,,,,,,,,,,,,,,1,,,,,,,,,,,,,,,,,,,,,,,,,,,,,,,,,,,,,,,,,,,,,,,,,,,,,,,,,25,bisagra,,,,,573.096,574.9621,0,0,1.3195,,0,33,33,24,1,REAL,FAKE,,,,,,,,,,,,,,,,,
,,,,,,,,,CKT2VZHG,spanish,13 or older,click here to respond,no,2025-07-23_06h48.38.514,empathy_intonation_perc,2024.2.4,Win32,58.82352941,605f61f6a2529d666698844b,687ed1b7e638a4cbf2f02089,6880bdd16d78a169880536e2,,,,,,,,,,,,,,1,,,,,,,,,,,,,,,,,,,,,,,,,,,,,,,,,,,,,,,,,,,,,,,,,,,,,,,,,89,prisa,,,,,574.9641,576.4468,0,0,0.9523,,0,34,34,88,1,REAL,FAKE,,,,,,,,,,,,,,,,,
,,,,,,,,,CKT2VZHG,spanish,13 or older,click here to respond,no,2025-07-23_06h48.38.514,empathy_intonation_perc,2024.2.4,Win32,58.82352941,605f61f6a2529d666698844b,687ed1b7e638a4cbf2f02089,6880bdd16d78a169880536e2,,,,,,,,,,,,,,1,,,,,,,,,,,,,,,,,,,,,,,,,,,,,,,,,,,,,,,,,,,,,,,,,,,,,,,,,56,musgo,,,,,576.4481,577.8329,0,0,0.8524,,0,35,35,55,1,REAL,FAKE,,,,,,,,,,,,,,,,,
,,,,,,,,,CKT2VZHG,spanish,13 or older,click here to respond,no,2025-07-23_06h48.38.514,empathy_intonation_perc,2024.2.4,Win32,58.82352941,605f61f6a2529d666698844b,687ed1b7e638a4cbf2f02089,6880bdd16d78a169880536e2,,,,,,,,,,,,,,1,,,,,,,,,,,,,,,,,,,,,,,,,,,,,,,,,,,,,,,,,,,,,,,,,,,,,,,,,62,flaco,,,,,577.8347,579.3515,0,0,0.9858,,0,36,36,61,1,REAL,FAKE,,,,,,,,,,,,,,,,,
,,,,,,,,,CKT2VZHG,spanish,13 or older,click here to respond,no,2025-07-23_06h48.38.514,empathy_intonation_perc,2024.2.4,Win32,58.82352941,605f61f6a2529d666698844b,687ed1b7e638a4cbf2f02089,6880bdd16d78a169880536e2,,,,,,,,,,,,,,1,,,,,,,,,,,,,,,,,,,,,,,,,,,,,,,,,,,,,,,,,,,,,,,,,,,,,,,,,48,ladrón,,,,,579.3543,581.0182,0,0,1.1344,,0,37,37,47,1,REAL,FAKE,,,,,,,,,,,,,,,,,
,,,,,,,,,CKT2VZHG,spanish,13 or older,click here to respond,no,2025-07-23_06h48.38.514,empathy_intonation_perc,2024.2.4,Win32,58.82352941,605f61f6a2529d666698844b,687ed1b7e638a4cbf2f02089,6880bdd16d78a169880536e2,,,,,,,,,,,,,,1,,,,,,,,,,,,,,,,,,,,,,,,,,,,,,,,,,,,,,,,,,,,,,,,,,,,,,,,,80,hormiga,,,,,581.0187,582.7545,1,1,1.2184,,0,38,38,79,1,REAL,FAKE,,,,,,,,,,,,,,,,,
,,,,,,,,,CKT2VZHG,spanish,13 or older,click here to respond,no,2025-07-23_06h48.38.514,empathy_intonation_perc,2024.2.4,Win32,58.82352941,605f61f6a2529d666698844b,687ed1b7e638a4cbf2f02089,6880bdd16d78a169880536e2,,,,,,,,,,,,,,1,,,,,,,,,,,,,,,,,,,,,,,,,,,,,,,,,,,,,,,,,,,,,,,,,,,,,,,,,88,acantilado,,,,,582.7558,584.99,1,1,1.7024,,0,39,39,87,1,REAL,FAKE,,,,,,,,,,,,,,,,,
,,,,,,,,,CKT2VZHG,spanish,13 or older,click here to respond,no,2025-07-23_06h48.38.514,empathy_intonation_perc,2024.2.4,Win32,58.82352941,605f61f6a2529d666698844b,687ed1b7e638a4cbf2f02089,6880bdd16d78a169880536e2,,,,,,,,,,,,,,1,,,,,,,,,,,,,,,,,,,,,,,,,,,,,,,,,,,,,,,,,,,,,,,,,,,,,,,,,65,bizcocho,,,,,584.9915,586.4246,0,0,0.9014,,0,40,40,64,1,REAL,FAKE,,,,,,,,,,,,,,,,,
,,,,,,,,,CKT2VZHG,spanish,13 or older,click here to respond,no,2025-07-23_06h48.38.514,empathy_intonation_perc,2024.2.4,Win32,58.82352941,605f61f6a2529d666698844b,687ed1b7e638a4cbf2f02089,6880bdd16d78a169880536e2,,,,,,,,,,,,,,0,,,,,,,,,,,,,,,,,,,,,,,,,,,,,,,,,,,,,,,,,,,,,,,,,,,,,,,,,27,acutación,,,,,586.4256,587.8933,1,0,0.9349,,0,41,41,26,1,REAL,FAKE,,,,,,,,,,,,,,,,,
,,,,,,,,,CKT2VZHG,spanish,13 or older,click here to respond,no,2025-07-23_06h48.38.514,empathy_intonation_perc,2024.2.4,Win32,58.82352941,605f61f6a2529d666698844b,687ed1b7e638a4cbf2f02089,6880bdd16d78a169880536e2,,,,,,,,,,,,,,0,,,,,,,,,,,,,,,,,,,,,,,,,,,,,,,,,,,,,,,,,,,,,,,,,,,,,,,,,8,cadeña,,,,,587.8956,589.362,1,0,0.9352,,0,42,42,7,1,REAL,FAKE,,,,,,,,,,,,,,,,,
,,,,,,,,,CKT2VZHG,spanish,13 or older,click here to respond,no,2025-07-23_06h48.38.514,empathy_intonation_perc,2024.2.4,Win32,58.82352941,605f61f6a2529d666698844b,687ed1b7e638a4cbf2f02089,6880bdd16d78a169880536e2,,,,,,,,,,,,,,1,,,,,,,,,,,,,,,,,,,,,,,,,,,,,,,,,,,,,,,,,,,,,,,,,,,,,,,,,6,tergiversar,,,,,589.3637,591.4806,0,0,1.5862,,0,43,43,5,1,REAL,FAKE,,,,,,,,,,,,,,,,,
,,,,,,,,,CKT2VZHG,spanish,13 or older,click here to respond,no,2025-07-23_06h48.38.514,empathy_intonation_perc,2024.2.4,Win32,58.82352941,605f61f6a2529d666698844b,687ed1b7e638a4cbf2f02089,6880bdd16d78a169880536e2,,,,,,,,,,,,,,1,,,,,,,,,,,,,,,,,,,,,,,,,,,,,,,,,,,,,,,,,,,,,,,,,,,,,,,,,38,estornudar,,,,,591.4822,593.7997,1,1,1.7863,,0,44,44,37,1,REAL,FAKE,,,,,,,,,,,,,,,,,
,,,,,,,,,CKT2VZHG,spanish,13 or older,click here to respond,no,2025-07-23_06h48.38.514,empathy_intonation_perc,2024.2.4,Win32,58.82352941,605f61f6a2529d666698844b,687ed1b7e638a4cbf2f02089,6880bdd16d78a169880536e2,,,,,,,,,,,,,,0,,,,,,,,,,,,,,,,,,,,,,,,,,,,,,,,,,,,,,,,,,,,,,,,,,,,,,,,,92,click the 0 key.,,,,,593.8021,596.8521,0,1,2.52,,0,45,45,91,1,REAL,FAKE,,,,,,,,,,,,,,,,,
,,,,,,,,,CKT2VZHG,spanish,13 or older,click here to respond,no,2025-07-23_06h48.38.514,empathy_intonation_perc,2024.2.4,Win32,58.82352941,605f61f6a2529d666698844b,687ed1b7e638a4cbf2f02089,6880bdd16d78a169880536e2,,,,,,,,,,,,,,1,,,,,,,,,,,,,,,,,,,,,,,,,,,,,,,,,,,,,,,,,,,,,,,,,,,,,,,,,81,pozo,,,,,596.8535,600.489,0,0,3.1038,,0,46,46,80,1,REAL,FAKE,,,,,,,,,,,,,,,,,
,,,,,,,,,CKT2VZHG,spanish,13 or older,click here to respond,no,2025-07-23_06h48.38.514,empathy_intonation_perc,2024.2.4,Win32,58.82352941,605f61f6a2529d666698844b,687ed1b7e638a4cbf2f02089,6880bdd16d78a169880536e2,,,,,,,,,,,,,,1,,,,,,,,,,,,,,,,,,,,,,,,,,,,,,,,,,,,,,,,,,,,,,,,,,,,,,,,,34,aviso,,,,,600.4905,602.0575,1,1,1.0358,,0,47,47,33,1,REAL,FAKE,,,,,,,,,,,,,,,,,
,,,,,,,,,CKT2VZHG,spanish,13 or older,click here to respond,no,2025-07-23_06h48.38.514,empathy_intonation_perc,2024.2.4,Win32,58.82352941,605f61f6a2529d666698844b,687ed1b7e638a4cbf2f02089,6880bdd16d78a169880536e2,,,,,,,,,,,,,,1,,,,,,,,,,,,,,,,,,,,,,,,,,,,,,,,,,,,,,,,,,,,,,,,,,,,,,,,,44,cuchara,,,,,602.059,603.692,1,1,1.1017,,0,48,48,43,1,REAL,FAKE,,,,,,,,,,,,,,,,,
,,,,,,,,,CKT2VZHG,spanish,13 or older,click here to respond,no,2025-07-23_06h48.38.514,empathy_intonation_perc,2024.2.4,Win32,58.82352941,605f61f6a2529d666698844b,687ed1b7e638a4cbf2f02089,6880bdd16d78a169880536e2,,,,,,,,,,,,,,1,,,,,,,,,,,,,,,,,,,,,,,,,,,,,,,,,,,,,,,,,,,,,,,,,,,,,,,,,86,barato,,,,,603.6934,605.1787,0,0,0.9528,,0,49,49,85,1,REAL,FAKE,,,,,,,,,,,,,,,,,
,,,,,,,,,CKT2VZHG,spanish,13 or older,click here to respond,no,2025-07-23_06h48.38.514,empathy_intonation_perc,2024.2.4,Win32,58.82352941,605f61f6a2529d666698844b,687ed1b7e638a4cbf2f02089,6880bdd16d78a169880536e2,,,,,,,,,,,,,,0,,,,,,,,,,,,,,,,,,,,,,,,,,,,,,,,,,,,,,,,,,,,,,,,,,,,,,,,,79,tropaje,,,,,605.1804,608.7813,0,1,3.0544,,0,50,50,78,1,REAL,FAKE,,,,,,,,,,,,,,,,,
,,,,,,,,,CKT2VZHG,spanish,13 or older,click here to respond,no,2025-07-23_06h48.38.514,empathy_intonation_perc,2024.2.4,Win32,58.82352941,605f61f6a2529d666698844b,687ed1b7e638a4cbf2f02089,6880bdd16d78a169880536e2,,,,,,,,,,,,,,0,,,,,,,,,,,,,,,,,,,,,,,,,,,,,,,,,,,,,,,,,,,,,,,,,,,,,,,,,19,brecedad,,,,,608.783,610.4976,0,1,1.1845,,0,51,51,18,1,REAL,FAKE,,,,,,,,,,,,,,,,,
,,,,,,,,,CKT2VZHG,spanish,13 or older,click here to respond,no,2025-07-23_06h48.38.514,empathy_intonation_perc,2024.2.4,Win32,58.82352941,605f61f6a2529d666698844b,687ed1b7e638a4cbf2f02089,6880bdd16d78a169880536e2,,,,,,,,,,,,,,1,,,,,,,,,,,,,,,,,,,,,,,,,,,,,,,,,,,,,,,,,,,,,,,,,,,,,,,,,71,polvoriento,,,,,610.4982,612.6487,0,0,1.6336,,0,52,52,70,1,REAL,FAKE,,,,,,,,,,,,,,,,,
,,,,,,,,,CKT2VZHG,spanish,13 or older,click here to respond,no,2025-07-23_06h48.38.514,empathy_intonation_perc,2024.2.4,Win32,58.82352941,605f61f6a2529d666698844b,687ed1b7e638a4cbf2f02089,6880bdd16d78a169880536e2,,,,,,,,,,,,,,1,,,,,,,,,,,,,,,,,,,,,,,,,,,,,,,,,,,,,,,,,,,,,,,,,,,,,,,,,91,click the 1 key.,,,,,612.6504,614.7346,1,1,1.5527,,0,53,53,90,1,REAL,FAKE,,,,,,,,,,,,,,,,,
,,,,,,,,,CKT2VZHG,spanish,13 or older,click here to respond,no,2025-07-23_06h48.38.514,empathy_intonation_perc,2024.2.4,Win32,58.82352941,605f61f6a2529d666698844b,687ed1b7e638a4cbf2f02089,6880bdd16d78a169880536e2,,,,,,,,,,,,,,1,,,,,,,,,,,,,,,,,,,,,,,,,,,,,,,,,,,,,,,,,,,,,,,,,,,,,,,,,51,candado,,,,,614.7362,617.1038,0,0,1.8365,,0,54,54,50,1,REAL,FAKE,,,,,,,,,,,,,,,,,
,,,,,,,,,CKT2VZHG,spanish,13 or older,click here to respond,no,2025-07-23_06h48.38.514,empathy_intonation_perc,2024.2.4,Win32,58.82352941,605f61f6a2529d666698844b,687ed1b7e638a4cbf2f02089,6880bdd16d78a169880536e2,,,,,,,,,,,,,,1,,,,,,,,,,,,,,,,,,,,,,,,,,,,,,,,,,,,,,,,,,,,,,,,,,,,,,,,,11,cenefa,,,,,617.1051,619.0071,0,0,1.3699,,0,55,55,10,1,REAL,FAKE,,,,,,,,,,,,,,,,,
,,,,,,,,,CKT2VZHG,spanish,13 or older,click here to respond,no,2025-07-23_06h48.38.514,empathy_intonation_perc,2024.2.4,Win32,58.82352941,605f61f6a2529d666698844b,687ed1b7e638a4cbf2f02089,6880bdd16d78a169880536e2,,,,,,,,,,,,,,0,,,,,,,,,,,,,,,,,,,,,,,,,,,,,,,,,,,,,,,,,,,,,,,,,,,,,,,,,33,pauca,,,,,619.0092,620.7256,0,1,1.1859,,0,56,56,32,1,REAL,FAKE,,,,,,,,,,,,,,,,,
,,,,,,,,,CKT2VZHG,spanish,13 or older,click here to respond,no,2025-07-23_06h48.38.514,empathy_intonation_perc,2024.2.4,Win32,58.82352941,605f61f6a2529d666698844b,687ed1b7e638a4cbf2f02089,6880bdd16d78a169880536e2,,,,,,,,,,,,,,1,,,,,,,,,,,,,,,,,,,,,,,,,,,,,,,,,,,,,,,,,,,,,,,,,,,,,,,,,2,pellizcar,,,,,620.7273,623.5956,0,0,2.3362,,0,57,57,1,1,REAL,FAKE,,,,,,,,,,,,,,,,,
,,,,,,,,,CKT2VZHG,spanish,13 or older,click here to respond,no,2025-07-23_06h48.38.514,empathy_intonation_perc,2024.2.4,Win32,58.82352941,605f61f6a2529d666698844b,687ed1b7e638a4cbf2f02089,6880bdd16d78a169880536e2,,,,,,,,,,,,,,0,,,,,,,,,,,,,,,,,,,,,,,,,,,,,,,,,,,,,,,,,,,,,,,,,,,,,,,,,18,arsa,,,,,623.5973,626.0656,0,1,1.9378,,0,58,58,17,1,REAL,FAKE,,,,,,,,,,,,,,,,,
,,,,,,,,,CKT2VZHG,spanish,13 or older,click here to respond,no,2025-07-23_06h48.38.514,empathy_intonation_perc,2024.2.4,Win32,58.82352941,605f61f6a2529d666698844b,687ed1b7e638a4cbf2f02089,6880bdd16d78a169880536e2,,,,,,,,,,,,,,0,,,,,,,,,,,,,,,,,,,,,,,,,,,,,,,,,,,,,,,,,,,,,,,,,,,,,,,,,47,cartinar,,,,,626.0674,628.0663,1,0,1.4686,,0,59,59,46,1,REAL,FAKE,,,,,,,,,,,,,,,,,
,,,,,,,,,CKT2VZHG,spanish,13 or older,click here to respond,no,2025-07-23_06h48.38.514,empathy_intonation_perc,2024.2.4,Win32,58.82352941,605f61f6a2529d666698844b,687ed1b7e638a4cbf2f02089,6880bdd16d78a169880536e2,,,,,,,,,,,,,,1,,,,,,,,,,,,,,,,,,,,,,,,,,,,,,,,,,,,,,,,,,,,,,,,,,,,,,,,,68,alegre,,,,,628.0677,629.3993,1,1,0.8006,,0,60,60,67,1,REAL,FAKE,,,,,,,,,,,,,,,,,
,,,,,,,,,CKT2VZHG,spanish,13 or older,click here to respond,no,2025-07-23_06h48.38.514,empathy_intonation_perc,2024.2.4,Win32,58.82352941,605f61f6a2529d666698844b,687ed1b7e638a4cbf2f02089,6880bdd16d78a169880536e2,,,,,,,,,,,,,,1,,,,,,,,,,,,,,,,,,,,,,,,,,,,,,,,,,,,,,,,,,,,,,,,,,,,,,,,,40,alfombra,,,,,629.3997,631.469,1,1,1.5517,,0,61,61,39,1,REAL,FAKE,,,,,,,,,,,,,,,,,
,,,,,,,,,CKT2VZHG,spanish,13 or older,click here to respond,no,2025-07-23_06h48.38.514,empathy_intonation_perc,2024.2.4,Win32,58.82352941,605f61f6a2529d666698844b,687ed1b7e638a4cbf2f02089,6880bdd16d78a169880536e2,,,,,,,,,,,,,,1,,,,,,,,,,,,,,,,,,,,,,,,,,,,,,,,,,,,,,,,,,,,,,,,,,,,,,,,,52,camisa,,,,,631.4699,632.9382,1,1,0.9516,,0,62,62,51,1,REAL,FAKE,,,,,,,,,,,,,,,,,
,,,,,,,,,CKT2VZHG,spanish,13 or older,click here to respond,no,2025-07-23_06h48.38.514,empathy_intonation_perc,2024.2.4,Win32,58.82352941,605f61f6a2529d666698844b,687ed1b7e638a4cbf2f02089,6880bdd16d78a169880536e2,,,,,,,,,,,,,,1,,,,,,,,,,,,,,,,,,,,,,,,,,,,,,,,,,,,,,,,,,,,,,,,,,,,,,,,,67,cabello,,,,,632.9397,634.705,1,1,1.2345,,0,63,63,66,1,REAL,FAKE,,,,,,,,,,,,,,,,,
,,,,,,,,,CKT2VZHG,spanish,13 or older,click here to respond,no,2025-07-23_06h48.38.514,empathy_intonation_perc,2024.2.4,Win32,58.82352941,605f61f6a2529d666698844b,687ed1b7e638a4cbf2f02089,6880bdd16d78a169880536e2,,,,,,,,,,,,,,1,,,,,,,,,,,,,,,,,,,,,,,,,,,,,,,,,,,,,,,,,,,,,,,,,,,,,,,,,76,atar,,,,,634.7056,636.2088,0,0,0.9857,,0,64,64,75,1,REAL,FAKE,,,,,,,,,,,,,,,,,
,,,,,,,,,CKT2VZHG,spanish,13 or older,click here to respond,no,2025-07-23_06h48.38.514,empathy_intonation_perc,2024.2.4,Win32,58.82352941,605f61f6a2529d666698844b,687ed1b7e638a4cbf2f02089,6880bdd16d78a169880536e2,,,,,,,,,,,,,,1,,,,,,,,,,,,,,,,,,,,,,,,,,,,,,,,,,,,,,,,,,,,,,,,,,,,,,,,,78,frondoso,,,,,636.2109,638.31,0,0,1.5698,,0,65,65,77,1,REAL,FAKE,,,,,,,,,,,,,,,,,
,,,,,,,,,CKT2VZHG,spanish,13 or older,click here to respond,no,2025-07-23_06h48.38.514,empathy_intonation_perc,2024.2.4,Win32,58.82352941,605f61f6a2529d666698844b,687ed1b7e638a4cbf2f02089,6880bdd16d78a169880536e2,,,,,,,,,,,,,,1,,,,,,,,,,,,,,,,,,,,,,,,,,,,,,,,,,,,,,,,,,,,,,,,,,,,,,,,,37,granuja,,,,,638.3114,640.0955,1,1,1.2528,,0,66,66,36,1,REAL,FAKE,,,,,,,,,,,,,,,,,
,,,,,,,,,CKT2VZHG,spanish,13 or older,click here to respond,no,2025-07-23_06h48.38.514,empathy_intonation_perc,2024.2.4,Win32,58.82352941,605f61f6a2529d666698844b,687ed1b7e638a4cbf2f02089,6880bdd16d78a169880536e2,,,,,,,,,,,,,,1,,,,,,,,,,,,,,,,,,,,,,,,,,,,,,,,,,,,,,,,,,,,,,,,,,,,,,,,,83,guante,,,,,640.0971,641.6123,1,1,0.984,,0,67,67,82,1,REAL,FAKE,,,,,,,,,,,,,,,,,
,,,,,,,,,CKT2VZHG,spanish,13 or older,click here to respond,no,2025-07-23_06h48.38.514,empathy_intonation_perc,2024.2.4,Win32,58.82352941,605f61f6a2529d666698844b,687ed1b7e638a4cbf2f02089,6880bdd16d78a169880536e2,,,,,,,,,,,,,,1,,,,,,,,,,,,,,,,,,,,,,,,,,,,,,,,,,,,,,,,,,,,,,,,,,,,,,,,,49,ganar,,,,,641.6131,643.1316,0,0,1.0018,,0,68,68,48,1,REAL,FAKE,,,,,,,,,,,,,,,,,
,,,,,,,,,CKT2VZHG,spanish,13 or older,click here to respond,no,2025-07-23_06h48.38.514,empathy_intonation_perc,2024.2.4,Win32,58.82352941,605f61f6a2529d666698844b,687ed1b7e638a4cbf2f02089,6880bdd16d78a169880536e2,,,,,,,,,,,,,,0,,,,,,,,,,,,,,,,,,,,,,,,,,,,,,,,,,,,,,,,,,,,,,,,,,,,,,,,,74,cintro,,,,,643.1332,644.9333,1,0,1.269,,0,69,69,73,1,REAL,FAKE,,,,,,,,,,,,,,,,,
,,,,,,,,,CKT2VZHG,spanish,13 or older,click here to respond,no,2025-07-23_06h48.38.514,empathy_intonation_perc,2024.2.4,Win32,58.82352941,605f61f6a2529d666698844b,687ed1b7e638a4cbf2f02089,6880bdd16d78a169880536e2,,,,,,,,,,,,,,0,,,,,,,,,,,,,,,,,,,,,,,,,,,,,,,,,,,,,,,,,,,,,,,,,,,,,,,,,4,batillón,,,,,644.9346,647.5525,1,0,2.0861,,0,70,70,3,1,REAL,FAKE,,,,,,,,,,,,,,,,,
,,,,,,,,,CKT2VZHG,spanish,13 or older,click here to respond,no,2025-07-23_06h48.38.514,empathy_intonation_perc,2024.2.4,Win32,58.82352941,605f61f6a2529d666698844b,687ed1b7e638a4cbf2f02089,6880bdd16d78a169880536e2,,,,,,,,,,,,,,1,,,,,,,,,,,,,,,,,,,,,,,,,,,,,,,,,,,,,,,,,,,,,,,,,,,,,,,,,77,tiburón,,,,,647.5537,650.2561,0,0,2.1702,,0,71,71,76,1,REAL,FAKE,,,,,,,,,,,,,,,,,
,,,,,,,,,CKT2VZHG,spanish,13 or older,click here to respond,no,2025-07-23_06h48.38.514,empathy_intonation_perc,2024.2.4,Win32,58.82352941,605f61f6a2529d666698844b,687ed1b7e638a4cbf2f02089,6880bdd16d78a169880536e2,,,,,,,,,,,,,,0,,,,,,,,,,,,,,,,,,,,,,,,,,,,,,,,,,,,,,,,,,,,,,,,,,,,,,,,,30,alardio,,,,,650.258,653.2753,0,1,2.4868,,0,72,72,29,1,REAL,FAKE,,,,,,,,,,,,,,,,,
,,,,,,,,,CKT2VZHG,spanish,13 or older,click here to respond,no,2025-07-23_06h48.38.514,empathy_intonation_perc,2024.2.4,Win32,58.82352941,605f61f6a2529d666698844b,687ed1b7e638a4cbf2f02089,6880bdd16d78a169880536e2,,,,,,,,,,,,,,0,,,,,,,,,,,,,,,,,,,,,,,,,,,,,,,,,,,,,,,,,,,,,,,,,,,,,,,,,17,floroso,,,,,653.2767,656.5619,0,1,2.7533,,0,73,73,16,1,REAL,FAKE,,,,,,,,,,,,,,,,,
,,,,,,,,,CKT2VZHG,spanish,13 or older,click here to respond,no,2025-07-23_06h48.38.514,empathy_intonation_perc,2024.2.4,Win32,58.82352941,605f61f6a2529d666698844b,687ed1b7e638a4cbf2f02089,6880bdd16d78a169880536e2,,,,,,,,,,,,,,1,,,,,,,,,,,,,,,,,,,,,,,,,,,,,,,,,,,,,,,,,,,,,,,,,,,,,,,,,28,merodear,,,,,656.5633,658.1476,0,0,1.0523,,0,74,74,27,1,REAL,FAKE,,,,,,,,,,,,,,,,,
,,,,,,,,,CKT2VZHG,spanish,13 or older,click here to respond,no,2025-07-23_06h48.38.514,empathy_intonation_perc,2024.2.4,Win32,58.82352941,605f61f6a2529d666698844b,687ed1b7e638a4cbf2f02089,6880bdd16d78a169880536e2,,,,,,,,,,,,,,0,,,,,,,,,,,,,,,,,,,,,,,,,,,,,,,,,,,,,,,,,,,,,,,,,,,,,,,,,72,pemición,,,,,658.1493,660.082,1,0,1.402,,0,75,75,71,1,REAL,FAKE,,,,,,,,,,,,,,,,,
,,,,,,,,,CKT2VZHG,spanish,13 or older,click here to respond,no,2025-07-23_06h48.38.514,empathy_intonation_perc,2024.2.4,Win32,58.82352941,605f61f6a2529d666698844b,687ed1b7e638a4cbf2f02089,6880bdd16d78a169880536e2,,,,,,,,,,,,,,1,,,,,,,,,,,,,,,,,,,,,,,,,,,,,,,,,,,,,,,,,,,,,,,,,,,,,,,,,12,asesinato,,,,,660.0836,664.3864,1,1,3.771,,0,76,76,11,1,REAL,FAKE,,,,,,,,,,,,,,,,,
,,,,,,,,,CKT2VZHG,spanish,13 or older,click here to respond,no,2025-07-23_06h48.38.514,empathy_intonation_perc,2024.2.4,Win32,58.82352941,605f61f6a2529d666698844b,687ed1b7e638a4cbf2f02089,6880bdd16d78a169880536e2,,,,,,,,,,,,,,1,,,,,,,,,,,,,,,,,,,,,,,,,,,,,,,,,,,,,,,,,,,,,,,,,,,,,,,,,73,hervidor,,,,,664.3878,666.3202,1,1,1.4015,,0,77,77,72,1,REAL,FAKE,,,,,,,,,,,,,,,,,
,,,,,,,,,CKT2VZHG,spanish,13 or older,click here to respond,no,2025-07-23_06h48.38.514,empathy_intonation_perc,2024.2.4,Win32,58.82352941,605f61f6a2529d666698844b,687ed1b7e638a4cbf2f02089,6880bdd16d78a169880536e2,,,,,,,,,,,,,,0,,,,,,,,,,,,,,,,,,,,,,,,,,,,,,,,,,,,,,,,,,,,,,,,,,,,,,,,,66,hacido,,,,,666.3208,668.3887,0,1,1.5516,,0,78,78,65,1,REAL,FAKE,,,,,,,,,,,,,,,,,
,,,,,,,,,CKT2VZHG,spanish,13 or older,click here to respond,no,2025-07-23_06h48.38.514,empathy_intonation_perc,2024.2.4,Win32,58.82352941,605f61f6a2529d666698844b,687ed1b7e638a4cbf2f02089,6880bdd16d78a169880536e2,,,,,,,,,,,,,,1,,,,,,,,,,,,,,,,,,,,,,,,,,,,,,,,,,,,,,,,,,,,,,,,,,,,,,,,,36,loro,,,,,668.3891,670.2589,1,1,1.3522,,0,79,79,35,1,REAL,FAKE,,,,,,,,,,,,,,,,,
,,,,,,,,,CKT2VZHG,spanish,13 or older,click here to respond,no,2025-07-23_06h48.38.514,empathy_intonation_perc,2024.2.4,Win32,58.82352941,605f61f6a2529d666698844b,687ed1b7e638a4cbf2f02089,6880bdd16d78a169880536e2,,,,,,,,,,,,,,1,,,,,,,,,,,,,,,,,,,,,,,,,,,,,,,,,,,,,,,,,,,,,,,,,,,,,,,,,60,matar,,,,,670.2604,671.6621,0,0,0.8513,,0,80,80,59,1,REAL,FAKE,,,,,,,,,,,,,,,,,
,,,,,,,,,CKT2VZHG,spanish,13 or older,click here to respond,no,2025-07-23_06h48.38.514,empathy_intonation_perc,2024.2.4,Win32,58.82352941,605f61f6a2529d666698844b,687ed1b7e638a4cbf2f02089,6880bdd16d78a169880536e2,,,,,,,,,,,,,,1,,,,,,,,,,,,,,,,,,,,,,,,,,,,,,,,,,,,,,,,,,,,,,,,,,,,,,,,,14,yunque,,,,,671.6635,673.0786,0,0,0.8685,,0,81,81,13,1,REAL,FAKE,,,,,,,,,,,,,,,,,
,,,,,,,,,CKT2VZHG,spanish,13 or older,click here to respond,no,2025-07-23_06h48.38.514,empathy_intonation_perc,2024.2.4,Win32,58.82352941,605f61f6a2529d666698844b,687ed1b7e638a4cbf2f02089,6880bdd16d78a169880536e2,,,,,,,,,,,,,,1,,,,,,,,,,,,,,,,,,,,,,,,,,,,,,,,,,,,,,,,,,,,,,,,,,,,,,,,,22,lacayo,,,,,673.0802,674.8617,1,1,1.2511,,0,82,82,21,1,REAL,FAKE,,,,,,,,,,,,,,,,,
,,,,,,,,,CKT2VZHG,spanish,13 or older,click here to respond,no,2025-07-23_06h48.38.514,empathy_intonation_perc,2024.2.4,Win32,58.82352941,605f61f6a2529d666698844b,687ed1b7e638a4cbf2f02089,6880bdd16d78a169880536e2,,,,,,,,,,,,,,1,,,,,,,,,,,,,,,,,,,,,,,,,,,,,,,,,,,,,,,,,,,,,,,,,,,,,,,,,45,jilguero,,,,,674.8621,678.7343,1,1,3.3546,,0,83,83,44,1,REAL,FAKE,,,,,,,,,,,,,,,,,
,,,,,,,,,CKT2VZHG,spanish,13 or older,click here to respond,no,2025-07-23_06h48.38.514,empathy_intonation_perc,2024.2.4,Win32,58.82352941,605f61f6a2529d666698844b,687ed1b7e638a4cbf2f02089,6880bdd16d78a169880536e2,,,,,,,,,,,,,,0,,,,,,,,,,,,,,,,,,,,,,,,,,,,,,,,,,,,,,,,,,,,,,,,,,,,,,,,,84,escuto,,,,,678.7361,680.8527,1,0,1.586,,0,84,84,83,1,REAL,FAKE,,,,,,,,,,,,,,,,,
,,,,,,,,,CKT2VZHG,spanish,13 or older,click here to respond,no,2025-07-23_06h48.38.514,empathy_intonation_perc,2024.2.4,Win32,58.82352941,605f61f6a2529d666698844b,687ed1b7e638a4cbf2f02089,6880bdd16d78a169880536e2,,,,,,,,,,,,,,1,,,,,,,,,,,,,,,,,,,,,,,,,,,,,,,,,,,,,,,,,,,,,,,,,,,,,,,,,54,fomentar,,,,,680.8543,682.3866,0,0,1.0014,,0,85,85,53,1,REAL,FAKE,,,,,,,,,,,,,,,,,
,,,,,,,,,CKT2VZHG,spanish,13 or older,click here to respond,no,2025-07-23_06h48.38.514,empathy_intonation_perc,2024.2.4,Win32,58.82352941,605f61f6a2529d666698844b,687ed1b7e638a4cbf2f02089,6880bdd16d78a169880536e2,,,,,,,,,,,,,,1,,,,,,,,,,,,,,,,,,,,,,,,,,,,,,,,,,,,,,,,,,,,,,,,,,,,,,,,,13,helar,,,,,682.3874,683.8723,1,1,0.952,,0,86,86,12,1,REAL,FAKE,,,,,,,,,,,,,,,,,
,,,,,,,,,CKT2VZHG,spanish,13 or older,click here to respond,no,2025-07-23_06h48.38.514,empathy_intonation_perc,2024.2.4,Win32,58.82352941,605f61f6a2529d666698844b,687ed1b7e638a4cbf2f02089,6880bdd16d78a169880536e2,,,,,,,,,,,,,,1,,,,,,,,,,,,,,,,,,,,,,,,,,,,,,,,,,,,,,,,,,,,,,,,,,,,,,,,,3,pulmones,,,,,683.8738,685.5901,0,0,1.1852,,0,87,87,2,1,REAL,FAKE,,,,,,,,,,,,,,,,,
,,,,,,,,,CKT2VZHG,spanish,13 or older,click here to respond,no,2025-07-23_06h48.38.514,empathy_intonation_perc,2024.2.4,Win32,58.82352941,605f61f6a2529d666698844b,687ed1b7e638a4cbf2f02089,6880bdd16d78a169880536e2,,,,,,,,,,,,,,0,,,,,,,,,,,,,,,,,,,,,,,,,,,,,,,,,,,,,,,,,,,,,,,,,,,,,,,,,1,terzo,,,,,685.5911,688.9445,1,0,2.8369,,0,88,88,0,1,REAL,FAKE,,,,,,,,,,,,,,,,,
,,,,,,,,,CKT2VZHG,spanish,13 or older,click here to respond,no,2025-07-23_06h48.38.514,empathy_intonation_perc,2024.2.4,Win32,58.82352941,605f61f6a2529d666698844b,687ed1b7e638a4cbf2f02089,6880bdd16d78a169880536e2,,,,,,,,,,,,,,1,,,,,,,,,,,,,,,,,,,,,,,,,,,,,,,,,,,,,,,,,,,,,,,,,,,,,,,,,69,engatusar,,,,,688.9464,691.2128,0,0,1.736,,0,89,89,68,1,REAL,FAKE,,,,,,,,,,,,,,,,,
,,,,,,,,,CKT2VZHG,spanish,13 or older,click here to respond,no,2025-07-23_06h48.38.514,empathy_intonation_perc,2024.2.4,Win32,58.82352941,605f61f6a2529d666698844b,687ed1b7e638a4cbf2f02089,6880bdd16d78a169880536e2,,,,,,,,,,,,,,1,,,,,,,,,,,,,,,,,,,,,,,,,,,,,,,,,,,,,,,,,,,,,,,,,,,,,,,,,20,ávido,,,,,691.2143,692.5634,1,1,0.8176,,0,90,90,19,1,REAL,FAKE,,,,,,,,,,,,,,,,,
,,,,,,,,,CKT2VZHG,spanish,13 or older,click here to respond,no,2025-07-23_06h48.38.514,empathy_intonation_perc,2024.2.4,Win32,58.82352941,605f61f6a2529d666698844b,687ed1b7e638a4cbf2f02089,6880bdd16d78a169880536e2,,,,,,,,,,,,,,1,,,,,,,,,,,,,,,,,,,,,,,,,,,,,,,,,,,,,,,,,,,,,,,,,,,,,,,,,31,pandilla,,,,,692.5644,694.2497,1,1,1.1692,,0,91,91,30,1,REAL,FAKE,,,,,,,,,,,,,,,,,
,,,,,,,,,CKT2VZHG,spanish,13 or older,click here to respond,no,2025-07-23_06h48.38.514,empathy_intonation_perc,2024.2.4,Win32,58.82352941,605f61f6a2529d666698844b,687ed1b7e638a4cbf2f02089,6880bdd16d78a169880536e2,,,,,,,,,,,,,,,,,,,,,,,,,,,,,,,,,,,,,,,,,,,,,,,,,,,,,,,,,,,,,,,,,,,,,,,,,,,,,,,,,,,,,,,,,,694.2505,707.196,,,,,,,,,,,,,,,
,,,,,,,,,CKT2VZHG,spanish,13 or older,click here to respond,no,2025-07-23_06h48.38.514,empathy_intonation_perc,2024.2.4,Win32,58.82352941,605f61f6a2529d666698844b,687ed1b7e638a4cbf2f02089,6880bdd16d78a169880536e2,,,,,,,,,,,,,1,,,,,,,,,,,,,,,,,,,,,,,,,,,,,,,,,,,,,,,,,,,,,,,,,,,,,,,,,,,,,,,,,,,,,,,,,,,,,,,707.2162,715.6283,slightly agree,0,0,0,0,1,I can easily tell if someone else wants to enter a conversation.,1,0,1,0,,
,,,,,,,,,CKT2VZHG,spanish,13 or older,click here to respond,no,2025-07-23_06h48.38.514,empathy_intonation_perc,2024.2.4,Win32,58.82352941,605f61f6a2529d666698844b,687ed1b7e638a4cbf2f02089,6880bdd16d78a169880536e2,,,,,,,,,,,,,2,,,,,,,,,,,,,,,,,,,,,,,,,,,,,,,,,,,,,,,,,,,,,,,,,,,,,,,,,,,,,,,,,,,,,,,,,,,,,,,715.6289,721.3281,strongly disagree,0,1,1,1,1,I prefer animals to humans.,0,1,0,0,,
,,,,,,,,,CKT2VZHG,spanish,13 or older,click here to respond,no,2025-07-23_06h48.38.514,empathy_intonation_perc,2024.2.4,Win32,58.82352941,605f61f6a2529d666698844b,687ed1b7e638a4cbf2f02089,6880bdd16d78a169880536e2,,,,,,,,,,,,,3,,,,,,,,,,,,,,,,,,,,,,,,,,,,,,,,,,,,,,,,,,,,,,,,,,,,,,,,,,,,,,,,,,,,,,,,,,,,,,,721.3292,726.3136,strongly agree,0,2,2,2,1,I try to keep up with the current trends and fashions.,0,1,0,0,,
,,,,,,,,,CKT2VZHG,spanish,13 or older,click here to respond,no,2025-07-23_06h48.38.514,empathy_intonation_perc,2024.2.4,Win32,58.82352941,605f61f6a2529d666698844b,687ed1b7e638a4cbf2f02089,6880bdd16d78a169880536e2,,,,,,,,,,,,,4,,,,,,,,,,,,,,,,,,,,,,,,,,,,,,,,,,,,,,,,,,,,,,,,,,,,,,,,,,,,,,,,,,,,,,,,,,,,,,,726.315,734.8555,strongly disagree,0,3,3,3,1,"I find it difficult to explain to others things that I understand easily,   when they don't understand it first time.",1,0,0,1,,
,,,,,,,,,CKT2VZHG,spanish,13 or older,click here to respond,no,2025-07-23_06h48.38.514,empathy_intonation_perc,2024.2.4,Win32,58.82352941,605f61f6a2529d666698844b,687ed1b7e638a4cbf2f02089,6880bdd16d78a169880536e2,,,,,,,,,,,,,5,,,,,,,,,,,,,,,,,,,,,,,,,,,,,,,,,,,,,,,,,,,,,,,,,,,,,,,,,,,,,,,,,,,,,,,,,,,,,,,734.856,744.8657,slightly disagree,0,4,4,4,1,I dream most nights.,0,1,0,0,,
,,,,,,,,,CKT2VZHG,spanish,13 or older,click here to respond,no,2025-07-23_06h48.38.514,empathy_intonation_perc,2024.2.4,Win32,58.82352941,605f61f6a2529d666698844b,687ed1b7e638a4cbf2f02089,6880bdd16d78a169880536e2,,,,,,,,,,,,,6,,,,,,,,,,,,,,,,,,,,,,,,,,,,,,,,,,,,,,,,,,,,,,,,,,,,,,,,,,,,,,,,,,,,,,,,,,,,,,,744.867,751.1052,slightly disagree,0,5,5,5,1,I really enjoy caring for other people.,1,0,1,0,,
,,,,,,,,,CKT2VZHG,spanish,13 or older,click here to respond,no,2025-07-23_06h48.38.514,empathy_intonation_perc,2024.2.4,Win32,58.82352941,605f61f6a2529d666698844b,687ed1b7e638a4cbf2f02089,6880bdd16d78a169880536e2,,,,,,,,,,,,,7,,,,,,,,,,,,,,,,,,,,,,,,,,,,,,,,,,,,,,,,,,,,,,,,,,,,,,,,,,,,,,,,,,,,,,,,,,,,,,,751.1064,754.9089,strongly agree,0,6,6,6,1,I try to solve my own problems rather than discussing them with others.,0,1,0,0,,
,,,,,,,,,CKT2VZHG,spanish,13 or older,click here to respond,no,2025-07-23_06h48.38.514,empathy_intonation_perc,2024.2.4,Win32,58.82352941,605f61f6a2529d666698844b,687ed1b7e638a4cbf2f02089,6880bdd16d78a169880536e2,,,,,,,,,,,,,8,,,,,,,,,,,,,,,,,,,,,,,,,,,,,,,,,,,,,,,,,,,,,,,,,,,,,,,,,,,,,,,,,,,,,,,,,,,,,,,754.9099,757.7623,strongly agree,0,7,7,7,1,I find it hard to know what to do in a social situation.,1,0,0,1,,
,,,,,,,,,CKT2VZHG,spanish,13 or older,click here to respond,no,2025-07-23_06h48.38.514,empathy_intonation_perc,2024.2.4,Win32,58.82352941,605f61f6a2529d666698844b,687ed1b7e638a4cbf2f02089,6880bdd16d78a169880536e2,,,,,,,,,,,,,9,,,,,,,,,,,,,,,,,,,,,,,,,,,,,,,,,,,,,,,,,,,,,,,,,,,,,,,,,,,,,,,,,,,,,,,,,,,,,,,757.7634,760.2645,strongly agree,0,8,8,8,1,I am at my best first thing in the morning.,0,1,0,0,,
,,,,,,,,,CKT2VZHG,spanish,13 or older,click here to respond,no,2025-07-23_06h48.38.514,empathy_intonation_perc,2024.2.4,Win32,58.82352941,605f61f6a2529d666698844b,687ed1b7e638a4cbf2f02089,6880bdd16d78a169880536e2,,,,,,,,,,,,,10,,,,,,,,,,,,,,,,,,,,,,,,,,,,,,,,,,,,,,,,,,,,,,,,,,,,,,,,,,,,,,,,,,,,,,,,,,,,,,,760.2656,764.8021,strongly disagree,0,9,9,9,1,People often tell me that I went too far in driving my point home in a discussion.,1,0,0,1,,
,,,,,,,,,CKT2VZHG,spanish,13 or older,click here to respond,no,2025-07-23_06h48.38.514,empathy_intonation_perc,2024.2.4,Win32,58.82352941,605f61f6a2529d666698844b,687ed1b7e638a4cbf2f02089,6880bdd16d78a169880536e2,,,,,,,,,,,,,11,,,,,,,,,,,,,,,,,,,,,,,,,,,,,,,,,,,,,,,,,,,,,,,,,,,,,,,,,,,,,,,,,,,,,,,,,,,,,,,764.8032,770.4078,slightly disagree,0,10,10,10,1,It doesn't bother me too much if I am late meeting a friend.,1,0,0,1,,
,,,,,,,,,CKT2VZHG,spanish,13 or older,click here to respond,no,2025-07-23_06h48.38.514,empathy_intonation_perc,2024.2.4,Win32,58.82352941,605f61f6a2529d666698844b,687ed1b7e638a4cbf2f02089,6880bdd16d78a169880536e2,,,,,,,,,,,,,12,,,,,,,,,,,,,,,,,,,,,,,,,,,,,,,,,,,,,,,,,,,,,,,,,,,,,,,,,,,,,,,,,,,,,,,,,,,,,,,770.4089,776.4471,slightly agree,0,11,11,11,1,"Friendships and relationships are just too difficult, so I tend not to 
  bother with them.",1,0,0,1,,
,,,,,,,,,CKT2VZHG,spanish,13 or older,click here to respond,no,2025-07-23_06h48.38.514,empathy_intonation_perc,2024.2.4,Win32,58.82352941,605f61f6a2529d666698844b,687ed1b7e638a4cbf2f02089,6880bdd16d78a169880536e2,,,,,,,,,,,,,13,,,,,,,,,,,,,,,,,,,,,,,,,,,,,,,,,,,,,,,,,,,,,,,,,,,,,,,,,,,,,,,,,,,,,,,,,,,,,,,776.4481,780.985,slightly agree,0,12,12,12,1,"I would never break a law, no matter how minor.",0,1,0,0,,
,,,,,,,,,CKT2VZHG,spanish,13 or older,click here to respond,no,2025-07-23_06h48.38.514,empathy_intonation_perc,2024.2.4,Win32,58.82352941,605f61f6a2529d666698844b,687ed1b7e638a4cbf2f02089,6880bdd16d78a169880536e2,,,,,,,,,,,,,14,,,,,,,,,,,,,,,,,,,,,,,,,,,,,,,,,,,,,,,,,,,,,,,,,,,,,,,,,,,,,,,,,,,,,,,,,,,,,,,780.9861,788.6759,slightly disagree,0,13,13,13,1,I often find it difficult to judge if something is rude or polite.,1,0,0,1,,
,,,,,,,,,CKT2VZHG,spanish,13 or older,click here to respond,no,2025-07-23_06h48.38.514,empathy_intonation_perc,2024.2.4,Win32,58.82352941,605f61f6a2529d666698844b,687ed1b7e638a4cbf2f02089,6880bdd16d78a169880536e2,,,,,,,,,,,,,15,,,,,,,,,,,,,,,,,,,,,,,,,,,,,,,,,,,,,,,,,,,,,,,,,,,,,,,,,,,,,,,,,,,,,,,,,,,,,,,788.6771,795.5328,slightly agree,0,14,14,14,1,"In a conversation, I tend to focus on my own thoughts rather than on what 
  my listener might be thinking.",1,0,0,1,,
,,,,,,,,,CKT2VZHG,spanish,13 or older,click here to respond,no,2025-07-23_06h48.38.514,empathy_intonation_perc,2024.2.4,Win32,58.82352941,605f61f6a2529d666698844b,687ed1b7e638a4cbf2f02089,6880bdd16d78a169880536e2,,,,,,,,,,,,,16,,,,,,,,,,,,,,,,,,,,,,,,,,,,,,,,,,,,,,,,,,,,,,,,,,,,,,,,,,,,,,,,,,,,,,,,,,,,,,,795.5339,799.8872,strongly disagree,0,15,15,15,1,I prefer practical jokes to verbal humor.,0,1,0,0,,
,,,,,,,,,CKT2VZHG,spanish,13 or older,click here to respond,no,2025-07-23_06h48.38.514,empathy_intonation_perc,2024.2.4,Win32,58.82352941,605f61f6a2529d666698844b,687ed1b7e638a4cbf2f02089,6880bdd16d78a169880536e2,,,,,,,,,,,,,17,,,,,,,,,,,,,,,,,,,,,,,,,,,,,,,,,,,,,,,,,,,,,,,,,,,,,,,,,,,,,,,,,,,,,,,,,,,,,,,799.888,804.6752,slightly disagree,0,16,16,16,1,I live life for today rather than the future.,0,1,0,0,,
,,,,,,,,,CKT2VZHG,spanish,13 or older,click here to respond,no,2025-07-23_06h48.38.514,empathy_intonation_perc,2024.2.4,Win32,58.82352941,605f61f6a2529d666698844b,687ed1b7e638a4cbf2f02089,6880bdd16d78a169880536e2,,,,,,,,,,,,,18,,,,,,,,,,,,,,,,,,,,,,,,,,,,,,,,,,,,,,,,,,,,,,,,,,,,,,,,,,,,,,,,,,,,,,,,,,,,,,,804.6767,808.7281,strongly disagree,0,17,17,17,1,"When I was a child, I enjoyed cutting up worms to see what would happen.",1,0,0,1,,
,,,,,,,,,CKT2VZHG,spanish,13 or older,click here to respond,no,2025-07-23_06h48.38.514,empathy_intonation_perc,2024.2.4,Win32,58.82352941,605f61f6a2529d666698844b,687ed1b7e638a4cbf2f02089,6880bdd16d78a169880536e2,,,,,,,,,,,,,19,,,,,,,,,,,,,,,,,,,,,,,,,,,,,,,,,,,,,,,,,,,,,,,,,,,,,,,,,,,,,,,,,,,,,,,,,,,,,,,808.7295,814.9448,slightly disagree,0,18,18,18,1,I can pick up quickly if someone says one thing but means another.,1,0,1,0,,
,,,,,,,,,CKT2VZHG,spanish,13 or older,click here to respond,no,2025-07-23_06h48.38.514,empathy_intonation_perc,2024.2.4,Win32,58.82352941,605f61f6a2529d666698844b,687ed1b7e638a4cbf2f02089,6880bdd16d78a169880536e2,,,,,,,,,,,,,20,,,,,,,,,,,,,,,,,,,,,,,,,,,,,,,,,,,,,,,,,,,,,,,,,,,,,,,,,,,,,,,,,,,,,,,,,,,,,,,814.9461,820.8947,strongly disagree,0,19,19,19,1,I tend to have very strong opinions about morality.,0,1,0,0,,
,,,,,,,,,CKT2VZHG,spanish,13 or older,click here to respond,no,2025-07-23_06h48.38.514,empathy_intonation_perc,2024.2.4,Win32,58.82352941,605f61f6a2529d666698844b,687ed1b7e638a4cbf2f02089,6880bdd16d78a169880536e2,,,,,,,,,,,,,21,,,,,,,,,,,,,,,,,,,,,,,,,,,,,,,,,,,,,,,,,,,,,,,,,,,,,,,,,,,,,,,,,,,,,,,,,,,,,,,820.8959,830.0339,strongly disagree,0,20,20,20,1,It is hard for me to see why some things upset people so much.,1,0,0,1,,
,,,,,,,,,CKT2VZHG,spanish,13 or older,click here to respond,no,2025-07-23_06h48.38.514,empathy_intonation_perc,2024.2.4,Win32,58.82352941,605f61f6a2529d666698844b,687ed1b7e638a4cbf2f02089,6880bdd16d78a169880536e2,,,,,,,,,,,,,22,,,,,,,,,,,,,,,,,,,,,,,,,,,,,,,,,,,,,,,,,,,,,,,,,,,,,,,,,,,,,,,,,,,,,,,,,,,,,,,830.0349,834.5711,strongly agree,0,21,21,21,1,I find it easy to put myself in somebody else's shoes.,1,0,1,0,,
