instructions_exposure.started,instructions_exposure.stopped,instructions_exposure_loop.thisRepN,instructions_exposure_loop.thisTrialN,instructions_exposure_loop.thisN,instructions_exposure_loop.thisIndex,instructions_exposure_loop.ran,instructions_text,continue_text,participant_id,"What variety of Spanish are you most familiar with? (e.g., Peruvian, Spanish, Mexican)",At what age did you begin learning Spanish?,Are you proficient in any languages other than English/Spanish?,"Are you familiar with Caribbean (e.g., Caribbean, Puerto Rican) or Galician Spanish?",date,expName,psychopyVersion,OS,frameRate,id,study_id,session,trial_exposure.started,trial_exposure.stopped,key_resp_exposure.keys,key_resp_exposure.corr,key_resp_exposure.rt,key_resp_exposure.duration,key_resp.keys,exposure_loop.thisRepN,exposure_loop.thisTrialN,exposure_loop.thisN,exposure_loop.thisIndex,exposure_loop.ran,item_num,correct_response,question,path,duration,instructions_2afc.started,instructions_2afc.stopped,instructions_2afc_loop.thisRepN,instructions_2afc_loop.thisTrialN,instructions_2afc_loop.thisN,instructions_2afc_loop.thisIndex,instructions_2afc_loop.ran,practice_2afc.started,practice_2afc.stopped,key_resp_2afc_practice.keys,key_resp_2afc_practice.corr,key_resp_2afc_practice.rt,key_resp_2afc_practice.duration,trials_2afc_practice_loop.thisRepN,trials_2afc_practice_loop.thisTrialN,trials_2afc_practice_loop.thisN,trials_2afc_practice_loop.thisIndex,trials_2afc_practice_loop.ran,check_2afc.started,check_2afc.stopped,trial_2afc.started,trial_2afc.stopped,key_resp_2afc_trial.keys,key_resp_2afc_trial.corr,key_resp_2afc_trial.rt,key_resp_2afc_trial.duration,trials_2afc_loop.thisRepN,trials_2afc_loop.thisTrialN,trials_2afc_loop.thisN,trials_2afc_loop.thisIndex,trials_2afc_loop.ran,target,variety,instructions_lextale.started,instructions_lextale.stopped,instructions_lextale_loop.thisRepN,instructions_lextale_loop.thisTrialN,instructions_lextale_loop.thisN,instructions_lextale_loop.thisIndex,instructions_lextale_loop.ran,practice_lextale.started,practice_lextale.stopped,key_resp_lextale_practice.keys,key_resp_lextale_practice.corr,key_resp_lextale_practice.rt,key_resp_lextale_practice.duration,practice_feedback_lextale.started,practice_feedback_lextale.stopped,trials_lextale_practice_loop.thisRepN,trials_lextale_practice_loop.thisTrialN,trials_lextale_practice_loop.thisN,trials_lextale_practice_loop.thisIndex,trials_lextale_practice_loop.ran,stim,word,prac_button_real,prac_button_false,check_lextale.started,check_lextale.stopped,trial_lextale.started,trial_lextale.stopped,key_resp_lextale_trial.keys,key_resp_lextale_trial.corr,key_resp_lextale_trial.rt,key_resp_lextale_trial.duration,trials_lextale_loop.thisRepN,trials_lextale_loop.thisTrialN,trials_lextale_loop.thisN,trials_lextale_loop.thisIndex,trials_lextale_loop.ran,button_real,button_false,instructions_eq.started,instructions_eq.stopped,trial_eq.started,trial_eq.stopped,slider_eq_trial.response,trials_eq_loop.thisRepN,trials_eq_loop.thisTrialN,trials_eq_loop.thisN,trials_eq_loop.thisIndex,trials_eq_loop.ran,item,is_test_item,is_distractor,is_agree_score,is_disagree_score,end_exp.started,end_exp.stopped
0.1472,3.4715,0,0,0,0,1,"In the following task, you are going to hear a series of conversations.", (press the space bar to continue),,spanish,younger than 13,"no, only English or Spanish",no,2025-07-22_20h49.05.745,empathy_intonation_perc,2024.2.4,Linux x86_64,59.88023952,662966f0b2169f8047af1345,687ed1b7e638a4cbf2f02089,6880313f08240a5654ef012f,,,,,,,,,,,,,,,,,,,,,,,,,,,,,,,,,,,,,,,,,,,,,,,,,,,,,,,,,,,,,,,,,,,,,,,,,,,,,,,,,,,,,,,,,,,,,,,,,,,,,,,,,,
3.4733,8.5336,0,1,1,1,1,It is okay if you don't not 100% understand them!, (press the space bar to continue),,spanish,younger than 13,"no, only English or Spanish",no,2025-07-22_20h49.05.745,empathy_intonation_perc,2024.2.4,Linux x86_64,59.88023952,662966f0b2169f8047af1345,687ed1b7e638a4cbf2f02089,6880313f08240a5654ef012f,,,,,,,,,,,,,,,,,,,,,,,,,,,,,,,,,,,,,,,,,,,,,,,,,,,,,,,,,,,,,,,,,,,,,,,,,,,,,,,,,,,,,,,,,,,,,,,,,,,,,,,,,,
8.5378,15.142,0,2,2,2,1,"After, you will read a sentence about the conversation and decide if it's true or false.", (press the space bar to continue),,spanish,younger than 13,"no, only English or Spanish",no,2025-07-22_20h49.05.745,empathy_intonation_perc,2024.2.4,Linux x86_64,59.88023952,662966f0b2169f8047af1345,687ed1b7e638a4cbf2f02089,6880313f08240a5654ef012f,,,,,,,,,,,,,,,,,,,,,,,,,,,,,,,,,,,,,,,,,,,,,,,,,,,,,,,,,,,,,,,,,,,,,,,,,,,,,,,,,,,,,,,,,,,,,,,,,,,,,,,,,,
15.1464,29.978,0,3,3,3,1,"If it's true, press '1' (True) and if it's false press '0' (False).", (press the space bar to continue),,spanish,younger than 13,"no, only English or Spanish",no,2025-07-22_20h49.05.745,empathy_intonation_perc,2024.2.4,Linux x86_64,59.88023952,662966f0b2169f8047af1345,687ed1b7e638a4cbf2f02089,6880313f08240a5654ef012f,,,,,,,,,,,,,,,,,,,,,,,,,,,,,,,,,,,,,,,,,,,,,,,,,,,,,,,,,,,,,,,,,,,,,,,,,,,,,,,,,,,,,,,,,,,,,,,,,,,,,,,,,,
,,,,,,,,,,spanish,younger than 13,"no, only English or Spanish",no,2025-07-22_20h49.05.745,empathy_intonation_perc,2024.2.4,Linux x86_64,59.88023952,662966f0b2169f8047af1345,687ed1b7e638a4cbf2f02089,6880313f08240a5654ef012f,29.9991,73.5538,0,1,7.5024,,,0,0,0,2,1,3,0,The mom already has rice.,./stim/exposure_wavs/pr_stimuli_convo.wav,36,,,,,,,,,,,,,,,,,,,,,,,,,,,,,,,,,,,,,,,,,,,,,,,,,,,,,,,,,,,,,,,,,,,,,,,,,,,,,,,,,,,,,,,,,
,,,,,,,,,,spanish,younger than 13,"no, only English or Spanish",no,2025-07-22_20h49.05.745,empathy_intonation_perc,2024.2.4,Linux x86_64,59.88023952,662966f0b2169f8047af1345,687ed1b7e638a4cbf2f02089,6880313f08240a5654ef012f,73.5596,142.02,1,1,8.4325,,,0,1,1,1,1,2,1,The mom asked the daughter if she already went to the supermarket.,./stim/exposure_wavs/dr_stimuli_convo.wav,60,,,,,,,,,,,,,,,,,,,,,,,,,,,,,,,,,,,,,,,,,,,,,,,,,,,,,,,,,,,,,,,,,,,,,,,,,,,,,,,,,,,,,,,,,
,,,,,,,,,,spanish,younger than 13,"no, only English or Spanish",no,2025-07-22_20h49.05.745,empathy_intonation_perc,2024.2.4,Linux x86_64,59.88023952,662966f0b2169f8047af1345,687ed1b7e638a4cbf2f02089,6880313f08240a5654ef012f,142.0247,193.4639,1,1,4.3867,,,0,2,2,0,1,1,1,The son asked the mom if Aunt Marina is okay.,./stim/exposure_wavs/ga_stimuli_convo.wav,47,,,,,,,,,,,,,,,,,,,,,,,,,,,,,,,,,,,,,,,,,,,,,,,,,,,,,,,,,,,,,,,,,,,,,,,,,,,,,,,,,,,,,,,,,
,,,,,,,"In the following task you are going to hear a series of utterances. 

  You will decide if the utterances sound like questions or not using your keyboard.", (press the spacebar to continue),,spanish,younger than 13,"no, only English or Spanish",no,2025-07-22_20h49.05.745,empathy_intonation_perc,2024.2.4,Linux x86_64,59.88023952,662966f0b2169f8047af1345,687ed1b7e638a4cbf2f02089,6880313f08240a5654ef012f,,,,,,,,,,,,,,,,,,193.4938,472.7308,0,0,0,0,1,,,,,,,,,,,,,,,,,,,,,,,,,,,,,,,,,,,,,,,,,,,,,,,,,,,,,,,,,,,,,,,,,,,,,,,,,,,,,,,,,,
,,,,,,,"If you believe the utterance is a question, type '1' (for 'yes') and if you do not 
  believe it is a question type '0' (for 'no').

  Let's practice a bit...", (press the spacebar to continue),,spanish,younger than 13,"no, only English or Spanish",no,2025-07-22_20h49.05.745,empathy_intonation_perc,2024.2.4,Linux x86_64,59.88023952,662966f0b2169f8047af1345,687ed1b7e638a4cbf2f02089,6880313f08240a5654ef012f,,,,,,,,,,,,,,,,,,472.738,478.6227,0,1,1,1,1,,,,,,,,,,,,,,,,,,,,,,,,,,,,,,,,,,,,,,,,,,,,,,,,,,,,,,,,,,,,,,,,,,,,,,,,,,,,,,,,,,
,,,,,,,,,,spanish,younger than 13,"no, only English or Spanish",no,2025-07-22_20h49.05.745,empathy_intonation_perc,2024.2.4,Linux x86_64,59.88023952,662966f0b2169f8047af1345,687ed1b7e638a4cbf2f02089,6880313f08240a5654ef012f,,,,,,,,,,,,,,0,,./stim/wavs/cuban_statement_filler_Cocinabas-por-la-noche.wav,,,,,,,,,478.6542,494.833,0,1,15.6523,,0,0,0,4,1,,,,,,,,,,,,,,,,,,,,,,,,,,,,,,,,,,,,,,,,,,,,,,,,,,,,,,,,,,,,,,,,,,,,,,,
,,,,,,,,,,spanish,younger than 13,"no, only English or Spanish",no,2025-07-22_20h49.05.745,empathy_intonation_perc,2024.2.4,Linux x86_64,59.88023952,662966f0b2169f8047af1345,687ed1b7e638a4cbf2f02089,6880313f08240a5654ef012f,,,,,,,,,,,,,,1,,./stim/wavs/argentine_question_filler_Mi-vecino-habla-mucho.wav,,,,,,,,,494.8351,498.5513,0,0,3.1817,,0,1,1,1,1,,,,,,,,,,,,,,,,,,,,,,,,,,,,,,,,,,,,,,,,,,,,,,,,,,,,,,,,,,,,,,,,,,,,,,,
,,,,,,,,,,spanish,younger than 13,"no, only English or Spanish",no,2025-07-22_20h49.05.745,empathy_intonation_perc,2024.2.4,Linux x86_64,59.88023952,662966f0b2169f8047af1345,687ed1b7e638a4cbf2f02089,6880313f08240a5654ef012f,,,,,,,,,,,,,,0,,./stim/wavs/puertorican_statement_filler_La-nina-pinta-con-su-amiga.wav,,,,,,,,,498.5524,501.9581,1,0,2.8763,,0,2,2,7,1,,,,,,,,,,,,,,,,,,,,,,,,,,,,,,,,,,,,,,,,,,,,,,,,,,,,,,,,,,,,,,,,,,,,,,,
,,,,,,,,,,spanish,younger than 13,"no, only English or Spanish",no,2025-07-22_20h49.05.745,empathy_intonation_perc,2024.2.4,Linux x86_64,59.88023952,662966f0b2169f8047af1345,687ed1b7e638a4cbf2f02089,6880313f08240a5654ef012f,,,,,,,,,,,,,,0,,./stim/wavs/andalusian_statement_filler_Alberto-nunca-se-afeita.wav,,,,,,,,,501.9597,504.8223,0,1,2.3287,,0,3,3,5,1,,,,,,,,,,,,,,,,,,,,,,,,,,,,,,,,,,,,,,,,,,,,,,,,,,,,,,,,,,,,,,,,,,,,,,,
,,,,,,,,,,spanish,younger than 13,"no, only English or Spanish",no,2025-07-22_20h49.05.745,empathy_intonation_perc,2024.2.4,Linux x86_64,59.88023952,662966f0b2169f8047af1345,687ed1b7e638a4cbf2f02089,6880313f08240a5654ef012f,,,,,,,,,,,,,,1,,./stim/wavs/castilian_question_filler_Mi-esposo-conoce-al-chico.wav,,,,,,,,,504.8237,510.0583,0,0,4.7071,,0,4,4,0,1,,,,,,,,,,,,,,,,,,,,,,,,,,,,,,,,,,,,,,,,,,,,,,,,,,,,,,,,,,,,,,,,,,,,,,,
,,,,,,,,,,spanish,younger than 13,"no, only English or Spanish",no,2025-07-22_20h49.05.745,empathy_intonation_perc,2024.2.4,Linux x86_64,59.88023952,662966f0b2169f8047af1345,687ed1b7e638a4cbf2f02089,6880313f08240a5654ef012f,,,,,,,,,,,,,,1,,./stim/wavs/mexican_question_filler_Felipe-no-tiene-contrasena.wav,,,,,,,,,510.0594,513.1001,0,0,2.5205,,0,5,5,3,1,,,,,,,,,,,,,,,,,,,,,,,,,,,,,,,,,,,,,,,,,,,,,,,,,,,,,,,,,,,,,,,,,,,,,,,
,,,,,,,,,,spanish,younger than 13,"no, only English or Spanish",no,2025-07-22_20h49.05.745,empathy_intonation_perc,2024.2.4,Linux x86_64,59.88023952,662966f0b2169f8047af1345,687ed1b7e638a4cbf2f02089,6880313f08240a5654ef012f,,,,,,,,,,,,,,1,,./stim/wavs/chilean_question_filler_Mi-padre-cantaba-bien.wav,,,,,,,,,513.1019,515.5166,1,1,1.8829,,0,6,6,2,1,,,,,,,,,,,,,,,,,,,,,,,,,,,,,,,,,,,,,,,,,,,,,,,,,,,,,,,,,,,,,,,,,,,,,,,
,,,,,,,,,,spanish,younger than 13,"no, only English or Spanish",no,2025-07-22_20h49.05.745,empathy_intonation_perc,2024.2.4,Linux x86_64,59.88023952,662966f0b2169f8047af1345,687ed1b7e638a4cbf2f02089,6880313f08240a5654ef012f,,,,,,,,,,,,,,0,,./stim/wavs/peruvian_statement_filler_El-nino-habla-con-su-madre.wav,,,,,,,,,515.5176,520.7227,0,1,4.674,,0,7,7,6,1,,,,,,,,,,,,,,,,,,,,,,,,,,,,,,,,,,,,,,,,,,,,,,,,,,,,,,,,,,,,,,,,,,,,,,,
,,,,,,,,,,spanish,younger than 13,"no, only English or Spanish",no,2025-07-22_20h49.05.745,empathy_intonation_perc,2024.2.4,Linux x86_64,59.88023952,662966f0b2169f8047af1345,687ed1b7e638a4cbf2f02089,6880313f08240a5654ef012f,,,,,,,,,,,,,,,,,,,,,,,,,,,,,,,,,,,,520.7234,525.2576,,,,,,,,,,,,,,,,,,,,,,,,,,,,,,,,,,,,,,,,,,,,,,,,,,,,,,,,,,,,,,,,,,,,,
,,,,,,,,,,spanish,younger than 13,"no, only English or Spanish",no,2025-07-22_20h49.05.745,empathy_intonation_perc,2024.2.4,Linux x86_64,59.88023952,662966f0b2169f8047af1345,687ed1b7e638a4cbf2f02089,6880313f08240a5654ef012f,,,,,,,,,,,,,22,1,,./stim/wavs/puertorican_match_interrogative-total-yn_Emilio-ama-la-marcha.wav,,,,,,,,,,,,,,,,,,,,,,525.2909,528.4206,0,0,2.598,,0,0,0,21,1,1,puertorican,,,,,,,,,,,,,,,,,,,,,,,,,,,,,,,,,,,,,,,,,,,,,,,,,,,,,,,,
,,,,,,,,,,spanish,younger than 13,"no, only English or Spanish",no,2025-07-22_20h49.05.745,empathy_intonation_perc,2024.2.4,Linux x86_64,59.88023952,662966f0b2169f8047af1345,687ed1b7e638a4cbf2f02089,6880313f08240a5654ef012f,,,,,,,,,,,,,57,0,,./stim/wavs/mexican_match_declarative-broad-focus_Ana-lleva-el-abrigo.wav,,,,,,,,,,,,,,,,,,,,,,528.4223,530.6799,0,1,1.7288,,0,1,1,56,1,0,mexican,,,,,,,,,,,,,,,,,,,,,,,,,,,,,,,,,,,,,,,,,,,,,,,,,,,,,,,,
,,,,,,,,,,spanish,younger than 13,"no, only English or Spanish",no,2025-07-22_20h49.05.745,empathy_intonation_perc,2024.2.4,Linux x86_64,59.88023952,662966f0b2169f8047af1345,687ed1b7e638a4cbf2f02089,6880313f08240a5654ef012f,,,,,,,,,,,,,73,0,,./stim/wavs/castilian_mismatch_declarative-broad-focus_Mi-tia-odia-la-lluvia.wav,,,,,,,,,,,,,,,,,,,,,,530.6809,532.9609,0,1,1.7465,,0,2,2,72,1,0,castilian,,,,,,,,,,,,,,,,,,,,,,,,,,,,,,,,,,,,,,,,,,,,,,,,,,,,,,,,
,,,,,,,,,,spanish,younger than 13,"no, only English or Spanish",no,2025-07-22_20h49.05.745,empathy_intonation_perc,2024.2.4,Linux x86_64,59.88023952,662966f0b2169f8047af1345,687ed1b7e638a4cbf2f02089,6880313f08240a5654ef012f,,,,,,,,,,,,,86,0,,./stim/wavs/puertorican_mismatch_declarative-broad-focus_El-nino-oye-el-rio.wav,,,,,,,,,,,,,,,,,,,,,,532.9621,535.33,0,1,1.8395,,0,3,3,85,1,0,puertorican,,,,,,,,,,,,,,,,,,,,,,,,,,,,,,,,,,,,,,,,,,,,,,,,,,,,,,,,
,,,,,,,,,,spanish,younger than 13,"no, only English or Spanish",no,2025-07-22_20h49.05.745,empathy_intonation_perc,2024.2.4,Linux x86_64,59.88023952,662966f0b2169f8047af1345,687ed1b7e638a4cbf2f02089,6880313f08240a5654ef012f,,,,,,,,,,,,,61,0,,./stim/wavs/mexican_match_declarative-broad-focus_Mariano-habla-del-tiempo.wav,,,,,,,,,,,,,,,,,,,,,,535.3316,537.645,0,1,1.7826,,0,4,4,60,1,0,mexican,,,,,,,,,,,,,,,,,,,,,,,,,,,,,,,,,,,,,,,,,,,,,,,,,,,,,,,,
,,,,,,,,,,spanish,younger than 13,"no, only English or Spanish",no,2025-07-22_20h49.05.745,empathy_intonation_perc,2024.2.4,Linux x86_64,59.88023952,662966f0b2169f8047af1345,687ed1b7e638a4cbf2f02089,6880313f08240a5654ef012f,,,,,,,,,,,,,1,1,,./stim/wavs/castilian_match_interrogative-total-yn_David-leia-el-libro.wav,,,,,,,,,,,,,,,,,,,,,,537.6463,540.1038,1,1,1.9369,,0,5,5,0,1,0,castilian,,,,,,,,,,,,,,,,,,,,,,,,,,,,,,,,,,,,,,,,,,,,,,,,,,,,,,,,
,,,,,,,,,,spanish,younger than 13,"no, only English or Spanish",no,2025-07-22_20h49.05.745,empathy_intonation_perc,2024.2.4,Linux x86_64,59.88023952,662966f0b2169f8047af1345,687ed1b7e638a4cbf2f02089,6880313f08240a5654ef012f,,,,,,,,,,,,,58,0,,./stim/wavs/mexican_match_declarative-broad-focus_Daniel-iba-a-Bolivia.wav,,,,,,,,,,,,,,,,,,,,,,540.1048,542.5846,1,0,1.9527,,0,6,6,57,1,0,mexican,,,,,,,,,,,,,,,,,,,,,,,,,,,,,,,,,,,,,,,,,,,,,,,,,,,,,,,,
,,,,,,,,,,spanish,younger than 13,"no, only English or Spanish",no,2025-07-22_20h49.05.745,empathy_intonation_perc,2024.2.4,Linux x86_64,59.88023952,662966f0b2169f8047af1345,687ed1b7e638a4cbf2f02089,6880313f08240a5654ef012f,,,,,,,,,,,,,18,1,,./stim/wavs/mexican_match_interrogative-total-yn_Marta-abre-el-regalo.wav,,,,,,,,,,,,,,,,,,,,,,542.5863,545.2656,1,1,2.1496,,0,7,7,17,1,0,mexican,,,,,,,,,,,,,,,,,,,,,,,,,,,,,,,,,,,,,,,,,,,,,,,,,,,,,,,,
,,,,,,,,,,spanish,younger than 13,"no, only English or Spanish",no,2025-07-22_20h49.05.745,empathy_intonation_perc,2024.2.4,Linux x86_64,59.88023952,662966f0b2169f8047af1345,687ed1b7e638a4cbf2f02089,6880313f08240a5654ef012f,,,,,,,,,,,,,74,0,,./stim/wavs/cuban_mismatch_declarative-broad-focus_El-bebe-comia-muy-bien.wav,,,,,,,,,,,,,,,,,,,,,,545.2667,547.8689,0,1,2.0697,,0,8,8,73,1,0,cuban,,,,,,,,,,,,,,,,,,,,,,,,,,,,,,,,,,,,,,,,,,,,,,,,,,,,,,,,
,,,,,,,,,,spanish,younger than 13,"no, only English or Spanish",no,2025-07-22_20h49.05.745,empathy_intonation_perc,2024.2.4,Linux x86_64,59.88023952,662966f0b2169f8047af1345,687ed1b7e638a4cbf2f02089,6880313f08240a5654ef012f,,,,,,,,,,,,,40,1,,./stim/wavs/puertorican_mismatch_interrogative-total-yn_El-hombre-mira-la-luna.wav,,,,,,,,,,,,,,,,,,,,,,547.8701,551.3091,0,0,2.9117,,0,9,9,39,1,1,puertorican,,,,,,,,,,,,,,,,,,,,,,,,,,,,,,,,,,,,,,,,,,,,,,,,,,,,,,,,
,,,,,,,,,,spanish,younger than 13,"no, only English or Spanish",no,2025-07-22_20h49.05.745,empathy_intonation_perc,2024.2.4,Linux x86_64,59.88023952,662966f0b2169f8047af1345,687ed1b7e638a4cbf2f02089,6880313f08240a5654ef012f,,,,,,,,,,,,,41,1,,./stim/wavs/puertorican_mismatch_interrogative-total-yn_El-nino-oye-el-rio.wav,,,,,,,,,,,,,,,,,,,,,,551.3103,554.6059,0,0,2.7615,,0,10,10,40,1,1,puertorican,,,,,,,,,,,,,,,,,,,,,,,,,,,,,,,,,,,,,,,,,,,,,,,,,,,,,,,,
,,,,,,,,,,spanish,younger than 13,"no, only English or Spanish",no,2025-07-22_20h49.05.745,empathy_intonation_perc,2024.2.4,Linux x86_64,59.88023952,662966f0b2169f8047af1345,687ed1b7e638a4cbf2f02089,6880313f08240a5654ef012f,,,,,,,,,,,,,59,0,,./stim/wavs/mexican_match_declarative-broad-focus_David-leia-el-libro.wav,,,,,,,,,,,,,,,,,,,,,,554.6079,558.0383,0,1,2.9016,,0,11,11,58,1,0,mexican,,,,,,,,,,,,,,,,,,,,,,,,,,,,,,,,,,,,,,,,,,,,,,,,,,,,,,,,
,,,,,,,,,,spanish,younger than 13,"no, only English or Spanish",no,2025-07-22_20h49.05.745,empathy_intonation_perc,2024.2.4,Linux x86_64,59.88023952,662966f0b2169f8047af1345,687ed1b7e638a4cbf2f02089,6880313f08240a5654ef012f,,,,,,,,,,,,,16,1,,./stim/wavs/mexican_match_interrogative-total-yn_Emilio-ama-la-marcha.wav,,,,,,,,,,,,,,,,,,,,,,558.0397,560.8668,1,1,2.2978,,0,12,12,15,1,0,mexican,,,,,,,,,,,,,,,,,,,,,,,,,,,,,,,,,,,,,,,,,,,,,,,,,,,,,,,,
,,,,,,,,,,spanish,younger than 13,"no, only English or Spanish",no,2025-07-22_20h49.05.745,empathy_intonation_perc,2024.2.4,Linux x86_64,59.88023952,662966f0b2169f8047af1345,687ed1b7e638a4cbf2f02089,6880313f08240a5654ef012f,,,,,,,,,,,,,29,1,,./stim/wavs/castilian_mismatch_interrogative-total-yn_Mi-tia-odia-la-lluvia.wav,,,,,,,,,,,,,,,,,,,,,,560.8685,563.3502,1,1,1.9639,,0,13,13,28,1,0,castilian,,,,,,,,,,,,,,,,,,,,,,,,,,,,,,,,,,,,,,,,,,,,,,,,,,,,,,,,
,,,,,,,,,,spanish,younger than 13,"no, only English or Spanish",no,2025-07-22_20h49.05.745,empathy_intonation_perc,2024.2.4,Linux x86_64,59.88023952,662966f0b2169f8047af1345,687ed1b7e638a4cbf2f02089,6880313f08240a5654ef012f,,,,,,,,,,,,,82,0,,./stim/wavs/mexican_mismatch_declarative-broad-focus_Mi-novio-viene-del-lago.wav,,,,,,,,,,,,,,,,,,,,,,563.3516,565.9458,0,1,2.0744,,0,14,14,81,1,0,mexican,,,,,,,,,,,,,,,,,,,,,,,,,,,,,,,,,,,,,,,,,,,,,,,,,,,,,,,,
,,,,,,,,,,spanish,younger than 13,"no, only English or Spanish",no,2025-07-22_20h49.05.745,empathy_intonation_perc,2024.2.4,Linux x86_64,59.88023952,662966f0b2169f8047af1345,687ed1b7e638a4cbf2f02089,6880313f08240a5654ef012f,,,,,,,,,,,,,80,0,,./stim/wavs/mexican_mismatch_declarative-broad-focus_El-hombre-mira-la-luna.wav,,,,,,,,,,,,,,,,,,,,,,565.9482,568.493,0,1,2.0148,,0,15,15,79,1,0,mexican,,,,,,,,,,,,,,,,,,,,,,,,,,,,,,,,,,,,,,,,,,,,,,,,,,,,,,,,
,,,,,,,,,,spanish,younger than 13,"no, only English or Spanish",no,2025-07-22_20h49.05.745,empathy_intonation_perc,2024.2.4,Linux x86_64,59.88023952,662966f0b2169f8047af1345,687ed1b7e638a4cbf2f02089,6880313f08240a5654ef012f,,,,,,,,,,,,,52,0,,./stim/wavs/cuban_match_declarative-broad-focus_Daniel-iba-a-Bolivia.wav,,,,,,,,,,,,,,,,,,,,,,568.494,571.5391,0,1,2.5239,,0,16,16,51,1,0,cuban,,,,,,,,,,,,,,,,,,,,,,,,,,,,,,,,,,,,,,,,,,,,,,,,,,,,,,,,
,,,,,,,,,,spanish,younger than 13,"no, only English or Spanish",no,2025-07-22_20h49.05.745,empathy_intonation_perc,2024.2.4,Linux x86_64,59.88023952,662966f0b2169f8047af1345,687ed1b7e638a4cbf2f02089,6880313f08240a5654ef012f,,,,,,,,,,,,,39,1,,./stim/wavs/mexican_mismatch_interrogative-total-yn_Mi-tia-odia-la-lluvia.wav,,,,,,,,,,,,,,,,,,,,,,571.5402,573.7706,1,1,1.7008,,0,17,17,38,1,0,mexican,,,,,,,,,,,,,,,,,,,,,,,,,,,,,,,,,,,,,,,,,,,,,,,,,,,,,,,,
,,,,,,,,,,spanish,younger than 13,"no, only English or Spanish",no,2025-07-22_20h49.05.745,empathy_intonation_perc,2024.2.4,Linux x86_64,59.88023952,662966f0b2169f8047af1345,687ed1b7e638a4cbf2f02089,6880313f08240a5654ef012f,,,,,,,,,,,,,13,1,,./stim/wavs/mexican_match_interrogative-total-yn_Ana-lleva-el-abrigo.wav,,,,,,,,,,,,,,,,,,,,,,573.7725,575.9851,1,1,1.6861,,0,18,18,12,1,0,mexican,,,,,,,,,,,,,,,,,,,,,,,,,,,,,,,,,,,,,,,,,,,,,,,,,,,,,,,,
,,,,,,,,,,spanish,younger than 13,"no, only English or Spanish",no,2025-07-22_20h49.05.745,empathy_intonation_perc,2024.2.4,Linux x86_64,59.88023952,662966f0b2169f8047af1345,687ed1b7e638a4cbf2f02089,6880313f08240a5654ef012f,,,,,,,,,,,,,66,0,,./stim/wavs/puertorican_match_declarative-broad-focus_Emilio-ama-la-marcha.wav,,,,,,,,,,,,,,,,,,,,,,575.9865,578.5673,0,1,2.0474,,0,19,19,65,1,0,puertorican,,,,,,,,,,,,,,,,,,,,,,,,,,,,,,,,,,,,,,,,,,,,,,,,,,,,,,,,
,,,,,,,,,,spanish,younger than 13,"no, only English or Spanish",no,2025-07-22_20h49.05.745,empathy_intonation_perc,2024.2.4,Linux x86_64,59.88023952,662966f0b2169f8047af1345,687ed1b7e638a4cbf2f02089,6880313f08240a5654ef012f,,,,,,,,,,,,,6,1,,./stim/wavs/castilian_match_interrogative-total-yn_Marta-abre-el-regalo.wav,,,,,,,,,,,,,,,,,,,,,,578.5684,581.4299,1,1,2.3364,,0,20,20,5,1,0,castilian,,,,,,,,,,,,,,,,,,,,,,,,,,,,,,,,,,,,,,,,,,,,,,,,,,,,,,,,
,,,,,,,,,,spanish,younger than 13,"no, only English or Spanish",no,2025-07-22_20h49.05.745,empathy_intonation_perc,2024.2.4,Linux x86_64,59.88023952,662966f0b2169f8047af1345,687ed1b7e638a4cbf2f02089,6880313f08240a5654ef012f,,,,,,,,,,,,,75,0,,./stim/wavs/cuban_mismatch_declarative-broad-focus_El-hombre-mira-la-luna.wav,,,,,,,,,,,,,,,,,,,,,,581.4309,584.6261,1,0,2.674,,0,21,21,74,1,0,cuban,,,,,,,,,,,,,,,,,,,,,,,,,,,,,,,,,,,,,,,,,,,,,,,,,,,,,,,,
,,,,,,,,,,spanish,younger than 13,"no, only English or Spanish",no,2025-07-22_20h49.05.745,empathy_intonation_perc,2024.2.4,Linux x86_64,59.88023952,662966f0b2169f8047af1345,687ed1b7e638a4cbf2f02089,6880313f08240a5654ef012f,,,,,,,,,,,,,8,1,,./stim/wavs/cuban_match_interrogative-total-yn_Daniel-iba-a-Bolivia.wav,,,,,,,,,,,,,,,,,,,,,,584.6271,588.0899,0,0,2.9312,,0,22,22,7,1,1,cuban,,,,,,,,,,,,,,,,,,,,,,,,,,,,,,,,,,,,,,,,,,,,,,,,,,,,,,,,
,,,,,,,,,,spanish,younger than 13,"no, only English or Spanish",no,2025-07-22_20h49.05.745,empathy_intonation_perc,2024.2.4,Linux x86_64,59.88023952,662966f0b2169f8047af1345,687ed1b7e638a4cbf2f02089,6880313f08240a5654ef012f,,,,,,,,,,,,,30,1,,./stim/wavs/cuban_mismatch_interrogative-total-yn_El-hombre-mira-la-luna.wav,,,,,,,,,,,,,,,,,,,,,,588.0909,590.8385,1,1,2.2144,,0,23,23,29,1,1,cuban,,,,,,,,,,,,,,,,,,,,,,,,,,,,,,,,,,,,,,,,,,,,,,,,,,,,,,,,
,,,,,,,,,,spanish,younger than 13,"no, only English or Spanish",no,2025-07-22_20h49.05.745,empathy_intonation_perc,2024.2.4,Linux x86_64,59.88023952,662966f0b2169f8047af1345,687ed1b7e638a4cbf2f02089,6880313f08240a5654ef012f,,,,,,,,,,,,,5,1,,./stim/wavs/castilian_match_interrogative-total-yn_Mariano-habla-del-tiempo.wav,,,,,,,,,,,,,,,,,,,,,,590.8398,595.2672,0,0,3.8982,,0,24,24,4,1,0,castilian,,,,,,,,,,,,,,,,,,,,,,,,,,,,,,,,,,,,,,,,,,,,,,,,,,,,,,,,
,,,,,,,,,,spanish,younger than 13,"no, only English or Spanish",no,2025-07-22_20h49.05.745,empathy_intonation_perc,2024.2.4,Linux x86_64,59.88023952,662966f0b2169f8047af1345,687ed1b7e638a4cbf2f02089,6880313f08240a5654ef012f,,,,,,,,,,,,,46,0,,./stim/wavs/castilian_match_declarative-broad-focus_Emilio-ama-la-marcha.wav,,,,,,,,,,,,,,,,,,,,,,595.2688,597.8466,0,1,2.0384,,0,25,25,45,1,0,castilian,,,,,,,,,,,,,,,,,,,,,,,,,,,,,,,,,,,,,,,,,,,,,,,,,,,,,,,,
,,,,,,,,,,spanish,younger than 13,"no, only English or Spanish",no,2025-07-22_20h49.05.745,empathy_intonation_perc,2024.2.4,Linux x86_64,59.88023952,662966f0b2169f8047af1345,687ed1b7e638a4cbf2f02089,6880313f08240a5654ef012f,,,,,,,,,,,,,45,0,,./stim/wavs/castilian_match_declarative-broad-focus_David-leia-el-libro.wav,,,,,,,,,,,,,,,,,,,,,,597.848,600.5107,1,0,2.1414,,0,26,26,44,1,0,castilian,,,,,,,,,,,,,,,,,,,,,,,,,,,,,,,,,,,,,,,,,,,,,,,,,,,,,,,,
,,,,,,,,,,spanish,younger than 13,"no, only English or Spanish",no,2025-07-22_20h49.05.745,empathy_intonation_perc,2024.2.4,Linux x86_64,59.88023952,662966f0b2169f8047af1345,687ed1b7e638a4cbf2f02089,6880313f08240a5654ef012f,,,,,,,,,,,,,2,1,,./stim/wavs/castilian_match_interrogative-total-yn_Emilio-ama-la-marcha.wav,,,,,,,,,,,,,,,,,,,,,,600.5118,603.0083,1,1,1.9617,,0,27,27,1,1,0,castilian,,,,,,,,,,,,,,,,,,,,,,,,,,,,,,,,,,,,,,,,,,,,,,,,,,,,,,,,
,,,,,,,,,,spanish,younger than 13,"no, only English or Spanish",no,2025-07-22_20h49.05.745,empathy_intonation_perc,2024.2.4,Linux x86_64,59.88023952,662966f0b2169f8047af1345,687ed1b7e638a4cbf2f02089,6880313f08240a5654ef012f,,,,,,,,,,,,,51,0,,./stim/wavs/cuban_match_declarative-broad-focus_Ana-lleva-el-abrigo.wav,,,,,,,,,,,,,,,,,,,,,,603.0104,605.4061,0,1,1.8658,,0,28,28,50,1,0,cuban,,,,,,,,,,,,,,,,,,,,,,,,,,,,,,,,,,,,,,,,,,,,,,,,,,,,,,,,
,,,,,,,,,,spanish,younger than 13,"no, only English or Spanish",no,2025-07-22_20h49.05.745,empathy_intonation_perc,2024.2.4,Linux x86_64,59.88023952,662966f0b2169f8047af1345,687ed1b7e638a4cbf2f02089,6880313f08240a5654ef012f,,,,,,,,,,,,,44,1,,./stim/wavs/puertorican_mismatch_interrogative-total-yn_Mi-madre-come-la-fruta.wav,,,,,,,,,,,,,,,,,,,,,,605.4071,608.1196,0,0,2.1807,,0,29,29,43,1,1,puertorican,,,,,,,,,,,,,,,,,,,,,,,,,,,,,,,,,,,,,,,,,,,,,,,,,,,,,,,,
,,,,,,,,,,spanish,younger than 13,"no, only English or Spanish",no,2025-07-22_20h49.05.745,empathy_intonation_perc,2024.2.4,Linux x86_64,59.88023952,662966f0b2169f8047af1345,687ed1b7e638a4cbf2f02089,6880313f08240a5654ef012f,,,,,,,,,,,,,35,1,,./stim/wavs/mexican_mismatch_interrogative-total-yn_El-hombre-mira-la-luna.wav,,,,,,,,,,,,,,,,,,,,,,608.1215,610.5012,1,1,1.8431,,0,30,30,34,1,0,mexican,,,,,,,,,,,,,,,,,,,,,,,,,,,,,,,,,,,,,,,,,,,,,,,,,,,,,,,,
,,,,,,,,,,spanish,younger than 13,"no, only English or Spanish",no,2025-07-22_20h49.05.745,empathy_intonation_perc,2024.2.4,Linux x86_64,59.88023952,662966f0b2169f8047af1345,687ed1b7e638a4cbf2f02089,6880313f08240a5654ef012f,,,,,,,,,,,,,63,0,,./stim/wavs/puertorican_match_declarative-broad-focus_Ana-lleva-el-abrigo.wav,,,,,,,,,,,,,,,,,,,,,,610.5026,612.6321,0,1,1.6021,,0,31,31,62,1,0,puertorican,,,,,,,,,,,,,,,,,,,,,,,,,,,,,,,,,,,,,,,,,,,,,,,,,,,,,,,,
,,,,,,,,,,spanish,younger than 13,"no, only English or Spanish",no,2025-07-22_20h49.05.745,empathy_intonation_perc,2024.2.4,Linux x86_64,59.88023952,662966f0b2169f8047af1345,687ed1b7e638a4cbf2f02089,6880313f08240a5654ef012f,,,,,,,,,,,,,83,0,,./stim/wavs/mexican_mismatch_declarative-broad-focus_Mi-tia-odia-la-lluvia.wav,,,,,,,,,,,,,,,,,,,,,,612.6336,614.7498,0,1,1.5852,,0,32,32,82,1,0,mexican,,,,,,,,,,,,,,,,,,,,,,,,,,,,,,,,,,,,,,,,,,,,,,,,,,,,,,,,
,,,,,,,,,,spanish,younger than 13,"no, only English or Spanish",no,2025-07-22_20h49.05.745,empathy_intonation_perc,2024.2.4,Linux x86_64,59.88023952,662966f0b2169f8047af1345,687ed1b7e638a4cbf2f02089,6880313f08240a5654ef012f,,,,,,,,,,,,,77,0,,./stim/wavs/cuban_mismatch_declarative-broad-focus_Mi-novio-viene-del-lago.wav,,,,,,,,,,,,,,,,,,,,,,614.751,616.9123,0,1,1.6362,,0,33,33,76,1,0,cuban,,,,,,,,,,,,,,,,,,,,,,,,,,,,,,,,,,,,,,,,,,,,,,,,,,,,,,,,
,,,,,,,,,,spanish,younger than 13,"no, only English or Spanish",no,2025-07-22_20h49.05.745,empathy_intonation_perc,2024.2.4,Linux x86_64,59.88023952,662966f0b2169f8047af1345,687ed1b7e638a4cbf2f02089,6880313f08240a5654ef012f,,,,,,,,,,,,,11,1,,./stim/wavs/cuban_match_interrogative-total-yn_Mariano-habla-del-tiempo.wav,,,,,,,,,,,,,,,,,,,,,,616.9133,619.3456,0,0,1.9086,,0,34,34,10,1,1,cuban,,,,,,,,,,,,,,,,,,,,,,,,,,,,,,,,,,,,,,,,,,,,,,,,,,,,,,,,
,,,,,,,,,,spanish,younger than 13,"no, only English or Spanish",no,2025-07-22_20h49.05.745,empathy_intonation_perc,2024.2.4,Linux x86_64,59.88023952,662966f0b2169f8047af1345,687ed1b7e638a4cbf2f02089,6880313f08240a5654ef012f,,,,,,,,,,,,,31,1,,./stim/wavs/cuban_mismatch_interrogative-total-yn_El-nino-oye-el-rio.wav,,,,,,,,,,,,,,,,,,,,,,619.3468,621.2079,1,1,1.3344,,0,35,35,30,1,1,cuban,,,,,,,,,,,,,,,,,,,,,,,,,,,,,,,,,,,,,,,,,,,,,,,,,,,,,,,,
,,,,,,,,,,spanish,younger than 13,"no, only English or Spanish",no,2025-07-22_20h49.05.745,empathy_intonation_perc,2024.2.4,Linux x86_64,59.88023952,662966f0b2169f8047af1345,687ed1b7e638a4cbf2f02089,6880313f08240a5654ef012f,,,,,,,,,,,,,33,1,,./stim/wavs/cuban_mismatch_interrogative-total-yn_Mi-novio-viene-del-lago.wav,,,,,,,,,,,,,,,,,,,,,,621.2096,623.74,1,1,2.0001,,0,36,36,32,1,1,cuban,,,,,,,,,,,,,,,,,,,,,,,,,,,,,,,,,,,,,,,,,,,,,,,,,,,,,,,,
,,,,,,,,,,spanish,younger than 13,"no, only English or Spanish",no,2025-07-22_20h49.05.745,empathy_intonation_perc,2024.2.4,Linux x86_64,59.88023952,662966f0b2169f8047af1345,687ed1b7e638a4cbf2f02089,6880313f08240a5654ef012f,,,,,,,,,,,,,81,0,,./stim/wavs/mexican_mismatch_declarative-broad-focus_La-maestra-vive-en-Paris.wav,,,,,,,,,,,,,,,,,,,,,,623.7409,625.8688,0,1,1.5979,,0,37,37,80,1,0,mexican,,,,,,,,,,,,,,,,,,,,,,,,,,,,,,,,,,,,,,,,,,,,,,,,,,,,,,,,
,,,,,,,,,,spanish,younger than 13,"no, only English or Spanish",no,2025-07-22_20h49.05.745,empathy_intonation_perc,2024.2.4,Linux x86_64,59.88023952,662966f0b2169f8047af1345,687ed1b7e638a4cbf2f02089,6880313f08240a5654ef012f,,,,,,,,,,,,,20,1,,./stim/wavs/puertorican_match_interrogative-total-yn_Daniel-iba-a-Bolivia.wav,,,,,,,,,,,,,,,,,,,,,,625.8702,628.652,0,0,2.2556,,0,38,38,19,1,1,puertorican,,,,,,,,,,,,,,,,,,,,,,,,,,,,,,,,,,,,,,,,,,,,,,,,,,,,,,,,
,,,,,,,,,,spanish,younger than 13,"no, only English or Spanish",no,2025-07-22_20h49.05.745,empathy_intonation_perc,2024.2.4,Linux x86_64,59.88023952,662966f0b2169f8047af1345,687ed1b7e638a4cbf2f02089,6880313f08240a5654ef012f,,,,,,,,,,,,,37,1,,./stim/wavs/mexican_mismatch_interrogative-total-yn_La-maestra-vive-en-Paris.wav,,,,,,,,,,,,,,,,,,,,,,628.6533,631.8963,1,1,2.7097,,0,39,39,36,1,0,mexican,,,,,,,,,,,,,,,,,,,,,,,,,,,,,,,,,,,,,,,,,,,,,,,,,,,,,,,,
,,,,,,,,,,spanish,younger than 13,"no, only English or Spanish",no,2025-07-22_20h49.05.745,empathy_intonation_perc,2024.2.4,Linux x86_64,59.88023952,662966f0b2169f8047af1345,687ed1b7e638a4cbf2f02089,6880313f08240a5654ef012f,,,,,,,,,,,,,26,1,,./stim/wavs/castilian_mismatch_interrogative-total-yn_La-nina-lava-el-plato.wav,,,,,,,,,,,,,,,,,,,,,,631.8978,634.2135,1,1,1.7885,,0,40,40,25,1,0,castilian,,,,,,,,,,,,,,,,,,,,,,,,,,,,,,,,,,,,,,,,,,,,,,,,,,,,,,,,
,,,,,,,,,,spanish,younger than 13,"no, only English or Spanish",no,2025-07-22_20h49.05.745,empathy_intonation_perc,2024.2.4,Linux x86_64,59.88023952,662966f0b2169f8047af1345,687ed1b7e638a4cbf2f02089,6880313f08240a5654ef012f,,,,,,,,,,,,,48,0,,./stim/wavs/castilian_match_declarative-broad-focus_Maria-bebe-el-vino.wav,,,,,,,,,,,,,,,,,,,,,,634.2146,636.9772,0,1,2.2377,,0,41,41,47,1,0,castilian,,,,,,,,,,,,,,,,,,,,,,,,,,,,,,,,,,,,,,,,,,,,,,,,,,,,,,,,
,,,,,,,,,,spanish,younger than 13,"no, only English or Spanish",no,2025-07-22_20h49.05.745,empathy_intonation_perc,2024.2.4,Linux x86_64,59.88023952,662966f0b2169f8047af1345,687ed1b7e638a4cbf2f02089,6880313f08240a5654ef012f,,,,,,,,,,,,,54,0,,./stim/wavs/cuban_match_declarative-broad-focus_Maria-bebe-el-vino.wav,,,,,,,,,,,,,,,,,,,,,,636.9783,638.9597,0,1,1.4579,,0,42,42,53,1,0,cuban,,,,,,,,,,,,,,,,,,,,,,,,,,,,,,,,,,,,,,,,,,,,,,,,,,,,,,,,
,,,,,,,,,,spanish,younger than 13,"no, only English or Spanish",no,2025-07-22_20h49.05.745,empathy_intonation_perc,2024.2.4,Linux x86_64,59.88023952,662966f0b2169f8047af1345,687ed1b7e638a4cbf2f02089,6880313f08240a5654ef012f,,,,,,,,,,,,,68,0,,./stim/wavs/puertorican_match_declarative-broad-focus_Maria-bebe-el-vino.wav,,,,,,,,,,,,,,,,,,,,,,638.9608,641.2868,0,1,1.7992,,0,43,43,67,1,0,puertorican,,,,,,,,,,,,,,,,,,,,,,,,,,,,,,,,,,,,,,,,,,,,,,,,,,,,,,,,
,,,,,,,,,,spanish,younger than 13,"no, only English or Spanish",no,2025-07-22_20h49.05.745,empathy_intonation_perc,2024.2.4,Linux x86_64,59.88023952,662966f0b2169f8047af1345,687ed1b7e638a4cbf2f02089,6880313f08240a5654ef012f,,,,,,,,,,,,,17,1,,./stim/wavs/mexican_match_interrogative-total-yn_Mariano-habla-del-tiempo.wav,,,,,,,,,,,,,,,,,,,,,,641.288,644.4227,0,0,2.6052,,0,44,44,16,1,0,mexican,,,,,,,,,,,,,,,,,,,,,,,,,,,,,,,,,,,,,,,,,,,,,,,,,,,,,,,,
,,,,,,,,,,spanish,younger than 13,"no, only English or Spanish",no,2025-07-22_20h49.05.745,empathy_intonation_perc,2024.2.4,Linux x86_64,59.88023952,662966f0b2169f8047af1345,687ed1b7e638a4cbf2f02089,6880313f08240a5654ef012f,,,,,,,,,,,,,14,1,,./stim/wavs/mexican_match_interrogative-total-yn_Daniel-iba-a-Bolivia.wav,,,,,,,,,,,,,,,,,,,,,,644.4237,646.6329,1,1,1.6877,,0,45,45,13,1,0,mexican,,,,,,,,,,,,,,,,,,,,,,,,,,,,,,,,,,,,,,,,,,,,,,,,,,,,,,,,
,,,,,,,,,,spanish,younger than 13,"no, only English or Spanish",no,2025-07-22_20h49.05.745,empathy_intonation_perc,2024.2.4,Linux x86_64,59.88023952,662966f0b2169f8047af1345,687ed1b7e638a4cbf2f02089,6880313f08240a5654ef012f,,,,,,,,,,,,,4,1,,./stim/wavs/castilian_match_interrogative-total-yn_Maria-bebe-el-vino.wav,,,,,,,,,,,,,,,,,,,,,,646.6339,648.646,1,1,1.4747,,0,46,46,3,1,0,castilian,,,,,,,,,,,,,,,,,,,,,,,,,,,,,,,,,,,,,,,,,,,,,,,,,,,,,,,,
,,,,,,,,,,spanish,younger than 13,"no, only English or Spanish",no,2025-07-22_20h49.05.745,empathy_intonation_perc,2024.2.4,Linux x86_64,59.88023952,662966f0b2169f8047af1345,687ed1b7e638a4cbf2f02089,6880313f08240a5654ef012f,,,,,,,,,,,,,78,0,,./stim/wavs/cuban_mismatch_declarative-broad-focus_Mi-tia-odia-la-lluvia.wav,,,,,,,,,,,,,,,,,,,,,,648.6471,650.8942,0,1,1.7124,,0,47,47,77,1,0,cuban,,,,,,,,,,,,,,,,,,,,,,,,,,,,,,,,,,,,,,,,,,,,,,,,,,,,,,,,
,,,,,,,,,,spanish,younger than 13,"no, only English or Spanish",no,2025-07-22_20h49.05.745,empathy_intonation_perc,2024.2.4,Linux x86_64,59.88023952,662966f0b2169f8047af1345,687ed1b7e638a4cbf2f02089,6880313f08240a5654ef012f,,,,,,,,,,,,,43,1,,./stim/wavs/puertorican_mismatch_interrogative-total-yn_La-nina-lava-el-plato.wav,,,,,,,,,,,,,,,,,,,,,,650.8958,653.1687,0,0,1.7463,,0,48,48,42,1,1,puertorican,,,,,,,,,,,,,,,,,,,,,,,,,,,,,,,,,,,,,,,,,,,,,,,,,,,,,,,,
,,,,,,,,,,spanish,younger than 13,"no, only English or Spanish",no,2025-07-22_20h49.05.745,empathy_intonation_perc,2024.2.4,Linux x86_64,59.88023952,662966f0b2169f8047af1345,687ed1b7e638a4cbf2f02089,6880313f08240a5654ef012f,,,,,,,,,,,,,60,0,,./stim/wavs/mexican_match_declarative-broad-focus_Emilio-ama-la-marcha.wav,,,,,,,,,,,,,,,,,,,,,,653.1698,655.6435,0,1,1.957,,0,49,49,59,1,0,mexican,,,,,,,,,,,,,,,,,,,,,,,,,,,,,,,,,,,,,,,,,,,,,,,,,,,,,,,,
,,,,,,,,,,spanish,younger than 13,"no, only English or Spanish",no,2025-07-22_20h49.05.745,empathy_intonation_perc,2024.2.4,Linux x86_64,59.88023952,662966f0b2169f8047af1345,687ed1b7e638a4cbf2f02089,6880313f08240a5654ef012f,,,,,,,,,,,,,32,1,,./stim/wavs/cuban_mismatch_interrogative-total-yn_Mi-madre-come-la-fruta.wav,,,,,,,,,,,,,,,,,,,,,,655.6447,658.5536,1,1,2.3769,,0,50,50,31,1,1,cuban,,,,,,,,,,,,,,,,,,,,,,,,,,,,,,,,,,,,,,,,,,,,,,,,,,,,,,,,
,,,,,,,,,,spanish,younger than 13,"no, only English or Spanish",no,2025-07-22_20h49.05.745,empathy_intonation_perc,2024.2.4,Linux x86_64,59.88023952,662966f0b2169f8047af1345,687ed1b7e638a4cbf2f02089,6880313f08240a5654ef012f,,,,,,,,,,,,,24,1,,./stim/wavs/puertorican_match_interrogative-total-yn_Maria-bebe-el-vino.wav,,,,,,,,,,,,,,,,,,,,,,658.5546,660.8702,0,0,1.7881,,0,51,51,23,1,1,puertorican,,,,,,,,,,,,,,,,,,,,,,,,,,,,,,,,,,,,,,,,,,,,,,,,,,,,,,,,
,,,,,,,,,,spanish,younger than 13,"no, only English or Spanish",no,2025-07-22_20h49.05.745,empathy_intonation_perc,2024.2.4,Linux x86_64,59.88023952,662966f0b2169f8047af1345,687ed1b7e638a4cbf2f02089,6880313f08240a5654ef012f,,,,,,,,,,,,,9,1,,./stim/wavs/cuban_match_interrogative-total-yn_Manuela-vende-el-carro.wav,,,,,,,,,,,,,,,,,,,,,,660.8715,663.3815,1,1,1.9798,,0,52,52,8,1,1,cuban,,,,,,,,,,,,,,,,,,,,,,,,,,,,,,,,,,,,,,,,,,,,,,,,,,,,,,,,
,,,,,,,,,,spanish,younger than 13,"no, only English or Spanish",no,2025-07-22_20h49.05.745,empathy_intonation_perc,2024.2.4,Linux x86_64,59.88023952,662966f0b2169f8047af1345,687ed1b7e638a4cbf2f02089,6880313f08240a5654ef012f,,,,,,,,,,,,,42,1,,./stim/wavs/puertorican_mismatch_interrogative-total-yn_La-maestra-vive-en-Paris.wav,,,,,,,,,,,,,,,,,,,,,,663.3824,665.5967,0,0,1.7019,,0,53,53,41,1,1,puertorican,,,,,,,,,,,,,,,,,,,,,,,,,,,,,,,,,,,,,,,,,,,,,,,,,,,,,,,,
,,,,,,,,,,spanish,younger than 13,"no, only English or Spanish",no,2025-07-22_20h49.05.745,empathy_intonation_perc,2024.2.4,Linux x86_64,59.88023952,662966f0b2169f8047af1345,687ed1b7e638a4cbf2f02089,6880313f08240a5654ef012f,,,,,,,,,,,,,70,0,,./stim/wavs/castilian_mismatch_declarative-broad-focus_La-maestra-vive-en-Paris.wav,,,,,,,,,,,,,,,,,,,,,,665.5977,668.4275,0,1,2.2926,,0,54,54,69,1,0,castilian,,,,,,,,,,,,,,,,,,,,,,,,,,,,,,,,,,,,,,,,,,,,,,,,,,,,,,,,
,,,,,,,,,,spanish,younger than 13,"no, only English or Spanish",no,2025-07-22_20h49.05.745,empathy_intonation_perc,2024.2.4,Linux x86_64,59.88023952,662966f0b2169f8047af1345,687ed1b7e638a4cbf2f02089,6880313f08240a5654ef012f,,,,,,,,,,,,,87,0,,./stim/wavs/puertorican_mismatch_declarative-broad-focus_La-maestra-vive-en-Paris.wav,,,,,,,,,,,,,,,,,,,,,,668.4288,670.6597,0,1,1.7005,,0,55,55,86,1,0,puertorican,,,,,,,,,,,,,,,,,,,,,,,,,,,,,,,,,,,,,,,,,,,,,,,,,,,,,,,,
,,,,,,,,,,spanish,younger than 13,"no, only English or Spanish",no,2025-07-22_20h49.05.745,empathy_intonation_perc,2024.2.4,Linux x86_64,59.88023952,662966f0b2169f8047af1345,687ed1b7e638a4cbf2f02089,6880313f08240a5654ef012f,,,,,,,,,,,,,49,0,,./stim/wavs/castilian_match_declarative-broad-focus_Mariano-habla-del-tiempo.wav,,,,,,,,,,,,,,,,,,,,,,670.6613,673.4716,0,1,2.2792,,0,56,56,48,1,0,castilian,,,,,,,,,,,,,,,,,,,,,,,,,,,,,,,,,,,,,,,,,,,,,,,,,,,,,,,,
,,,,,,,,,,spanish,younger than 13,"no, only English or Spanish",no,2025-07-22_20h49.05.745,empathy_intonation_perc,2024.2.4,Linux x86_64,59.88023952,662966f0b2169f8047af1345,687ed1b7e638a4cbf2f02089,6880313f08240a5654ef012f,,,,,,,,,,,,,12,1,,./stim/wavs/cuban_match_interrogative-total-yn_Marta-abre-el-regalo.wav,,,,,,,,,,,,,,,,,,,,,,673.4727,675.6708,0,0,1.6631,,0,57,57,11,1,1,cuban,,,,,,,,,,,,,,,,,,,,,,,,,,,,,,,,,,,,,,,,,,,,,,,,,,,,,,,,
,,,,,,,,,,spanish,younger than 13,"no, only English or Spanish",no,2025-07-22_20h49.05.745,empathy_intonation_perc,2024.2.4,Linux x86_64,59.88023952,662966f0b2169f8047af1345,687ed1b7e638a4cbf2f02089,6880313f08240a5654ef012f,,,,,,,,,,,,,85,0,,./stim/wavs/puertorican_mismatch_declarative-broad-focus_El-hombre-mira-la-luna.wav,,,,,,,,,,,,,,,,,,,,,,675.6719,678.0685,1,0,1.8671,,0,58,58,84,1,0,puertorican,,,,,,,,,,,,,,,,,,,,,,,,,,,,,,,,,,,,,,,,,,,,,,,,,,,,,,,,
,,,,,,,,,,spanish,younger than 13,"no, only English or Spanish",no,2025-07-22_20h49.05.745,empathy_intonation_perc,2024.2.4,Linux x86_64,59.88023952,662966f0b2169f8047af1345,687ed1b7e638a4cbf2f02089,6880313f08240a5654ef012f,,,,,,,,,,,,,71,0,,./stim/wavs/castilian_mismatch_declarative-broad-focus_La-nina-lava-el-plato.wav,,,,,,,,,,,,,,,,,,,,,,678.0696,680.5156,1,0,1.9148,,0,59,59,70,1,0,castilian,,,,,,,,,,,,,,,,,,,,,,,,,,,,,,,,,,,,,,,,,,,,,,,,,,,,,,,,
,,,,,,,,,,spanish,younger than 13,"no, only English or Spanish",no,2025-07-22_20h49.05.745,empathy_intonation_perc,2024.2.4,Linux x86_64,59.88023952,662966f0b2169f8047af1345,687ed1b7e638a4cbf2f02089,6880313f08240a5654ef012f,,,,,,,,,,,,,88,0,,./stim/wavs/puertorican_mismatch_declarative-broad-focus_La-nina-lava-el-plato.wav,,,,,,,,,,,,,,,,,,,,,,680.5172,682.8296,0,1,1.7803,,0,60,60,87,1,0,puertorican,,,,,,,,,,,,,,,,,,,,,,,,,,,,,,,,,,,,,,,,,,,,,,,,,,,,,,,,
,,,,,,,,,,spanish,younger than 13,"no, only English or Spanish",no,2025-07-22_20h49.05.745,empathy_intonation_perc,2024.2.4,Linux x86_64,59.88023952,662966f0b2169f8047af1345,687ed1b7e638a4cbf2f02089,6880313f08240a5654ef012f,,,,,,,,,,,,,28,1,,./stim/wavs/castilian_mismatch_interrogative-total-yn_Mi-novio-viene-del-lago.wav,,,,,,,,,,,,,,,,,,,,,,682.8311,685.2937,0,0,1.9359,,0,61,61,27,1,0,castilian,,,,,,,,,,,,,,,,,,,,,,,,,,,,,,,,,,,,,,,,,,,,,,,,,,,,,,,,
,,,,,,,,,,spanish,younger than 13,"no, only English or Spanish",no,2025-07-22_20h49.05.745,empathy_intonation_perc,2024.2.4,Linux x86_64,59.88023952,662966f0b2169f8047af1345,687ed1b7e638a4cbf2f02089,6880313f08240a5654ef012f,,,,,,,,,,,,,47,0,,./stim/wavs/castilian_match_declarative-broad-focus_Manuela-vende-el-carro.wav,,,,,,,,,,,,,,,,,,,,,,685.2959,687.9626,0,1,2.1332,,0,62,62,46,1,0,castilian,,,,,,,,,,,,,,,,,,,,,,,,,,,,,,,,,,,,,,,,,,,,,,,,,,,,,,,,
,,,,,,,,,,spanish,younger than 13,"no, only English or Spanish",no,2025-07-22_20h49.05.745,empathy_intonation_perc,2024.2.4,Linux x86_64,59.88023952,662966f0b2169f8047af1345,687ed1b7e638a4cbf2f02089,6880313f08240a5654ef012f,,,,,,,,,,,,,69,0,,./stim/wavs/castilian_mismatch_declarative-broad-focus_El-nino-oye-el-rio.wav,,,,,,,,,,,,,,,,,,,,,,687.9639,690.1392,1,0,1.6521,,0,63,63,68,1,0,castilian,,,,,,,,,,,,,,,,,,,,,,,,,,,,,,,,,,,,,,,,,,,,,,,,,,,,,,,,
,,,,,,,,,,spanish,younger than 13,"no, only English or Spanish",no,2025-07-22_20h49.05.745,empathy_intonation_perc,2024.2.4,Linux x86_64,59.88023952,662966f0b2169f8047af1345,687ed1b7e638a4cbf2f02089,6880313f08240a5654ef012f,,,,,,,,,,,,,27,1,,./stim/wavs/castilian_mismatch_interrogative-total-yn_Mi-madre-come-la-fruta.wav,,,,,,,,,,,,,,,,,,,,,,690.1403,692.5695,1,1,1.9011,,0,64,64,26,1,0,castilian,,,,,,,,,,,,,,,,,,,,,,,,,,,,,,,,,,,,,,,,,,,,,,,,,,,,,,,,
,,,,,,,,,,spanish,younger than 13,"no, only English or Spanish",no,2025-07-22_20h49.05.745,empathy_intonation_perc,2024.2.4,Linux x86_64,59.88023952,662966f0b2169f8047af1345,687ed1b7e638a4cbf2f02089,6880313f08240a5654ef012f,,,,,,,,,,,,,56,0,,./stim/wavs/cuban_match_declarative-broad-focus_Marta-abre-el-regalo.wav,,,,,,,,,,,,,,,,,,,,,,692.5705,695.1987,0,1,2.0947,,0,65,65,55,1,0,cuban,,,,,,,,,,,,,,,,,,,,,,,,,,,,,,,,,,,,,,,,,,,,,,,,,,,,,,,,
,,,,,,,,,,spanish,younger than 13,"no, only English or Spanish",no,2025-07-22_20h49.05.745,empathy_intonation_perc,2024.2.4,Linux x86_64,59.88023952,662966f0b2169f8047af1345,687ed1b7e638a4cbf2f02089,6880313f08240a5654ef012f,,,,,,,,,,,,,38,1,,./stim/wavs/mexican_mismatch_interrogative-total-yn_Mi-novio-viene-del-lago.wav,,,,,,,,,,,,,,,,,,,,,,695.1998,697.9144,1,1,2.1814,,0,66,66,37,1,0,mexican,,,,,,,,,,,,,,,,,,,,,,,,,,,,,,,,,,,,,,,,,,,,,,,,,,,,,,,,
,,,,,,,,,,spanish,younger than 13,"no, only English or Spanish",no,2025-07-22_20h49.05.745,empathy_intonation_perc,2024.2.4,Linux x86_64,59.88023952,662966f0b2169f8047af1345,687ed1b7e638a4cbf2f02089,6880313f08240a5654ef012f,,,,,,,,,,,,,79,0,,./stim/wavs/mexican_mismatch_declarative-broad-focus_El-bebe-comia-muy-bien.wav,,,,,,,,,,,,,,,,,,,,,,697.9153,700.4613,1,0,2.028,,0,67,67,78,1,0,mexican,,,,,,,,,,,,,,,,,,,,,,,,,,,,,,,,,,,,,,,,,,,,,,,,,,,,,,,,
,,,,,,,,,,spanish,younger than 13,"no, only English or Spanish",no,2025-07-22_20h49.05.745,empathy_intonation_perc,2024.2.4,Linux x86_64,59.88023952,662966f0b2169f8047af1345,687ed1b7e638a4cbf2f02089,6880313f08240a5654ef012f,,,,,,,,,,,,,72,0,,./stim/wavs/castilian_mismatch_declarative-broad-focus_Mi-novio-viene-del-lago.wav,,,,,,,,,,,,,,,,,,,,,,700.4629,703.1937,0,1,2.2036,,0,68,68,71,1,0,castilian,,,,,,,,,,,,,,,,,,,,,,,,,,,,,,,,,,,,,,,,,,,,,,,,,,,,,,,,
,,,,,,,,,,spanish,younger than 13,"no, only English or Spanish",no,2025-07-22_20h49.05.745,empathy_intonation_perc,2024.2.4,Linux x86_64,59.88023952,662966f0b2169f8047af1345,687ed1b7e638a4cbf2f02089,6880313f08240a5654ef012f,,,,,,,,,,,,,25,1,,./stim/wavs/castilian_mismatch_interrogative-total-yn_La-maestra-vive-en-Paris.wav,,,,,,,,,,,,,,,,,,,,,,703.1948,705.9726,1,1,2.2497,,0,69,69,24,1,0,castilian,,,,,,,,,,,,,,,,,,,,,,,,,,,,,,,,,,,,,,,,,,,,,,,,,,,,,,,,
,,,,,,,,,,spanish,younger than 13,"no, only English or Spanish",no,2025-07-22_20h49.05.745,empathy_intonation_perc,2024.2.4,Linux x86_64,59.88023952,662966f0b2169f8047af1345,687ed1b7e638a4cbf2f02089,6880313f08240a5654ef012f,,,,,,,,,,,,,76,0,,./stim/wavs/cuban_mismatch_declarative-broad-focus_La-nina-lava-el-plato.wav,,,,,,,,,,,,,,,,,,,,,,705.974,708.2575,0,1,1.7498,,0,70,70,75,1,0,cuban,,,,,,,,,,,,,,,,,,,,,,,,,,,,,,,,,,,,,,,,,,,,,,,,,,,,,,,,
,,,,,,,,,,spanish,younger than 13,"no, only English or Spanish",no,2025-07-22_20h49.05.745,empathy_intonation_perc,2024.2.4,Linux x86_64,59.88023952,662966f0b2169f8047af1345,687ed1b7e638a4cbf2f02089,6880313f08240a5654ef012f,,,,,,,,,,,,,53,0,,./stim/wavs/cuban_match_declarative-broad-focus_Manuela-vende-el-carro.wav,,,,,,,,,,,,,,,,,,,,,,708.2594,710.439,0,1,1.657,,0,71,71,52,1,0,cuban,,,,,,,,,,,,,,,,,,,,,,,,,,,,,,,,,,,,,,,,,,,,,,,,,,,,,,,,
,,,,,,,,,,spanish,younger than 13,"no, only English or Spanish",no,2025-07-22_20h49.05.745,empathy_intonation_perc,2024.2.4,Linux x86_64,59.88023952,662966f0b2169f8047af1345,687ed1b7e638a4cbf2f02089,6880313f08240a5654ef012f,,,,,,,,,,,,,19,1,,./stim/wavs/puertorican_match_interrogative-total-yn_Ana-lleva-el-abrigo.wav,,,,,,,,,,,,,,,,,,,,,,710.441,712.6517,0,0,1.6877,,0,72,72,18,1,1,puertorican,,,,,,,,,,,,,,,,,,,,,,,,,,,,,,,,,,,,,,,,,,,,,,,,,,,,,,,,
,,,,,,,,,,spanish,younger than 13,"no, only English or Spanish",no,2025-07-22_20h49.05.745,empathy_intonation_perc,2024.2.4,Linux x86_64,59.88023952,662966f0b2169f8047af1345,687ed1b7e638a4cbf2f02089,6880313f08240a5654ef012f,,,,,,,,,,,,,10,1,,./stim/wavs/cuban_match_interrogative-total-yn_Maria-bebe-el-vino.wav,,,,,,,,,,,,,,,,,,,,,,712.6526,714.9973,0,0,1.8172,,0,73,73,9,1,1,cuban,,,,,,,,,,,,,,,,,,,,,,,,,,,,,,,,,,,,,,,,,,,,,,,,,,,,,,,,
,,,,,,,,,,spanish,younger than 13,"no, only English or Spanish",no,2025-07-22_20h49.05.745,empathy_intonation_perc,2024.2.4,Linux x86_64,59.88023952,662966f0b2169f8047af1345,687ed1b7e638a4cbf2f02089,6880313f08240a5654ef012f,,,,,,,,,,,,,50,0,,./stim/wavs/castilian_match_declarative-broad-focus_Marta-abre-el-regalo.wav,,,,,,,,,,,,,,,,,,,,,,714.9983,717.3502,0,1,1.8213,,0,74,74,49,1,0,castilian,,,,,,,,,,,,,,,,,,,,,,,,,,,,,,,,,,,,,,,,,,,,,,,,,,,,,,,,
,,,,,,,,,,spanish,younger than 13,"no, only English or Spanish",no,2025-07-22_20h49.05.745,empathy_intonation_perc,2024.2.4,Linux x86_64,59.88023952,662966f0b2169f8047af1345,687ed1b7e638a4cbf2f02089,6880313f08240a5654ef012f,,,,,,,,,,,,,67,0,,./stim/wavs/puertorican_match_declarative-broad-focus_Manuela-vende-el-carro.wav,,,,,,,,,,,,,,,,,,,,,,717.3514,719.3266,0,1,1.4529,,0,75,75,66,1,0,puertorican,,,,,,,,,,,,,,,,,,,,,,,,,,,,,,,,,,,,,,,,,,,,,,,,,,,,,,,,
,,,,,,,,,,spanish,younger than 13,"no, only English or Spanish",no,2025-07-22_20h49.05.745,empathy_intonation_perc,2024.2.4,Linux x86_64,59.88023952,662966f0b2169f8047af1345,687ed1b7e638a4cbf2f02089,6880313f08240a5654ef012f,,,,,,,,,,,,,62,0,,./stim/wavs/mexican_match_declarative-broad-focus_Marta-abre-el-regalo.wav,,,,,,,,,,,,,,,,,,,,,,719.3276,721.4073,0,1,1.5477,,0,76,76,61,1,0,mexican,,,,,,,,,,,,,,,,,,,,,,,,,,,,,,,,,,,,,,,,,,,,,,,,,,,,,,,,
,,,,,,,,,,spanish,younger than 13,"no, only English or Spanish",no,2025-07-22_20h49.05.745,empathy_intonation_perc,2024.2.4,Linux x86_64,59.88023952,662966f0b2169f8047af1345,687ed1b7e638a4cbf2f02089,6880313f08240a5654ef012f,,,,,,,,,,,,,21,1,,./stim/wavs/puertorican_match_interrogative-total-yn_David-leia-el-libro.wav,,,,,,,,,,,,,,,,,,,,,,721.4085,723.5083,0,0,1.5676,,0,77,77,20,1,1,puertorican,,,,,,,,,,,,,,,,,,,,,,,,,,,,,,,,,,,,,,,,,,,,,,,,,,,,,,,,
,,,,,,,,,,spanish,younger than 13,"no, only English or Spanish",no,2025-07-22_20h49.05.745,empathy_intonation_perc,2024.2.4,Linux x86_64,59.88023952,662966f0b2169f8047af1345,687ed1b7e638a4cbf2f02089,6880313f08240a5654ef012f,,,,,,,,,,,,,36,1,,./stim/wavs/mexican_mismatch_interrogative-total-yn_El-nino-oye-el-rio.wav,,,,,,,,,,,,,,,,,,,,,,723.5093,725.2768,1,1,1.2411,,0,78,78,35,1,0,mexican,,,,,,,,,,,,,,,,,,,,,,,,,,,,,,,,,,,,,,,,,,,,,,,,,,,,,,,,
,,,,,,,,,,spanish,younger than 13,"no, only English or Spanish",no,2025-07-22_20h49.05.745,empathy_intonation_perc,2024.2.4,Linux x86_64,59.88023952,662966f0b2169f8047af1345,687ed1b7e638a4cbf2f02089,6880313f08240a5654ef012f,,,,,,,,,,,,,65,0,,./stim/wavs/puertorican_match_declarative-broad-focus_David-leia-el-libro.wav,,,,,,,,,,,,,,,,,,,,,,725.278,727.2204,0,1,1.4158,,0,79,79,64,1,0,puertorican,,,,,,,,,,,,,,,,,,,,,,,,,,,,,,,,,,,,,,,,,,,,,,,,,,,,,,,,
,,,,,,,,,,spanish,younger than 13,"no, only English or Spanish",no,2025-07-22_20h49.05.745,empathy_intonation_perc,2024.2.4,Linux x86_64,59.88023952,662966f0b2169f8047af1345,687ed1b7e638a4cbf2f02089,6880313f08240a5654ef012f,,,,,,,,,,,,,7,1,,./stim/wavs/cuban_match_interrogative-total-yn_Ana-lleva-el-abrigo.wav,,,,,,,,,,,,,,,,,,,,,,727.2217,729.4504,0,0,1.696,,0,80,80,6,1,1,cuban,,,,,,,,,,,,,,,,,,,,,,,,,,,,,,,,,,,,,,,,,,,,,,,,,,,,,,,,
,,,,,,,,,,spanish,younger than 13,"no, only English or Spanish",no,2025-07-22_20h49.05.745,empathy_intonation_perc,2024.2.4,Linux x86_64,59.88023952,662966f0b2169f8047af1345,687ed1b7e638a4cbf2f02089,6880313f08240a5654ef012f,,,,,,,,,,,,,23,1,,./stim/wavs/puertorican_match_interrogative-total-yn_Manuela-vende-el-carro.wav,,,,,,,,,,,,,,,,,,,,,,729.4515,731.3843,1,1,1.3972,,0,81,81,22,1,1,puertorican,,,,,,,,,,,,,,,,,,,,,,,,,,,,,,,,,,,,,,,,,,,,,,,,,,,,,,,,
,,,,,,,,,,spanish,younger than 13,"no, only English or Spanish",no,2025-07-22_20h49.05.745,empathy_intonation_perc,2024.2.4,Linux x86_64,59.88023952,662966f0b2169f8047af1345,687ed1b7e638a4cbf2f02089,6880313f08240a5654ef012f,,,,,,,,,,,,,15,1,,./stim/wavs/mexican_match_interrogative-total-yn_David-leia-el-libro.wav,,,,,,,,,,,,,,,,,,,,,,731.3857,733.7119,0,0,1.8027,,0,82,82,14,1,0,mexican,,,,,,,,,,,,,,,,,,,,,,,,,,,,,,,,,,,,,,,,,,,,,,,,,,,,,,,,
,,,,,,,,,,spanish,younger than 13,"no, only English or Spanish",no,2025-07-22_20h49.05.745,empathy_intonation_perc,2024.2.4,Linux x86_64,59.88023952,662966f0b2169f8047af1345,687ed1b7e638a4cbf2f02089,6880313f08240a5654ef012f,,,,,,,,,,,,,84,0,,./stim/wavs/puertorican_mismatch_declarative-broad-focus_El-bebe-comia-muy-bien.wav,,,,,,,,,,,,,,,,,,,,,,733.7135,736.3258,0,1,2.083,,0,83,83,83,1,0,puertorican,,,,,,,,,,,,,,,,,,,,,,,,,,,,,,,,,,,,,,,,,,,,,,,,,,,,,,,,
,,,,,,,,,,spanish,younger than 13,"no, only English or Spanish",no,2025-07-22_20h49.05.745,empathy_intonation_perc,2024.2.4,Linux x86_64,59.88023952,662966f0b2169f8047af1345,687ed1b7e638a4cbf2f02089,6880313f08240a5654ef012f,,,,,,,,,,,,,64,0,,./stim/wavs/puertorican_match_declarative-broad-focus_Daniel-iba-a-Bolivia.wav,,,,,,,,,,,,,,,,,,,,,,736.3271,738.7747,0,1,1.9329,,0,84,84,63,1,0,puertorican,,,,,,,,,,,,,,,,,,,,,,,,,,,,,,,,,,,,,,,,,,,,,,,,,,,,,,,,
,,,,,,,,,,spanish,younger than 13,"no, only English or Spanish",no,2025-07-22_20h49.05.745,empathy_intonation_perc,2024.2.4,Linux x86_64,59.88023952,662966f0b2169f8047af1345,687ed1b7e638a4cbf2f02089,6880313f08240a5654ef012f,,,,,,,,,,,,,3,1,,./stim/wavs/castilian_match_interrogative-total-yn_Manuela-vende-el-carro.wav,,,,,,,,,,,,,,,,,,,,,,738.7759,740.9551,1,1,1.6447,,0,85,85,2,1,0,castilian,,,,,,,,,,,,,,,,,,,,,,,,,,,,,,,,,,,,,,,,,,,,,,,,,,,,,,,,
,,,,,,,,,,spanish,younger than 13,"no, only English or Spanish",no,2025-07-22_20h49.05.745,empathy_intonation_perc,2024.2.4,Linux x86_64,59.88023952,662966f0b2169f8047af1345,687ed1b7e638a4cbf2f02089,6880313f08240a5654ef012f,,,,,,,,,,,,,34,1,,./stim/wavs/cuban_mismatch_interrogative-total-yn_Mi-tia-odia-la-lluvia.wav,,,,,,,,,,,,,,,,,,,,,,740.9561,743.0191,0,0,1.5288,,0,86,86,33,1,1,cuban,,,,,,,,,,,,,,,,,,,,,,,,,,,,,,,,,,,,,,,,,,,,,,,,,,,,,,,,
,,,,,,,,,,spanish,younger than 13,"no, only English or Spanish",no,2025-07-22_20h49.05.745,empathy_intonation_perc,2024.2.4,Linux x86_64,59.88023952,662966f0b2169f8047af1345,687ed1b7e638a4cbf2f02089,6880313f08240a5654ef012f,,,,,,,,,,,,,55,0,,./stim/wavs/cuban_match_declarative-broad-focus_Mariano-habla-del-tiempo.wav,,,,,,,,,,,,,,,,,,,,,,743.0215,745.4837,0,1,1.9293,,0,87,87,54,1,0,cuban,,,,,,,,,,,,,,,,,,,,,,,,,,,,,,,,,,,,,,,,,,,,,,,,,,,,,,,,
,,,,,,,"Great! Now we will move on. The next task consists of about 60 trials, in each of which you will see a string of letters. 
  
  Your task is to decide whether this is a real Spanish word or not.", (press the spacebar to continue),,spanish,younger than 13,"no, only English or Spanish",no,2025-07-22_20h49.05.745,empathy_intonation_perc,2024.2.4,Linux x86_64,59.88023952,662966f0b2169f8047af1345,687ed1b7e638a4cbf2f02089,6880313f08240a5654ef012f,,,,,,,,,,,,,,,,,,,,,,,,,,,,,,,,,,,,,,,,,,,,,,,,,,,745.4962,753.0439,0,0,0,0,1,,,,,,,,,,,,,,,,,,,,,,,,,,,,,,,,,,,,,,,,,,,,,,,,,
,,,,,,,"If you think it is an existing Spanish word, you type '1' (for 'REAL'), and if you think it is not an existing Spanish word, you type '0' (for 'FAKE').", (press the spacebar to continue),,spanish,younger than 13,"no, only English or Spanish",no,2025-07-22_20h49.05.745,empathy_intonation_perc,2024.2.4,Linux x86_64,59.88023952,662966f0b2169f8047af1345,687ed1b7e638a4cbf2f02089,6880313f08240a5654ef012f,,,,,,,,,,,,,,,,,,,,,,,,,,,,,,,,,,,,,,,,,,,,,,,,,,,753.0484,758.0065,0,1,1,1,1,,,,,,,,,,,,,,,,,,,,,,,,,,,,,,,,,,,,,,,,,,,,,,,,,
,,,,,,,"If you are sure that the word exists, even though you don’t know its exact meaning, you may still respond '1' (REAL). 
  
  But if you are not sure if it is an existing word, you should respond '0' (FAKE).
  
  Let's do a practice round...", (press the spacebar to continue),,spanish,younger than 13,"no, only English or Spanish",no,2025-07-22_20h49.05.745,empathy_intonation_perc,2024.2.4,Linux x86_64,59.88023952,662966f0b2169f8047af1345,687ed1b7e638a4cbf2f02089,6880313f08240a5654ef012f,,,,,,,,,,,,,,,,,,,,,,,,,,,,,,,,,,,,,,,,,,,,,,,,,,,758.0125,765.5659,0,2,2,2,1,,,,,,,,,,,,,,,,,,,,,,,,,,,,,,,,,,,,,,,,,,,,,,,,,
,,,,,,,,,,spanish,younger than 13,"no, only English or Spanish",no,2025-07-22_20h49.05.745,empathy_intonation_perc,2024.2.4,Linux x86_64,59.88023952,662966f0b2169f8047af1345,687ed1b7e638a4cbf2f02089,6880313f08240a5654ef012f,,,,,,,,,,,,,,0,,,,,,,,,,,,,,,,,,,,,,,,,,,,,,,,,,,,,,,,,,,,765.5798,768.7289,1,0,2.6252,,768.7308,769.7265,0,0,0,0,1,0,depiste,REAL,FAKE,,,,,,,,,,,,,,,,,,,,,,,,,,,,,,,,
,,,,,,,,,,spanish,younger than 13,"no, only English or Spanish",no,2025-07-22_20h49.05.745,empathy_intonation_perc,2024.2.4,Linux x86_64,59.88023952,662966f0b2169f8047af1345,687ed1b7e638a4cbf2f02089,6880313f08240a5654ef012f,,,,,,,,,,,,,,1,,,,,,,,,,,,,,,,,,,,,,,,,,,,,,,,,,,,,,,,,,,,769.7294,772.1235,1,1,1.8641,,772.1253,773.1258,0,1,1,1,1,0,sí,REAL,FAKE,,,,,,,,,,,,,,,,,,,,,,,,,,,,,,,,
,,,,,,,,,,spanish,younger than 13,"no, only English or Spanish",no,2025-07-22_20h49.05.745,empathy_intonation_perc,2024.2.4,Linux x86_64,59.88023952,662966f0b2169f8047af1345,687ed1b7e638a4cbf2f02089,6880313f08240a5654ef012f,,,,,,,,,,,,,,0,,,,,,,,,,,,,,,,,,,,,,,,,,,,,,,,,,,,,,,,,,,,773.128,775.3793,1,0,1.7183,,775.3814,776.373,0,2,2,2,1,0,coné,REAL,FAKE,,,,,,,,,,,,,,,,,,,,,,,,,,,,,,,,
,,,,,,,,,,spanish,younger than 13,"no, only English or Spanish",no,2025-07-22_20h49.05.745,empathy_intonation_perc,2024.2.4,Linux x86_64,59.88023952,662966f0b2169f8047af1345,687ed1b7e638a4cbf2f02089,6880313f08240a5654ef012f,,,,,,,,,,,,,,0,,,,,,,,,,,,,,,,,,,,,,,,,,,,,,,,,,,,,,,,,,,,776.3755,778.3506,0,1,1.4411,,778.3526,779.3467,0,3,3,3,1,0,calpar,REAL,FAKE,,,,,,,,,,,,,,,,,,,,,,,,,,,,,,,,
,,,,,,,,,,spanish,younger than 13,"no, only English or Spanish",no,2025-07-22_20h49.05.745,empathy_intonation_perc,2024.2.4,Linux x86_64,59.88023952,662966f0b2169f8047af1345,687ed1b7e638a4cbf2f02089,6880313f08240a5654ef012f,,,,,,,,,,,,,,0,,,,,,,,,,,,,,,,,,,,,,,,,,,,,,,,,,,,,,,,,,,,779.3504,781.2041,0,1,1.3309,,781.2042,782.1986,0,4,4,4,1,0,joten,REAL,FAKE,,,,,,,,,,,,,,,,,,,,,,,,,,,,,,,,
,,,,,,,,,,spanish,younger than 13,"no, only English or Spanish",no,2025-07-22_20h49.05.745,empathy_intonation_perc,2024.2.4,Linux x86_64,59.88023952,662966f0b2169f8047af1345,687ed1b7e638a4cbf2f02089,6880313f08240a5654ef012f,,,,,,,,,,,,,,1,,,,,,,,,,,,,,,,,,,,,,,,,,,,,,,,,,,,,,,,,,,,782.2016,784.7616,1,1,2.019,,784.7618,785.7659,0,5,5,5,1,0,sacapuntas,REAL,FAKE,,,,,,,,,,,,,,,,,,,,,,,,,,,,,,,,
,,,,,,,,,,spanish,younger than 13,"no, only English or Spanish",no,2025-07-22_20h49.05.745,empathy_intonation_perc,2024.2.4,Linux x86_64,59.88023952,662966f0b2169f8047af1345,687ed1b7e638a4cbf2f02089,6880313f08240a5654ef012f,,,,,,,,,,,,,,0,,,,,,,,,,,,,,,,,,,,,,,,,,,,,,,,,,,,,,,,,,,,785.769,787.4274,1,0,1.1316,,787.4294,788.3421,0,6,6,6,1,0,priba,REAL,FAKE,,,,,,,,,,,,,,,,,,,,,,,,,,,,,,,,
,,,,,,,,,,spanish,younger than 13,"no, only English or Spanish",no,2025-07-22_20h49.05.745,empathy_intonation_perc,2024.2.4,Linux x86_64,59.88023952,662966f0b2169f8047af1345,687ed1b7e638a4cbf2f02089,6880313f08240a5654ef012f,,,,,,,,,,,,,,0,,,,,,,,,,,,,,,,,,,,,,,,,,,,,,,,,,,,,,,,,,,,788.3465,790.3522,1,0,1.4676,,790.3525,791.3552,0,7,7,7,1,0,pelasula,REAL,FAKE,,,,,,,,,,,,,,,,,,,,,,,,,,,,,,,,
,,,,,,,,,,spanish,younger than 13,"no, only English or Spanish",no,2025-07-22_20h49.05.745,empathy_intonation_perc,2024.2.4,Linux x86_64,59.88023952,662966f0b2169f8047af1345,687ed1b7e638a4cbf2f02089,6880313f08240a5654ef012f,,,,,,,,,,,,,,1,,,,,,,,,,,,,,,,,,,,,,,,,,,,,,,,,,,,,,,,,,,,791.3573,794.0066,1,1,2.1221,,794.0086,795.0011,0,8,8,8,1,0,bien,REAL,FAKE,,,,,,,,,,,,,,,,,,,,,,,,,,,,,,,,
,,,,,,,,,,spanish,younger than 13,"no, only English or Spanish",no,2025-07-22_20h49.05.745,empathy_intonation_perc,2024.2.4,Linux x86_64,59.88023952,662966f0b2169f8047af1345,687ed1b7e638a4cbf2f02089,6880313f08240a5654ef012f,,,,,,,,,,,,,,1,,,,,,,,,,,,,,,,,,,,,,,,,,,,,,,,,,,,,,,,,,,,795.0038,797.0938,1,1,1.5582,,797.094,798.0832,0,9,9,9,1,0,casa,REAL,FAKE,,,,,,,,,,,,,,,,,,,,,,,,,,,,,,,,
,,,,,,,,,,spanish,younger than 13,"no, only English or Spanish",no,2025-07-22_20h49.05.745,empathy_intonation_perc,2024.2.4,Linux x86_64,59.88023952,662966f0b2169f8047af1345,687ed1b7e638a4cbf2f02089,6880313f08240a5654ef012f,,,,,,,,,,,,,,0,,,,,,,,,,,,,,,,,,,,,,,,,,,,,,,,,,,,,,,,,,,,798.0858,799.8972,0,1,1.278,,799.8973,800.8956,0,10,10,10,1,0,lejo,REAL,FAKE,,,,,,,,,,,,,,,,,,,,,,,,,,,,,,,,
,,,,,,,,,,spanish,younger than 13,"no, only English or Spanish",no,2025-07-22_20h49.05.745,empathy_intonation_perc,2024.2.4,Linux x86_64,59.88023952,662966f0b2169f8047af1345,687ed1b7e638a4cbf2f02089,6880313f08240a5654ef012f,,,,,,,,,,,,,,0,,,,,,,,,,,,,,,,,,,,,,,,,,,,,,,,,,,,,,,,,,,,800.8979,803.8789,1,0,2.4489,,803.8813,804.8695,0,11,11,11,1,0,pretantas,REAL,FAKE,,,,,,,,,,,,,,,,,,,,,,,,,,,,,,,,
,,,,,,,,,,spanish,younger than 13,"no, only English or Spanish",no,2025-07-22_20h49.05.745,empathy_intonation_perc,2024.2.4,Linux x86_64,59.88023952,662966f0b2169f8047af1345,687ed1b7e638a4cbf2f02089,6880313f08240a5654ef012f,,,,,,,,,,,,,,,,,,,,,,,,,,,,,,,,,,,,,,,,,,,,,,,,,,,,,,,,,,,,,,,,,,,,,,,,,,,804.8702,806.268,,,,,,,,,,,,,,,,,,,,,,,,,,,,,,
,,,,,,,,,,spanish,younger than 13,"no, only English or Spanish",no,2025-07-22_20h49.05.745,empathy_intonation_perc,2024.2.4,Linux x86_64,59.88023952,662966f0b2169f8047af1345,687ed1b7e638a4cbf2f02089,6880313f08240a5654ef012f,,,,,,,,,,,,,,1,,,,,,,,,,,,,,,,,,,,,,,,,,,,,,,,,,,,,,,,,,,,,,,,,,,,,,,,,75,yacer,,,,,806.3031,808.2893,0,0,1.4648,,0,0,0,74,1,REAL,FAKE,,,,,,,,,,,,,,,,,
,,,,,,,,,,spanish,younger than 13,"no, only English or Spanish",no,2025-07-22_20h49.05.745,empathy_intonation_perc,2024.2.4,Linux x86_64,59.88023952,662966f0b2169f8047af1345,687ed1b7e638a4cbf2f02089,6880313f08240a5654ef012f,,,,,,,,,,,,,,1,,,,,,,,,,,,,,,,,,,,,,,,,,,,,,,,,,,,,,,,,,,,,,,,,,,,,,,,,13,helar,,,,,808.2919,810.3597,0,0,1.5393,,0,1,1,12,1,REAL,FAKE,,,,,,,,,,,,,,,,,
,,,,,,,,,,spanish,younger than 13,"no, only English or Spanish",no,2025-07-22_20h49.05.745,empathy_intonation_perc,2024.2.4,Linux x86_64,59.88023952,662966f0b2169f8047af1345,687ed1b7e638a4cbf2f02089,6880313f08240a5654ef012f,,,,,,,,,,,,,,1,,,,,,,,,,,,,,,,,,,,,,,,,,,,,,,,,,,,,,,,,,,,,,,,,,,,,,,,,26,secuestro,,,,,810.3622,812.1187,1,1,1.2341,,0,2,2,25,1,REAL,FAKE,,,,,,,,,,,,,,,,,
,,,,,,,,,,spanish,younger than 13,"no, only English or Spanish",no,2025-07-22_20h49.05.745,empathy_intonation_perc,2024.2.4,Linux x86_64,59.88023952,662966f0b2169f8047af1345,687ed1b7e638a4cbf2f02089,6880313f08240a5654ef012f,,,,,,,,,,,,,,0,,,,,,,,,,,,,,,,,,,,,,,,,,,,,,,,,,,,,,,,,,,,,,,,,,,,,,,,,70,temblo,,,,,812.1212,814.1944,1,0,1.5463,,0,3,3,69,1,REAL,FAKE,,,,,,,,,,,,,,,,,
,,,,,,,,,,spanish,younger than 13,"no, only English or Spanish",no,2025-07-22_20h49.05.745,empathy_intonation_perc,2024.2.4,Linux x86_64,59.88023952,662966f0b2169f8047af1345,687ed1b7e638a4cbf2f02089,6880313f08240a5654ef012f,,,,,,,,,,,,,,0,,,,,,,,,,,,,,,,,,,,,,,,,,,,,,,,,,,,,,,,,,,,,,,,,,,,,,,,,21,capillo,,,,,814.1969,816.1655,1,0,1.4322,,0,4,4,20,1,REAL,FAKE,,,,,,,,,,,,,,,,,
,,,,,,,,,,spanish,younger than 13,"no, only English or Spanish",no,2025-07-22_20h49.05.745,empathy_intonation_perc,2024.2.4,Linux x86_64,59.88023952,662966f0b2169f8047af1345,687ed1b7e638a4cbf2f02089,6880313f08240a5654ef012f,,,,,,,,,,,,,,0,,,,,,,,,,,,,,,,,,,,,,,,,,,,,,,,,,,,,,,,,,,,,,,,,,,,,,,,,72,pemición,,,,,816.1677,818.6841,0,1,1.9835,,0,5,5,71,1,REAL,FAKE,,,,,,,,,,,,,,,,,
,,,,,,,,,,spanish,younger than 13,"no, only English or Spanish",no,2025-07-22_20h49.05.745,empathy_intonation_perc,2024.2.4,Linux x86_64,59.88023952,662966f0b2169f8047af1345,687ed1b7e638a4cbf2f02089,6880313f08240a5654ef012f,,,,,,,,,,,,,,1,,,,,,,,,,,,,,,,,,,,,,,,,,,,,,,,,,,,,,,,,,,,,,,,,,,,,,,,,15,regar,,,,,818.6879,820.5235,0,0,1.2922,,0,6,6,14,1,REAL,FAKE,,,,,,,,,,,,,,,,,
,,,,,,,,,,spanish,younger than 13,"no, only English or Spanish",no,2025-07-22_20h49.05.745,empathy_intonation_perc,2024.2.4,Linux x86_64,59.88023952,662966f0b2169f8047af1345,687ed1b7e638a4cbf2f02089,6880313f08240a5654ef012f,,,,,,,,,,,,,,0,,,,,,,,,,,,,,,,,,,,,,,,,,,,,,,,,,,,,,,,,,,,,,,,,,,,,,,,,19,brecedad,,,,,820.5268,823.1905,0,1,2.1355,,0,7,7,18,1,REAL,FAKE,,,,,,,,,,,,,,,,,
,,,,,,,,,,spanish,younger than 13,"no, only English or Spanish",no,2025-07-22_20h49.05.745,empathy_intonation_perc,2024.2.4,Linux x86_64,59.88023952,662966f0b2169f8047af1345,687ed1b7e638a4cbf2f02089,6880313f08240a5654ef012f,,,,,,,,,,,,,,0,,,,,,,,,,,,,,,,,,,,,,,,,,,,,,,,,,,,,,,,,,,,,,,,,,,,,,,,,10,antar,,,,,823.193,825.1055,1,0,1.3726,,0,8,8,9,1,REAL,FAKE,,,,,,,,,,,,,,,,,
,,,,,,,,,,spanish,younger than 13,"no, only English or Spanish",no,2025-07-22_20h49.05.745,empathy_intonation_perc,2024.2.4,Linux x86_64,59.88023952,662966f0b2169f8047af1345,687ed1b7e638a4cbf2f02089,6880313f08240a5654ef012f,,,,,,,,,,,,,,0,,,,,,,,,,,,,,,,,,,,,,,,,,,,,,,,,,,,,,,,,,,,,,,,,,,,,,,,,35,rompido,,,,,825.1077,827.42,0,1,1.777,,0,9,9,34,1,REAL,FAKE,,,,,,,,,,,,,,,,,
,,,,,,,,,,spanish,younger than 13,"no, only English or Spanish",no,2025-07-22_20h49.05.745,empathy_intonation_perc,2024.2.4,Linux x86_64,59.88023952,662966f0b2169f8047af1345,687ed1b7e638a4cbf2f02089,6880313f08240a5654ef012f,,,,,,,,,,,,,,1,,,,,,,,,,,,,,,,,,,,,,,,,,,,,,,,,,,,,,,,,,,,,,,,,,,,,,,,,86,barato,,,,,827.4223,829.4374,1,1,1.4842,,0,10,10,85,1,REAL,FAKE,,,,,,,,,,,,,,,,,
,,,,,,,,,,spanish,younger than 13,"no, only English or Spanish",no,2025-07-22_20h49.05.745,empathy_intonation_perc,2024.2.4,Linux x86_64,59.88023952,662966f0b2169f8047af1345,687ed1b7e638a4cbf2f02089,6880313f08240a5654ef012f,,,,,,,,,,,,,,0,,,,,,,,,,,,,,,,,,,,,,,,,,,,,,,,,,,,,,,,,,,,,,,,,,,,,,,,,23,lampera,,,,,829.4398,831.3385,1,0,1.3532,,0,11,11,22,1,REAL,FAKE,,,,,,,,,,,,,,,,,
,,,,,,,,,,spanish,younger than 13,"no, only English or Spanish",no,2025-07-22_20h49.05.745,empathy_intonation_perc,2024.2.4,Linux x86_64,59.88023952,662966f0b2169f8047af1345,687ed1b7e638a4cbf2f02089,6880313f08240a5654ef012f,,,,,,,,,,,,,,1,,,,,,,,,,,,,,,,,,,,,,,,,,,,,,,,,,,,,,,,,,,,,,,,,,,,,,,,,48,ladrón,,,,,831.3414,833.2136,1,1,1.3407,,0,12,12,47,1,REAL,FAKE,,,,,,,,,,,,,,,,,
,,,,,,,,,,spanish,younger than 13,"no, only English or Spanish",no,2025-07-22_20h49.05.745,empathy_intonation_perc,2024.2.4,Linux x86_64,59.88023952,662966f0b2169f8047af1345,687ed1b7e638a4cbf2f02089,6880313f08240a5654ef012f,,,,,,,,,,,,,,1,,,,,,,,,,,,,,,,,,,,,,,,,,,,,,,,,,,,,,,,,,,,,,,,,,,,,,,,,6,tergiversar,,,,,833.2164,835.1949,0,0,1.445,,0,13,13,5,1,REAL,FAKE,,,,,,,,,,,,,,,,,
,,,,,,,,,,spanish,younger than 13,"no, only English or Spanish",no,2025-07-22_20h49.05.745,empathy_intonation_perc,2024.2.4,Linux x86_64,59.88023952,662966f0b2169f8047af1345,687ed1b7e638a4cbf2f02089,6880313f08240a5654ef012f,,,,,,,,,,,,,,1,,,,,,,,,,,,,,,,,,,,,,,,,,,,,,,,,,,,,,,,,,,,,,,,,,,,,,,,,57,tacaño,,,,,835.1971,837.8957,0,0,2.1618,,0,14,14,56,1,REAL,FAKE,,,,,,,,,,,,,,,,,
,,,,,,,,,,spanish,younger than 13,"no, only English or Spanish",no,2025-07-22_20h49.05.745,empathy_intonation_perc,2024.2.4,Linux x86_64,59.88023952,662966f0b2169f8047af1345,687ed1b7e638a4cbf2f02089,6880313f08240a5654ef012f,,,,,,,,,,,,,,1,,,,,,,,,,,,,,,,,,,,,,,,,,,,,,,,,,,,,,,,,,,,,,,,,,,,,,,,,39,torpe,,,,,837.8982,839.4652,0,0,1.0396,,0,15,15,38,1,REAL,FAKE,,,,,,,,,,,,,,,,,
,,,,,,,,,,spanish,younger than 13,"no, only English or Spanish",no,2025-07-22_20h49.05.745,empathy_intonation_perc,2024.2.4,Linux x86_64,59.88023952,662966f0b2169f8047af1345,687ed1b7e638a4cbf2f02089,6880313f08240a5654ef012f,,,,,,,,,,,,,,1,,,,,,,,,,,,,,,,,,,,,,,,,,,,,,,,,,,,,,,,,,,,,,,,,,,,,,,,,88,acantilado,,,,,839.4677,841.9604,0,0,1.9619,,0,16,16,87,1,REAL,FAKE,,,,,,,,,,,,,,,,,
,,,,,,,,,,spanish,younger than 13,"no, only English or Spanish",no,2025-07-22_20h49.05.745,empathy_intonation_perc,2024.2.4,Linux x86_64,59.88023952,662966f0b2169f8047af1345,687ed1b7e638a4cbf2f02089,6880313f08240a5654ef012f,,,,,,,,,,,,,,1,,,,,,,,,,,,,,,,,,,,,,,,,,,,,,,,,,,,,,,,,,,,,,,,,,,,,,,,,36,loro,,,,,841.9631,844.0912,0,0,1.6047,,0,17,17,35,1,REAL,FAKE,,,,,,,,,,,,,,,,,
,,,,,,,,,,spanish,younger than 13,"no, only English or Spanish",no,2025-07-22_20h49.05.745,empathy_intonation_perc,2024.2.4,Linux x86_64,59.88023952,662966f0b2169f8047af1345,687ed1b7e638a4cbf2f02089,6880313f08240a5654ef012f,,,,,,,,,,,,,,1,,,,,,,,,,,,,,,,,,,,,,,,,,,,,,,,,,,,,,,,,,,,,,,,,,,,,,,,,40,alfombra,,,,,844.0939,846.8346,0,0,2.2161,,0,18,18,39,1,REAL,FAKE,,,,,,,,,,,,,,,,,
,,,,,,,,,,spanish,younger than 13,"no, only English or Spanish",no,2025-07-22_20h49.05.745,empathy_intonation_perc,2024.2.4,Linux x86_64,59.88023952,662966f0b2169f8047af1345,687ed1b7e638a4cbf2f02089,6880313f08240a5654ef012f,,,,,,,,,,,,,,1,,,,,,,,,,,,,,,,,,,,,,,,,,,,,,,,,,,,,,,,,,,,,,,,,,,,,,,,,62,flaco,,,,,846.8374,849.3481,1,1,1.9778,,0,19,19,61,1,REAL,FAKE,,,,,,,,,,,,,,,,,
,,,,,,,,,,spanish,younger than 13,"no, only English or Spanish",no,2025-07-22_20h49.05.745,empathy_intonation_perc,2024.2.4,Linux x86_64,59.88023952,662966f0b2169f8047af1345,687ed1b7e638a4cbf2f02089,6880313f08240a5654ef012f,,,,,,,,,,,,,,1,,,,,,,,,,,,,,,,,,,,,,,,,,,,,,,,,,,,,,,,,,,,,,,,,,,,,,,,,85,laúd,,,,,849.3508,850.7238,1,1,0.8402,,0,20,20,84,1,REAL,FAKE,,,,,,,,,,,,,,,,,
,,,,,,,,,,spanish,younger than 13,"no, only English or Spanish",no,2025-07-22_20h49.05.745,empathy_intonation_perc,2024.2.4,Linux x86_64,59.88023952,662966f0b2169f8047af1345,687ed1b7e638a4cbf2f02089,6880313f08240a5654ef012f,,,,,,,,,,,,,,1,,,,,,,,,,,,,,,,,,,,,,,,,,,,,,,,,,,,,,,,,,,,,,,,,,,,,,,,,11,cenefa,,,,,850.727,852.4894,0,0,1.2437,,0,21,21,10,1,REAL,FAKE,,,,,,,,,,,,,,,,,
,,,,,,,,,,spanish,younger than 13,"no, only English or Spanish",no,2025-07-22_20h49.05.745,empathy_intonation_perc,2024.2.4,Linux x86_64,59.88023952,662966f0b2169f8047af1345,687ed1b7e638a4cbf2f02089,6880313f08240a5654ef012f,,,,,,,,,,,,,,1,,,,,,,,,,,,,,,,,,,,,,,,,,,,,,,,,,,,,,,,,,,,,,,,,,,,,,,,,22,lacayo,,,,,852.496,853.7553,0,0,0.7447,,0,22,22,21,1,REAL,FAKE,,,,,,,,,,,,,,,,,
,,,,,,,,,,spanish,younger than 13,"no, only English or Spanish",no,2025-07-22_20h49.05.745,empathy_intonation_perc,2024.2.4,Linux x86_64,59.88023952,662966f0b2169f8047af1345,687ed1b7e638a4cbf2f02089,6880313f08240a5654ef012f,,,,,,,,,,,,,,1,,,,,,,,,,,,,,,,,,,,,,,,,,,,,,,,,,,,,,,,,,,,,,,,,,,,,,,,,71,polvoriento,,,,,853.7577,856.2287,0,0,1.9457,,0,23,23,70,1,REAL,FAKE,,,,,,,,,,,,,,,,,
,,,,,,,,,,spanish,younger than 13,"no, only English or Spanish",no,2025-07-22_20h49.05.745,empathy_intonation_perc,2024.2.4,Linux x86_64,59.88023952,662966f0b2169f8047af1345,687ed1b7e638a4cbf2f02089,6880313f08240a5654ef012f,,,,,,,,,,,,,,1,,,,,,,,,,,,,,,,,,,,,,,,,,,,,,,,,,,,,,,,,,,,,,,,,,,,,,,,,67,cabello,,,,,856.231,857.8268,1,1,1.0617,,0,24,24,66,1,REAL,FAKE,,,,,,,,,,,,,,,,,
,,,,,,,,,,spanish,younger than 13,"no, only English or Spanish",no,2025-07-22_20h49.05.745,empathy_intonation_perc,2024.2.4,Linux x86_64,59.88023952,662966f0b2169f8047af1345,687ed1b7e638a4cbf2f02089,6880313f08240a5654ef012f,,,,,,,,,,,,,,1,,,,,,,,,,,,,,,,,,,,,,,,,,,,,,,,,,,,,,,,,,,,,,,,,,,,,,,,,20,ávido,,,,,857.8297,859.2043,1,1,0.8383,,0,25,25,19,1,REAL,FAKE,,,,,,,,,,,,,,,,,
,,,,,,,,,,spanish,younger than 13,"no, only English or Spanish",no,2025-07-22_20h49.05.745,empathy_intonation_perc,2024.2.4,Linux x86_64,59.88023952,662966f0b2169f8047af1345,687ed1b7e638a4cbf2f02089,6880313f08240a5654ef012f,,,,,,,,,,,,,,0,,,,,,,,,,,,,,,,,,,,,,,,,,,,,,,,,,,,,,,,,,,,,,,,,,,,,,,,,84,escuto,,,,,859.2073,861.0245,1,0,1.2761,,0,26,26,83,1,REAL,FAKE,,,,,,,,,,,,,,,,,
,,,,,,,,,,spanish,younger than 13,"no, only English or Spanish",no,2025-07-22_20h49.05.745,empathy_intonation_perc,2024.2.4,Linux x86_64,59.88023952,662966f0b2169f8047af1345,687ed1b7e638a4cbf2f02089,6880313f08240a5654ef012f,,,,,,,,,,,,,,1,,,,,,,,,,,,,,,,,,,,,,,,,,,,,,,,,,,,,,,,,,,,,,,,,,,,,,,,,77,tiburón,,,,,861.027,862.7059,0,0,1.1456,,0,27,27,76,1,REAL,FAKE,,,,,,,,,,,,,,,,,
,,,,,,,,,,spanish,younger than 13,"no, only English or Spanish",no,2025-07-22_20h49.05.745,empathy_intonation_perc,2024.2.4,Linux x86_64,59.88023952,662966f0b2169f8047af1345,687ed1b7e638a4cbf2f02089,6880313f08240a5654ef012f,,,,,,,,,,,,,,1,,,,,,,,,,,,,,,,,,,,,,,,,,,,,,,,,,,,,,,,,,,,,,,,,,,,,,,,,14,yunque,,,,,862.7088,864.1038,0,0,0.8719,,0,28,28,13,1,REAL,FAKE,,,,,,,,,,,,,,,,,
,,,,,,,,,,spanish,younger than 13,"no, only English or Spanish",no,2025-07-22_20h49.05.745,empathy_intonation_perc,2024.2.4,Linux x86_64,59.88023952,662966f0b2169f8047af1345,687ed1b7e638a4cbf2f02089,6880313f08240a5654ef012f,,,,,,,,,,,,,,0,,,,,,,,,,,,,,,,,,,,,,,,,,,,,,,,,,,,,,,,,,,,,,,,,,,,,,,,,50,flamida,,,,,864.1062,868.0457,0,1,3.4041,,0,29,29,49,1,REAL,FAKE,,,,,,,,,,,,,,,,,
,,,,,,,,,,spanish,younger than 13,"no, only English or Spanish",no,2025-07-22_20h49.05.745,empathy_intonation_perc,2024.2.4,Linux x86_64,59.88023952,662966f0b2169f8047af1345,687ed1b7e638a4cbf2f02089,6880313f08240a5654ef012f,,,,,,,,,,,,,,1,,,,,,,,,,,,,,,,,,,,,,,,,,,,,,,,,,,,,,,,,,,,,,,,,,,,,,,,,83,guante,,,,,868.0489,870.8098,0,0,2.2319,,0,30,30,82,1,REAL,FAKE,,,,,,,,,,,,,,,,,
,,,,,,,,,,spanish,younger than 13,"no, only English or Spanish",no,2025-07-22_20h49.05.745,empathy_intonation_perc,2024.2.4,Linux x86_64,59.88023952,662966f0b2169f8047af1345,687ed1b7e638a4cbf2f02089,6880313f08240a5654ef012f,,,,,,,,,,,,,,1,,,,,,,,,,,,,,,,,,,,,,,,,,,,,,,,,,,,,,,,,,,,,,,,,,,,,,,,,41,rebuscar,,,,,870.8126,872.246,0,0,0.9076,,0,31,31,40,1,REAL,FAKE,,,,,,,,,,,,,,,,,
,,,,,,,,,,spanish,younger than 13,"no, only English or Spanish",no,2025-07-22_20h49.05.745,empathy_intonation_perc,2024.2.4,Linux x86_64,59.88023952,662966f0b2169f8047af1345,687ed1b7e638a4cbf2f02089,6880313f08240a5654ef012f,,,,,,,,,,,,,,0,,,,,,,,,,,,,,,,,,,,,,,,,,,,,,,,,,,,,,,,,,,,,,,,,,,,,,,,,16,abracer,,,,,872.2507,873.5484,0,1,0.7696,,0,32,32,15,1,REAL,FAKE,,,,,,,,,,,,,,,,,
,,,,,,,,,,spanish,younger than 13,"no, only English or Spanish",no,2025-07-22_20h49.05.745,empathy_intonation_perc,2024.2.4,Linux x86_64,59.88023952,662966f0b2169f8047af1345,687ed1b7e638a4cbf2f02089,6880313f08240a5654ef012f,,,,,,,,,,,,,,1,,,,,,,,,,,,,,,,,,,,,,,,,,,,,,,,,,,,,,,,,,,,,,,,,,,,,,,,,90,clavel,,,,,873.5514,875.4895,0,0,1.407,,0,33,33,89,1,REAL,FAKE,,,,,,,,,,,,,,,,,
,,,,,,,,,,spanish,younger than 13,"no, only English or Spanish",no,2025-07-22_20h49.05.745,empathy_intonation_perc,2024.2.4,Linux x86_64,59.88023952,662966f0b2169f8047af1345,687ed1b7e638a4cbf2f02089,6880313f08240a5654ef012f,,,,,,,,,,,,,,1,,,,,,,,,,,,,,,,,,,,,,,,,,,,,,,,,,,,,,,,,,,,,,,,,,,,,,,,,68,alegre,,,,,875.4937,877.7907,1,1,1.7803,,0,34,34,67,1,REAL,FAKE,,,,,,,,,,,,,,,,,
,,,,,,,,,,spanish,younger than 13,"no, only English or Spanish",no,2025-07-22_20h49.05.745,empathy_intonation_perc,2024.2.4,Linux x86_64,59.88023952,662966f0b2169f8047af1345,687ed1b7e638a4cbf2f02089,6880313f08240a5654ef012f,,,,,,,,,,,,,,0,,,,,,,,,,,,,,,,,,,,,,,,,,,,,,,,,,,,,,,,,,,,,,,,,,,,,,,,,29,decar,,,,,877.7937,880.3001,0,1,1.977,,0,35,35,28,1,REAL,FAKE,,,,,,,,,,,,,,,,,
,,,,,,,,,,spanish,younger than 13,"no, only English or Spanish",no,2025-07-22_20h49.05.745,empathy_intonation_perc,2024.2.4,Linux x86_64,59.88023952,662966f0b2169f8047af1345,687ed1b7e638a4cbf2f02089,6880313f08240a5654ef012f,,,,,,,,,,,,,,1,,,,,,,,,,,,,,,,,,,,,,,,,,,,,,,,,,,,,,,,,,,,,,,,,,,,,,,,,56,musgo,,,,,880.3023,881.6334,0,0,0.7999,,0,36,36,55,1,REAL,FAKE,,,,,,,,,,,,,,,,,
,,,,,,,,,,spanish,younger than 13,"no, only English or Spanish",no,2025-07-22_20h49.05.745,empathy_intonation_perc,2024.2.4,Linux x86_64,59.88023952,662966f0b2169f8047af1345,687ed1b7e638a4cbf2f02089,6880313f08240a5654ef012f,,,,,,,,,,,,,,0,,,,,,,,,,,,,,,,,,,,,,,,,,,,,,,,,,,,,,,,,,,,,,,,,,,,,,,,,63,esposante,,,,,881.6396,884.5504,1,0,2.3776,,0,37,37,62,1,REAL,FAKE,,,,,,,,,,,,,,,,,
,,,,,,,,,,spanish,younger than 13,"no, only English or Spanish",no,2025-07-22_20h49.05.745,empathy_intonation_perc,2024.2.4,Linux x86_64,59.88023952,662966f0b2169f8047af1345,687ed1b7e638a4cbf2f02089,6880313f08240a5654ef012f,,,,,,,,,,,,,,1,,,,,,,,,,,,,,,,,,,,,,,,,,,,,,,,,,,,,,,,,,,,,,,,,,,,,,,,,12,asesinato,,,,,884.5545,886.4069,0,0,1.323,,0,38,38,11,1,REAL,FAKE,,,,,,,,,,,,,,,,,
,,,,,,,,,,spanish,younger than 13,"no, only English or Spanish",no,2025-07-22_20h49.05.745,empathy_intonation_perc,2024.2.4,Linux x86_64,59.88023952,662966f0b2169f8047af1345,687ed1b7e638a4cbf2f02089,6880313f08240a5654ef012f,,,,,,,,,,,,,,1,,,,,,,,,,,,,,,,,,,,,,,,,,,,,,,,,,,,,,,,,,,,,,,,,,,,,,,,,65,bizcocho,,,,,886.4103,888.3523,0,0,1.4181,,0,39,39,64,1,REAL,FAKE,,,,,,,,,,,,,,,,,
,,,,,,,,,,spanish,younger than 13,"no, only English or Spanish",no,2025-07-22_20h49.05.745,empathy_intonation_perc,2024.2.4,Linux x86_64,59.88023952,662966f0b2169f8047af1345,687ed1b7e638a4cbf2f02089,6880313f08240a5654ef012f,,,,,,,,,,,,,,1,,,,,,,,,,,,,,,,,,,,,,,,,,,,,,,,,,,,,,,,,,,,,,,,,,,,,,,,,7,pésimo,,,,,888.3545,890.3946,1,1,1.5182,,0,40,40,6,1,REAL,FAKE,,,,,,,,,,,,,,,,,
,,,,,,,,,,spanish,younger than 13,"no, only English or Spanish",no,2025-07-22_20h49.05.745,empathy_intonation_perc,2024.2.4,Linux x86_64,59.88023952,662966f0b2169f8047af1345,687ed1b7e638a4cbf2f02089,6880313f08240a5654ef012f,,,,,,,,,,,,,,1,,,,,,,,,,,,,,,,,,,,,,,,,,,,,,,,,,,,,,,,,,,,,,,,,,,,,,,,,9,hacha,,,,,890.4024,891.9443,0,0,1.0226,,0,41,41,8,1,REAL,FAKE,,,,,,,,,,,,,,,,,
,,,,,,,,,,spanish,younger than 13,"no, only English or Spanish",no,2025-07-22_20h49.05.745,empathy_intonation_perc,2024.2.4,Linux x86_64,59.88023952,662966f0b2169f8047af1345,687ed1b7e638a4cbf2f02089,6880313f08240a5654ef012f,,,,,,,,,,,,,,0,,,,,,,,,,,,,,,,,,,,,,,,,,,,,,,,,,,,,,,,,,,,,,,,,,,,,,,,,66,hacido,,,,,891.9467,893.291,0,1,0.8285,,0,42,42,65,1,REAL,FAKE,,,,,,,,,,,,,,,,,
,,,,,,,,,,spanish,younger than 13,"no, only English or Spanish",no,2025-07-22_20h49.05.745,empathy_intonation_perc,2024.2.4,Linux x86_64,59.88023952,662966f0b2169f8047af1345,687ed1b7e638a4cbf2f02089,6880313f08240a5654ef012f,,,,,,,,,,,,,,1,,,,,,,,,,,,,,,,,,,,,,,,,,,,,,,,,,,,,,,,,,,,,,,,,,,,,,,,,3,pulmones,,,,,893.2935,894.7123,0,0,0.8905,,0,43,43,2,1,REAL,FAKE,,,,,,,,,,,,,,,,,
,,,,,,,,,,spanish,younger than 13,"no, only English or Spanish",no,2025-07-22_20h49.05.745,empathy_intonation_perc,2024.2.4,Linux x86_64,59.88023952,662966f0b2169f8047af1345,687ed1b7e638a4cbf2f02089,6880313f08240a5654ef012f,,,,,,,,,,,,,,1,,,,,,,,,,,,,,,,,,,,,,,,,,,,,,,,,,,,,,,,,,,,,,,,,,,,,,,,,76,atar,,,,,894.7164,896.3578,1,1,1.1204,,0,44,44,75,1,REAL,FAKE,,,,,,,,,,,,,,,,,
,,,,,,,,,,spanish,younger than 13,"no, only English or Spanish",no,2025-07-22_20h49.05.745,empathy_intonation_perc,2024.2.4,Linux x86_64,59.88023952,662966f0b2169f8047af1345,687ed1b7e638a4cbf2f02089,6880313f08240a5654ef012f,,,,,,,,,,,,,,0,,,,,,,,,,,,,,,,,,,,,,,,,,,,,,,,,,,,,,,,,,,,,,,,,,,,,,,,,17,floroso,,,,,896.3603,898.0779,0,1,1.1747,,0,45,45,16,1,REAL,FAKE,,,,,,,,,,,,,,,,,
,,,,,,,,,,spanish,younger than 13,"no, only English or Spanish",no,2025-07-22_20h49.05.745,empathy_intonation_perc,2024.2.4,Linux x86_64,59.88023952,662966f0b2169f8047af1345,687ed1b7e638a4cbf2f02089,6880313f08240a5654ef012f,,,,,,,,,,,,,,1,,,,,,,,,,,,,,,,,,,,,,,,,,,,,,,,,,,,,,,,,,,,,,,,,,,,,,,,,37,granuja,,,,,898.0804,902.4036,0,0,3.8006,,0,46,46,36,1,REAL,FAKE,,,,,,,,,,,,,,,,,
,,,,,,,,,,spanish,younger than 13,"no, only English or Spanish",no,2025-07-22_20h49.05.745,empathy_intonation_perc,2024.2.4,Linux x86_64,59.88023952,662966f0b2169f8047af1345,687ed1b7e638a4cbf2f02089,6880313f08240a5654ef012f,,,,,,,,,,,,,,1,,,,,,,,,,,,,,,,,,,,,,,,,,,,,,,,,,,,,,,,,,,,,,,,,,,,,,,,,5,zapato,,,,,902.4066,904.328,0,0,1.3961,,0,47,47,4,1,REAL,FAKE,,,,,,,,,,,,,,,,,
,,,,,,,,,,spanish,younger than 13,"no, only English or Spanish",no,2025-07-22_20h49.05.745,empathy_intonation_perc,2024.2.4,Linux x86_64,59.88023952,662966f0b2169f8047af1345,687ed1b7e638a4cbf2f02089,6880313f08240a5654ef012f,,,,,,,,,,,,,,1,,,,,,,,,,,,,,,,,,,,,,,,,,,,,,,,,,,,,,,,,,,,,,,,,,,,,,,,,55,nevar,,,,,904.3306,907.4293,1,1,2.571,,0,48,48,54,1,REAL,FAKE,,,,,,,,,,,,,,,,,
,,,,,,,,,,spanish,younger than 13,"no, only English or Spanish",no,2025-07-22_20h49.05.745,empathy_intonation_perc,2024.2.4,Linux x86_64,59.88023952,662966f0b2169f8047af1345,687ed1b7e638a4cbf2f02089,6880313f08240a5654ef012f,,,,,,,,,,,,,,0,,,,,,,,,,,,,,,,,,,,,,,,,,,,,,,,,,,,,,,,,,,,,,,,,,,,,,,,,74,cintro,,,,,907.4321,911.2885,0,1,3.3284,,0,49,49,73,1,REAL,FAKE,,,,,,,,,,,,,,,,,
,,,,,,,,,,spanish,younger than 13,"no, only English or Spanish",no,2025-07-22_20h49.05.745,empathy_intonation_perc,2024.2.4,Linux x86_64,59.88023952,662966f0b2169f8047af1345,687ed1b7e638a4cbf2f02089,6880313f08240a5654ef012f,,,,,,,,,,,,,,1,,,,,,,,,,,,,,,,,,,,,,,,,,,,,,,,,,,,,,,,,,,,,,,,,,,,,,,,,78,frondoso,,,,,911.2908,913.4677,0,0,1.6424,,0,50,50,77,1,REAL,FAKE,,,,,,,,,,,,,,,,,
,,,,,,,,,,spanish,younger than 13,"no, only English or Spanish",no,2025-07-22_20h49.05.745,empathy_intonation_perc,2024.2.4,Linux x86_64,59.88023952,662966f0b2169f8047af1345,687ed1b7e638a4cbf2f02089,6880313f08240a5654ef012f,,,,,,,,,,,,,,1,,,,,,,,,,,,,,,,,,,,,,,,,,,,,,,,,,,,,,,,,,,,,,,,,,,,,,,,,34,aviso,,,,,913.4701,914.7033,0,0,0.7019,,0,51,51,33,1,REAL,FAKE,,,,,,,,,,,,,,,,,
,,,,,,,,,,spanish,younger than 13,"no, only English or Spanish",no,2025-07-22_20h49.05.745,empathy_intonation_perc,2024.2.4,Linux x86_64,59.88023952,662966f0b2169f8047af1345,687ed1b7e638a4cbf2f02089,6880313f08240a5654ef012f,,,,,,,,,,,,,,1,,,,,,,,,,,,,,,,,,,,,,,,,,,,,,,,,,,,,,,,,,,,,,,,,,,,,,,,,25,bisagra,,,,,914.7055,916.019,0,0,0.7886,,0,52,52,24,1,REAL,FAKE,,,,,,,,,,,,,,,,,
,,,,,,,,,,spanish,younger than 13,"no, only English or Spanish",no,2025-07-22_20h49.05.745,empathy_intonation_perc,2024.2.4,Linux x86_64,59.88023952,662966f0b2169f8047af1345,687ed1b7e638a4cbf2f02089,6880313f08240a5654ef012f,,,,,,,,,,,,,,0,,,,,,,,,,,,,,,,,,,,,,,,,,,,,,,,,,,,,,,,,,,,,,,,,,,,,,,,,79,tropaje,,,,,916.0211,919.9279,0,1,3.3814,,0,53,53,78,1,REAL,FAKE,,,,,,,,,,,,,,,,,
,,,,,,,,,,spanish,younger than 13,"no, only English or Spanish",no,2025-07-22_20h49.05.745,empathy_intonation_perc,2024.2.4,Linux x86_64,59.88023952,662966f0b2169f8047af1345,687ed1b7e638a4cbf2f02089,6880313f08240a5654ef012f,,,,,,,,,,,,,,1,,,,,,,,,,,,,,,,,,,,,,,,,,,,,,,,,,,,,,,,,,,,,,,,,,,,,,,,,46,martillo,,,,,919.9298,921.4665,0,0,1.0028,,0,54,54,45,1,REAL,FAKE,,,,,,,,,,,,,,,,,
,,,,,,,,,,spanish,younger than 13,"no, only English or Spanish",no,2025-07-22_20h49.05.745,empathy_intonation_perc,2024.2.4,Linux x86_64,59.88023952,662966f0b2169f8047af1345,687ed1b7e638a4cbf2f02089,6880313f08240a5654ef012f,,,,,,,,,,,,,,0,,,,,,,,,,,,,,,,,,,,,,,,,,,,,,,,,,,,,,,,,,,,,,,,,,,,,,,,,92,click the 0 key.,,,,,921.4702,923.4608,0,1,1.4453,,0,55,55,91,1,REAL,FAKE,,,,,,,,,,,,,,,,,
,,,,,,,,,,spanish,younger than 13,"no, only English or Spanish",no,2025-07-22_20h49.05.745,empathy_intonation_perc,2024.2.4,Linux x86_64,59.88023952,662966f0b2169f8047af1345,687ed1b7e638a4cbf2f02089,6880313f08240a5654ef012f,,,,,,,,,,,,,,1,,,,,,,,,,,,,,,,,,,,,,,,,,,,,,,,,,,,,,,,,,,,,,,,,,,,,,,,,80,hormiga,,,,,923.4628,928.9284,0,0,4.9356,,0,56,56,79,1,REAL,FAKE,,,,,,,,,,,,,,,,,
,,,,,,,,,,spanish,younger than 13,"no, only English or Spanish",no,2025-07-22_20h49.05.745,empathy_intonation_perc,2024.2.4,Linux x86_64,59.88023952,662966f0b2169f8047af1345,687ed1b7e638a4cbf2f02089,6880313f08240a5654ef012f,,,,,,,,,,,,,,1,,,,,,,,,,,,,,,,,,,,,,,,,,,,,,,,,,,,,,,,,,,,,,,,,,,,,,,,,44,cuchara,,,,,928.9324,930.8047,1,1,1.3471,,0,57,57,43,1,REAL,FAKE,,,,,,,,,,,,,,,,,
,,,,,,,,,,spanish,younger than 13,"no, only English or Spanish",no,2025-07-22_20h49.05.745,empathy_intonation_perc,2024.2.4,Linux x86_64,59.88023952,662966f0b2169f8047af1345,687ed1b7e638a4cbf2f02089,6880313f08240a5654ef012f,,,,,,,,,,,,,,0,,,,,,,,,,,,,,,,,,,,,,,,,,,,,,,,,,,,,,,,,,,,,,,,,,,,,,,,,87,grodo,,,,,930.8076,932.5187,1,0,1.186,,0,58,58,86,1,REAL,FAKE,,,,,,,,,,,,,,,,,
,,,,,,,,,,spanish,younger than 13,"no, only English or Spanish",no,2025-07-22_20h49.05.745,empathy_intonation_perc,2024.2.4,Linux x86_64,59.88023952,662966f0b2169f8047af1345,687ed1b7e638a4cbf2f02089,6880313f08240a5654ef012f,,,,,,,,,,,,,,1,,,,,,,,,,,,,,,,,,,,,,,,,,,,,,,,,,,,,,,,,,,,,,,,,,,,,,,,,69,engatusar,,,,,932.5212,936.0463,0,0,2.9951,,0,59,59,68,1,REAL,FAKE,,,,,,,,,,,,,,,,,
,,,,,,,,,,spanish,younger than 13,"no, only English or Spanish",no,2025-07-22_20h49.05.745,empathy_intonation_perc,2024.2.4,Linux x86_64,59.88023952,662966f0b2169f8047af1345,687ed1b7e638a4cbf2f02089,6880313f08240a5654ef012f,,,,,,,,,,,,,,0,,,,,,,,,,,,,,,,,,,,,,,,,,,,,,,,,,,,,,,,,,,,,,,,,,,,,,,,,4,batillón,,,,,936.0485,938.7767,1,0,2.2002,,0,60,60,3,1,REAL,FAKE,,,,,,,,,,,,,,,,,
,,,,,,,,,,spanish,younger than 13,"no, only English or Spanish",no,2025-07-22_20h49.05.745,empathy_intonation_perc,2024.2.4,Linux x86_64,59.88023952,662966f0b2169f8047af1345,687ed1b7e638a4cbf2f02089,6880313f08240a5654ef012f,,,,,,,,,,,,,,1,,,,,,,,,,,,,,,,,,,,,,,,,,,,,,,,,,,,,,,,,,,,,,,,,,,,,,,,,64,orgulloso,,,,,938.7793,940.3672,0,0,1.0501,,0,61,61,63,1,REAL,FAKE,,,,,,,,,,,,,,,,,
,,,,,,,,,,spanish,younger than 13,"no, only English or Spanish",no,2025-07-22_20h49.05.745,empathy_intonation_perc,2024.2.4,Linux x86_64,59.88023952,662966f0b2169f8047af1345,687ed1b7e638a4cbf2f02089,6880313f08240a5654ef012f,,,,,,,,,,,,,,0,,,,,,,,,,,,,,,,,,,,,,,,,,,,,,,,,,,,,,,,,,,,,,,,,,,,,,,,,27,acutación,,,,,940.3695,944.0536,0,1,3.1462,,0,62,62,26,1,REAL,FAKE,,,,,,,,,,,,,,,,,
,,,,,,,,,,spanish,younger than 13,"no, only English or Spanish",no,2025-07-22_20h49.05.745,empathy_intonation_perc,2024.2.4,Linux x86_64,59.88023952,662966f0b2169f8047af1345,687ed1b7e638a4cbf2f02089,6880313f08240a5654ef012f,,,,,,,,,,,,,,1,,,,,,,,,,,,,,,,,,,,,,,,,,,,,,,,,,,,,,,,,,,,,,,,,,,,,,,,,81,pozo,,,,,944.0567,945.4193,0,0,0.8215,,0,63,63,80,1,REAL,FAKE,,,,,,,,,,,,,,,,,
,,,,,,,,,,spanish,younger than 13,"no, only English or Spanish",no,2025-07-22_20h49.05.745,empathy_intonation_perc,2024.2.4,Linux x86_64,59.88023952,662966f0b2169f8047af1345,687ed1b7e638a4cbf2f02089,6880313f08240a5654ef012f,,,,,,,,,,,,,,1,,,,,,,,,,,,,,,,,,,,,,,,,,,,,,,,,,,,,,,,,,,,,,,,,,,,,,,,,54,fomentar,,,,,945.4221,946.8558,0,0,0.895,,0,64,64,53,1,REAL,FAKE,,,,,,,,,,,,,,,,,
,,,,,,,,,,spanish,younger than 13,"no, only English or Spanish",no,2025-07-22_20h49.05.745,empathy_intonation_perc,2024.2.4,Linux x86_64,59.88023952,662966f0b2169f8047af1345,687ed1b7e638a4cbf2f02089,6880313f08240a5654ef012f,,,,,,,,,,,,,,1,,,,,,,,,,,,,,,,,,,,,,,,,,,,,,,,,,,,,,,,,,,,,,,,,,,,,,,,,51,candado,,,,,946.8587,949.5651,0,0,2.1724,,0,65,65,50,1,REAL,FAKE,,,,,,,,,,,,,,,,,
,,,,,,,,,,spanish,younger than 13,"no, only English or Spanish",no,2025-07-22_20h49.05.745,empathy_intonation_perc,2024.2.4,Linux x86_64,59.88023952,662966f0b2169f8047af1345,687ed1b7e638a4cbf2f02089,6880313f08240a5654ef012f,,,,,,,,,,,,,,0,,,,,,,,,,,,,,,,,,,,,,,,,,,,,,,,,,,,,,,,,,,,,,,,,,,,,,,,,82,empirador,,,,,949.5674,953.29,1,0,3.1833,,0,66,66,81,1,REAL,FAKE,,,,,,,,,,,,,,,,,
,,,,,,,,,,spanish,younger than 13,"no, only English or Spanish",no,2025-07-22_20h49.05.745,empathy_intonation_perc,2024.2.4,Linux x86_64,59.88023952,662966f0b2169f8047af1345,687ed1b7e638a4cbf2f02089,6880313f08240a5654ef012f,,,,,,,,,,,,,,1,,,,,,,,,,,,,,,,,,,,,,,,,,,,,,,,,,,,,,,,,,,,,,,,,,,,,,,,,2,pellizcar,,,,,953.2923,954.7626,0,0,0.9396,,0,67,67,1,1,REAL,FAKE,,,,,,,,,,,,,,,,,
,,,,,,,,,,spanish,younger than 13,"no, only English or Spanish",no,2025-07-22_20h49.05.745,empathy_intonation_perc,2024.2.4,Linux x86_64,59.88023952,662966f0b2169f8047af1345,687ed1b7e638a4cbf2f02089,6880313f08240a5654ef012f,,,,,,,,,,,,,,0,,,,,,,,,,,,,,,,,,,,,,,,,,,,,,,,,,,,,,,,,,,,,,,,,,,,,,,,,53,vegada,,,,,954.7653,957.8449,0,1,2.5451,,0,68,68,52,1,REAL,FAKE,,,,,,,,,,,,,,,,,
,,,,,,,,,,spanish,younger than 13,"no, only English or Spanish",no,2025-07-22_20h49.05.745,empathy_intonation_perc,2024.2.4,Linux x86_64,59.88023952,662966f0b2169f8047af1345,687ed1b7e638a4cbf2f02089,6880313f08240a5654ef012f,,,,,,,,,,,,,,1,,,,,,,,,,,,,,,,,,,,,,,,,,,,,,,,,,,,,,,,,,,,,,,,,,,,,,,,,43,canela,,,,,957.8486,959.4125,0,0,1.0326,,0,69,69,42,1,REAL,FAKE,,,,,,,,,,,,,,,,,
,,,,,,,,,,spanish,younger than 13,"no, only English or Spanish",no,2025-07-22_20h49.05.745,empathy_intonation_perc,2024.2.4,Linux x86_64,59.88023952,662966f0b2169f8047af1345,687ed1b7e638a4cbf2f02089,6880313f08240a5654ef012f,,,,,,,,,,,,,,1,,,,,,,,,,,,,,,,,,,,,,,,,,,,,,,,,,,,,,,,,,,,,,,,,,,,,,,,,31,pandilla,,,,,959.4144,962.1588,1,1,2.2119,,0,70,70,30,1,REAL,FAKE,,,,,,,,,,,,,,,,,
,,,,,,,,,,spanish,younger than 13,"no, only English or Spanish",no,2025-07-22_20h49.05.745,empathy_intonation_perc,2024.2.4,Linux x86_64,59.88023952,662966f0b2169f8047af1345,687ed1b7e638a4cbf2f02089,6880313f08240a5654ef012f,,,,,,,,,,,,,,1,,,,,,,,,,,,,,,,,,,,,,,,,,,,,,,,,,,,,,,,,,,,,,,,,,,,,,,,,91,click the 1 key.,,,,,962.1621,964.334,1,1,1.6405,,0,71,71,90,1,REAL,FAKE,,,,,,,,,,,,,,,,,
,,,,,,,,,,spanish,younger than 13,"no, only English or Spanish",no,2025-07-22_20h49.05.745,empathy_intonation_perc,2024.2.4,Linux x86_64,59.88023952,662966f0b2169f8047af1345,687ed1b7e638a4cbf2f02089,6880313f08240a5654ef012f,,,,,,,,,,,,,,1,,,,,,,,,,,,,,,,,,,,,,,,,,,,,,,,,,,,,,,,,,,,,,,,,,,,,,,,,59,besar,,,,,964.3374,965.6949,0,0,0.8209,,0,72,72,58,1,REAL,FAKE,,,,,,,,,,,,,,,,,
,,,,,,,,,,spanish,younger than 13,"no, only English or Spanish",no,2025-07-22_20h49.05.745,empathy_intonation_perc,2024.2.4,Linux x86_64,59.88023952,662966f0b2169f8047af1345,687ed1b7e638a4cbf2f02089,6880313f08240a5654ef012f,,,,,,,,,,,,,,1,,,,,,,,,,,,,,,,,,,,,,,,,,,,,,,,,,,,,,,,,,,,,,,,,,,,,,,,,52,camisa,,,,,965.6976,967.0478,0,0,0.8146,,0,73,73,51,1,REAL,FAKE,,,,,,,,,,,,,,,,,
,,,,,,,,,,spanish,younger than 13,"no, only English or Spanish",no,2025-07-22_20h49.05.745,empathy_intonation_perc,2024.2.4,Linux x86_64,59.88023952,662966f0b2169f8047af1345,687ed1b7e638a4cbf2f02089,6880313f08240a5654ef012f,,,,,,,,,,,,,,1,,,,,,,,,,,,,,,,,,,,,,,,,,,,,,,,,,,,,,,,,,,,,,,,,,,,,,,,,60,matar,,,,,967.0502,968.3778,0,0,0.8069,,0,74,74,59,1,REAL,FAKE,,,,,,,,,,,,,,,,,
,,,,,,,,,,spanish,younger than 13,"no, only English or Spanish",no,2025-07-22_20h49.05.745,empathy_intonation_perc,2024.2.4,Linux x86_64,59.88023952,662966f0b2169f8047af1345,687ed1b7e638a4cbf2f02089,6880313f08240a5654ef012f,,,,,,,,,,,,,,0,,,,,,,,,,,,,,,,,,,,,,,,,,,,,,,,,,,,,,,,,,,,,,,,,,,,,,,,,33,pauca,,,,,968.3809,969.7363,0,1,0.8242,,0,75,75,32,1,REAL,FAKE,,,,,,,,,,,,,,,,,
,,,,,,,,,,spanish,younger than 13,"no, only English or Spanish",no,2025-07-22_20h49.05.745,empathy_intonation_perc,2024.2.4,Linux x86_64,59.88023952,662966f0b2169f8047af1345,687ed1b7e638a4cbf2f02089,6880313f08240a5654ef012f,,,,,,,,,,,,,,1,,,,,,,,,,,,,,,,,,,,,,,,,,,,,,,,,,,,,,,,,,,,,,,,,,,,,,,,,49,ganar,,,,,969.739,971.428,1,1,1.1649,,0,76,76,48,1,REAL,FAKE,,,,,,,,,,,,,,,,,
,,,,,,,,,,spanish,younger than 13,"no, only English or Spanish",no,2025-07-22_20h49.05.745,empathy_intonation_perc,2024.2.4,Linux x86_64,59.88023952,662966f0b2169f8047af1345,687ed1b7e638a4cbf2f02089,6880313f08240a5654ef012f,,,,,,,,,,,,,,1,,,,,,,,,,,,,,,,,,,,,,,,,,,,,,,,,,,,,,,,,,,,,,,,,,,,,,,,,45,jilguero,,,,,971.4304,973.524,0,0,1.5664,,0,77,77,44,1,REAL,FAKE,,,,,,,,,,,,,,,,,
,,,,,,,,,,spanish,younger than 13,"no, only English or Spanish",no,2025-07-22_20h49.05.745,empathy_intonation_perc,2024.2.4,Linux x86_64,59.88023952,662966f0b2169f8047af1345,687ed1b7e638a4cbf2f02089,6880313f08240a5654ef012f,,,,,,,,,,,,,,0,,,,,,,,,,,,,,,,,,,,,,,,,,,,,,,,,,,,,,,,,,,,,,,,,,,,,,,,,42,cadallo,,,,,973.5264,977.7558,0,1,3.7083,,0,78,78,41,1,REAL,FAKE,,,,,,,,,,,,,,,,,
,,,,,,,,,,spanish,younger than 13,"no, only English or Spanish",no,2025-07-22_20h49.05.745,empathy_intonation_perc,2024.2.4,Linux x86_64,59.88023952,662966f0b2169f8047af1345,687ed1b7e638a4cbf2f02089,6880313f08240a5654ef012f,,,,,,,,,,,,,,1,,,,,,,,,,,,,,,,,,,,,,,,,,,,,,,,,,,,,,,,,,,,,,,,,,,,,,,,,73,hervidor,,,,,977.7587,979.0684,0,0,0.7753,,0,79,79,72,1,REAL,FAKE,,,,,,,,,,,,,,,,,
,,,,,,,,,,spanish,younger than 13,"no, only English or Spanish",no,2025-07-22_20h49.05.745,empathy_intonation_perc,2024.2.4,Linux x86_64,59.88023952,662966f0b2169f8047af1345,687ed1b7e638a4cbf2f02089,6880313f08240a5654ef012f,,,,,,,,,,,,,,1,,,,,,,,,,,,,,,,,,,,,,,,,,,,,,,,,,,,,,,,,,,,,,,,,,,,,,,,,28,merodear,,,,,979.071,981.2846,0,0,1.6747,,0,80,80,27,1,REAL,FAKE,,,,,,,,,,,,,,,,,
,,,,,,,,,,spanish,younger than 13,"no, only English or Spanish",no,2025-07-22_20h49.05.745,empathy_intonation_perc,2024.2.4,Linux x86_64,59.88023952,662966f0b2169f8047af1345,687ed1b7e638a4cbf2f02089,6880313f08240a5654ef012f,,,,,,,,,,,,,,0,,,,,,,,,,,,,,,,,,,,,,,,,,,,,,,,,,,,,,,,,,,,,,,,,,,,,,,,,1,terzo,,,,,981.2877,983.5414,0,1,1.725,,0,81,81,0,1,REAL,FAKE,,,,,,,,,,,,,,,,,
,,,,,,,,,,spanish,younger than 13,"no, only English or Spanish",no,2025-07-22_20h49.05.745,empathy_intonation_perc,2024.2.4,Linux x86_64,59.88023952,662966f0b2169f8047af1345,687ed1b7e638a4cbf2f02089,6880313f08240a5654ef012f,,,,,,,,,,,,,,1,,,,,,,,,,,,,,,,,,,,,,,,,,,,,,,,,,,,,,,,,,,,,,,,,,,,,,,,,24,látigo,,,,,983.5437,985.1437,1,1,1.0713,,0,82,82,23,1,REAL,FAKE,,,,,,,,,,,,,,,,,
,,,,,,,,,,spanish,younger than 13,"no, only English or Spanish",no,2025-07-22_20h49.05.745,empathy_intonation_perc,2024.2.4,Linux x86_64,59.88023952,662966f0b2169f8047af1345,687ed1b7e638a4cbf2f02089,6880313f08240a5654ef012f,,,,,,,,,,,,,,1,,,,,,,,,,,,,,,,,,,,,,,,,,,,,,,,,,,,,,,,,,,,,,,,,,,,,,,,,38,estornudar,,,,,985.1463,986.3947,0,0,0.7151,,0,83,83,37,1,REAL,FAKE,,,,,,,,,,,,,,,,,
,,,,,,,,,,spanish,younger than 13,"no, only English or Spanish",no,2025-07-22_20h49.05.745,empathy_intonation_perc,2024.2.4,Linux x86_64,59.88023952,662966f0b2169f8047af1345,687ed1b7e638a4cbf2f02089,6880313f08240a5654ef012f,,,,,,,,,,,,,,0,,,,,,,,,,,,,,,,,,,,,,,,,,,,,,,,,,,,,,,,,,,,,,,,,,,,,,,,,18,arsa,,,,,986.3973,987.6609,0,1,0.7256,,0,84,84,17,1,REAL,FAKE,,,,,,,,,,,,,,,,,
,,,,,,,,,,spanish,younger than 13,"no, only English or Spanish",no,2025-07-22_20h49.05.745,empathy_intonation_perc,2024.2.4,Linux x86_64,59.88023952,662966f0b2169f8047af1345,687ed1b7e638a4cbf2f02089,6880313f08240a5654ef012f,,,,,,,,,,,,,,0,,,,,,,,,,,,,,,,,,,,,,,,,,,,,,,,,,,,,,,,,,,,,,,,,,,,,,,,,30,alardio,,,,,987.6636,990.0412,0,1,1.8541,,0,85,85,29,1,REAL,FAKE,,,,,,,,,,,,,,,,,
,,,,,,,,,,spanish,younger than 13,"no, only English or Spanish",no,2025-07-22_20h49.05.745,empathy_intonation_perc,2024.2.4,Linux x86_64,59.88023952,662966f0b2169f8047af1345,687ed1b7e638a4cbf2f02089,6880313f08240a5654ef012f,,,,,,,,,,,,,,0,,,,,,,,,,,,,,,,,,,,,,,,,,,,,,,,,,,,,,,,,,,,,,,,,,,,,,,,,58,plaudir,,,,,990.0433,992.3419,0,1,1.759,,0,86,86,57,1,REAL,FAKE,,,,,,,,,,,,,,,,,
,,,,,,,,,,spanish,younger than 13,"no, only English or Spanish",no,2025-07-22_20h49.05.745,empathy_intonation_perc,2024.2.4,Linux x86_64,59.88023952,662966f0b2169f8047af1345,687ed1b7e638a4cbf2f02089,6880313f08240a5654ef012f,,,,,,,,,,,,,,0,,,,,,,,,,,,,,,,,,,,,,,,,,,,,,,,,,,,,,,,,,,,,,,,,,,,,,,,,8,cadeña,,,,,992.3446,998.0224,0,1,5.151,,0,87,87,7,1,REAL,FAKE,,,,,,,,,,,,,,,,,
,,,,,,,,,,spanish,younger than 13,"no, only English or Spanish",no,2025-07-22_20h49.05.745,empathy_intonation_perc,2024.2.4,Linux x86_64,59.88023952,662966f0b2169f8047af1345,687ed1b7e638a4cbf2f02089,6880313f08240a5654ef012f,,,,,,,,,,,,,,1,,,,,,,,,,,,,,,,,,,,,,,,,,,,,,,,,,,,,,,,,,,,,,,,,,,,,,,,,61,seda,,,,,998.0252,1001.6007,1,1,3.033,,0,88,88,60,1,REAL,FAKE,,,,,,,,,,,,,,,,,
,,,,,,,,,,spanish,younger than 13,"no, only English or Spanish",no,2025-07-22_20h49.05.745,empathy_intonation_perc,2024.2.4,Linux x86_64,59.88023952,662966f0b2169f8047af1345,687ed1b7e638a4cbf2f02089,6880313f08240a5654ef012f,,,,,,,,,,,,,,0,,,,,,,,,,,,,,,,,,,,,,,,,,,,,,,,,,,,,,,,,,,,,,,,,,,,,,,,,32,fatacidad,,,,,1001.6029,1003.0672,0,1,0.9348,,0,89,89,31,1,REAL,FAKE,,,,,,,,,,,,,,,,,
,,,,,,,,,,spanish,younger than 13,"no, only English or Spanish",no,2025-07-22_20h49.05.745,empathy_intonation_perc,2024.2.4,Linux x86_64,59.88023952,662966f0b2169f8047af1345,687ed1b7e638a4cbf2f02089,6880313f08240a5654ef012f,,,,,,,,,,,,,,1,,,,,,,,,,,,,,,,,,,,,,,,,,,,,,,,,,,,,,,,,,,,,,,,,,,,,,,,,89,prisa,,,,,1003.0708,1004.4145,0,0,0.8299,,0,90,90,88,1,REAL,FAKE,,,,,,,,,,,,,,,,,
,,,,,,,,,,spanish,younger than 13,"no, only English or Spanish",no,2025-07-22_20h49.05.745,empathy_intonation_perc,2024.2.4,Linux x86_64,59.88023952,662966f0b2169f8047af1345,687ed1b7e638a4cbf2f02089,6880313f08240a5654ef012f,,,,,,,,,,,,,,0,,,,,,,,,,,,,,,,,,,,,,,,,,,,,,,,,,,,,,,,,,,,,,,,,,,,,,,,,47,cartinar,,,,,1004.4166,1006.1452,0,1,1.2016,,0,91,91,46,1,REAL,FAKE,,,,,,,,,,,,,,,,,
,,,,,,,,,,spanish,younger than 13,"no, only English or Spanish",no,2025-07-22_20h49.05.745,empathy_intonation_perc,2024.2.4,Linux x86_64,59.88023952,662966f0b2169f8047af1345,687ed1b7e638a4cbf2f02089,6880313f08240a5654ef012f,,,,,,,,,,,,,,,,,,,,,,,,,,,,,,,,,,,,,,,,,,,,,,,,,,,,,,,,,,,,,,,,,,,,,,,,,,,,,,,,,,,,,,,,,,1006.1469,1015.5243,,,,,,,,,,,,,,,
,,,,,,,,,,spanish,younger than 13,"no, only English or Spanish",no,2025-07-22_20h49.05.745,empathy_intonation_perc,2024.2.4,Linux x86_64,59.88023952,662966f0b2169f8047af1345,687ed1b7e638a4cbf2f02089,6880313f08240a5654ef012f,,,,,,,,,,,,,1,,,,,,,,,,,,,,,,,,,,,,,,,,,,,,,,,,,,,,,,,,,,,,,,,,,,,,,,,,,,,,,,,,,,,,,,,,,,,,,1015.5693,1023.5927,slightly agree,0,0,0,0,1,I can easily tell if someone else wants to enter a conversation.,1,0,1,0,,
,,,,,,,,,,spanish,younger than 13,"no, only English or Spanish",no,2025-07-22_20h49.05.745,empathy_intonation_perc,2024.2.4,Linux x86_64,59.88023952,662966f0b2169f8047af1345,687ed1b7e638a4cbf2f02089,6880313f08240a5654ef012f,,,,,,,,,,,,,2,,,,,,,,,,,,,,,,,,,,,,,,,,,,,,,,,,,,,,,,,,,,,,,,,,,,,,,,,,,,,,,,,,,,,,,,,,,,,,,1023.5964,1029.0194,slightly agree,0,1,1,1,1,I prefer animals to humans.,0,1,0,0,,
,,,,,,,,,,spanish,younger than 13,"no, only English or Spanish",no,2025-07-22_20h49.05.745,empathy_intonation_perc,2024.2.4,Linux x86_64,59.88023952,662966f0b2169f8047af1345,687ed1b7e638a4cbf2f02089,6880313f08240a5654ef012f,,,,,,,,,,,,,3,,,,,,,,,,,,,,,,,,,,,,,,,,,,,,,,,,,,,,,,,,,,,,,,,,,,,,,,,,,,,,,,,,,,,,,,,,,,,,,1029.0238,1032.9155,strongly disagree,0,2,2,2,1,I try to keep up with the current trends and fashions.,0,1,0,0,,
,,,,,,,,,,spanish,younger than 13,"no, only English or Spanish",no,2025-07-22_20h49.05.745,empathy_intonation_perc,2024.2.4,Linux x86_64,59.88023952,662966f0b2169f8047af1345,687ed1b7e638a4cbf2f02089,6880313f08240a5654ef012f,,,,,,,,,,,,,4,,,,,,,,,,,,,,,,,,,,,,,,,,,,,,,,,,,,,,,,,,,,,,,,,,,,,,,,,,,,,,,,,,,,,,,,,,,,,,,1032.9209,1040.7413,slightly disagree,0,3,3,3,1,"I find it difficult to explain to others things that I understand easily,   when they don't understand it first time.",1,0,0,1,,
,,,,,,,,,,spanish,younger than 13,"no, only English or Spanish",no,2025-07-22_20h49.05.745,empathy_intonation_perc,2024.2.4,Linux x86_64,59.88023952,662966f0b2169f8047af1345,687ed1b7e638a4cbf2f02089,6880313f08240a5654ef012f,,,,,,,,,,,,,5,,,,,,,,,,,,,,,,,,,,,,,,,,,,,,,,,,,,,,,,,,,,,,,,,,,,,,,,,,,,,,,,,,,,,,,,,,,,,,,1040.7441,1043.9543,slightly agree,0,4,4,4,1,I dream most nights.,0,1,0,0,,
,,,,,,,,,,spanish,younger than 13,"no, only English or Spanish",no,2025-07-22_20h49.05.745,empathy_intonation_perc,2024.2.4,Linux x86_64,59.88023952,662966f0b2169f8047af1345,687ed1b7e638a4cbf2f02089,6880313f08240a5654ef012f,,,,,,,,,,,,,6,,,,,,,,,,,,,,,,,,,,,,,,,,,,,,,,,,,,,,,,,,,,,,,,,,,,,,,,,,,,,,,,,,,,,,,,,,,,,,,1043.9577,1046.8689,slightly agree,0,5,5,5,1,I really enjoy caring for other people.,1,0,1,0,,
,,,,,,,,,,spanish,younger than 13,"no, only English or Spanish",no,2025-07-22_20h49.05.745,empathy_intonation_perc,2024.2.4,Linux x86_64,59.88023952,662966f0b2169f8047af1345,687ed1b7e638a4cbf2f02089,6880313f08240a5654ef012f,,,,,,,,,,,,,7,,,,,,,,,,,,,,,,,,,,,,,,,,,,,,,,,,,,,,,,,,,,,,,,,,,,,,,,,,,,,,,,,,,,,,,,,,,,,,,1046.8737,1052.1807,strongly agree,0,6,6,6,1,I try to solve my own problems rather than discussing them with others.,0,1,0,0,,
,,,,,,,,,,spanish,younger than 13,"no, only English or Spanish",no,2025-07-22_20h49.05.745,empathy_intonation_perc,2024.2.4,Linux x86_64,59.88023952,662966f0b2169f8047af1345,687ed1b7e638a4cbf2f02089,6880313f08240a5654ef012f,,,,,,,,,,,,,8,,,,,,,,,,,,,,,,,,,,,,,,,,,,,,,,,,,,,,,,,,,,,,,,,,,,,,,,,,,,,,,,,,,,,,,,,,,,,,,1052.1848,1058.1067,slightly agree,0,7,7,7,1,I find it hard to know what to do in a social situation.,1,0,0,1,,
,,,,,,,,,,spanish,younger than 13,"no, only English or Spanish",no,2025-07-22_20h49.05.745,empathy_intonation_perc,2024.2.4,Linux x86_64,59.88023952,662966f0b2169f8047af1345,687ed1b7e638a4cbf2f02089,6880313f08240a5654ef012f,,,,,,,,,,,,,9,,,,,,,,,,,,,,,,,,,,,,,,,,,,,,,,,,,,,,,,,,,,,,,,,,,,,,,,,,,,,,,,,,,,,,,,,,,,,,,1058.1106,1060.7712,strongly agree,0,8,8,8,1,I am at my best first thing in the morning.,0,1,0,0,,
,,,,,,,,,,spanish,younger than 13,"no, only English or Spanish",no,2025-07-22_20h49.05.745,empathy_intonation_perc,2024.2.4,Linux x86_64,59.88023952,662966f0b2169f8047af1345,687ed1b7e638a4cbf2f02089,6880313f08240a5654ef012f,,,,,,,,,,,,,10,,,,,,,,,,,,,,,,,,,,,,,,,,,,,,,,,,,,,,,,,,,,,,,,,,,,,,,,,,,,,,,,,,,,,,,,,,,,,,,1060.7756,1066.5159,strongly disagree,0,9,9,9,1,People often tell me that I went too far in driving my point home in a discussion.,1,0,0,1,,
,,,,,,,,,,spanish,younger than 13,"no, only English or Spanish",no,2025-07-22_20h49.05.745,empathy_intonation_perc,2024.2.4,Linux x86_64,59.88023952,662966f0b2169f8047af1345,687ed1b7e638a4cbf2f02089,6880313f08240a5654ef012f,,,,,,,,,,,,,11,,,,,,,,,,,,,,,,,,,,,,,,,,,,,,,,,,,,,,,,,,,,,,,,,,,,,,,,,,,,,,,,,,,,,,,,,,,,,,,1066.5199,1070.2116,strongly disagree,0,10,10,10,1,It doesn't bother me too much if I am late meeting a friend.,1,0,0,1,,
,,,,,,,,,,spanish,younger than 13,"no, only English or Spanish",no,2025-07-22_20h49.05.745,empathy_intonation_perc,2024.2.4,Linux x86_64,59.88023952,662966f0b2169f8047af1345,687ed1b7e638a4cbf2f02089,6880313f08240a5654ef012f,,,,,,,,,,,,,12,,,,,,,,,,,,,,,,,,,,,,,,,,,,,,,,,,,,,,,,,,,,,,,,,,,,,,,,,,,,,,,,,,,,,,,,,,,,,,,1070.2168,1074.3575,slightly disagree,0,11,11,11,1,"Friendships and relationships are just too difficult, so I tend not to 
  bother with them.",1,0,0,1,,
,,,,,,,,,,spanish,younger than 13,"no, only English or Spanish",no,2025-07-22_20h49.05.745,empathy_intonation_perc,2024.2.4,Linux x86_64,59.88023952,662966f0b2169f8047af1345,687ed1b7e638a4cbf2f02089,6880313f08240a5654ef012f,,,,,,,,,,,,,13,,,,,,,,,,,,,,,,,,,,,,,,,,,,,,,,,,,,,,,,,,,,,,,,,,,,,,,,,,,,,,,,,,,,,,,,,,,,,,,1074.3614,1078.5366,slightly agree,0,12,12,12,1,"I would never break a law, no matter how minor.",0,1,0,0,,
,,,,,,,,,,spanish,younger than 13,"no, only English or Spanish",no,2025-07-22_20h49.05.745,empathy_intonation_perc,2024.2.4,Linux x86_64,59.88023952,662966f0b2169f8047af1345,687ed1b7e638a4cbf2f02089,6880313f08240a5654ef012f,,,,,,,,,,,,,14,,,,,,,,,,,,,,,,,,,,,,,,,,,,,,,,,,,,,,,,,,,,,,,,,,,,,,,,,,,,,,,,,,,,,,,,,,,,,,,1078.5435,1082.4996,strongly disagree,0,13,13,13,1,I often find it difficult to judge if something is rude or polite.,1,0,0,1,,
,,,,,,,,,,spanish,younger than 13,"no, only English or Spanish",no,2025-07-22_20h49.05.745,empathy_intonation_perc,2024.2.4,Linux x86_64,59.88023952,662966f0b2169f8047af1345,687ed1b7e638a4cbf2f02089,6880313f08240a5654ef012f,,,,,,,,,,,,,15,,,,,,,,,,,,,,,,,,,,,,,,,,,,,,,,,,,,,,,,,,,,,,,,,,,,,,,,,,,,,,,,,,,,,,,,,,,,,,,1082.5047,1087.8943,slightly disagree,0,14,14,14,1,"In a conversation, I tend to focus on my own thoughts rather than on what 
  my listener might be thinking.",1,0,0,1,,
,,,,,,,,,,spanish,younger than 13,"no, only English or Spanish",no,2025-07-22_20h49.05.745,empathy_intonation_perc,2024.2.4,Linux x86_64,59.88023952,662966f0b2169f8047af1345,687ed1b7e638a4cbf2f02089,6880313f08240a5654ef012f,,,,,,,,,,,,,16,,,,,,,,,,,,,,,,,,,,,,,,,,,,,,,,,,,,,,,,,,,,,,,,,,,,,,,,,,,,,,,,,,,,,,,,,,,,,,,1087.8981,1095.8862,slightly disagree,0,15,15,15,1,I prefer practical jokes to verbal humor.,0,1,0,0,,
