instructions_exposure.started,instructions_exposure.stopped,instructions_exposure_loop.thisRepN,instructions_exposure_loop.thisTrialN,instructions_exposure_loop.thisN,instructions_exposure_loop.thisIndex,instructions_exposure_loop.ran,instructions_text,continue_text,participant_id,"What variety of Spanish are you most familiar with? (e.g., Peruvian, Spanish, Mexican)",At what age did you begin learning Spanish?,Are you proficient in any languages other than English/Spanish?,"Are you familiar with Caribbean (e.g., Caribbean, Puerto Rican) or Galician Spanish?",date,expName,psychopyVersion,OS,frameRate,id,study_id,session,trial_exposure.started,trial_exposure.stopped,key_resp_exposure.keys,key_resp_exposure.corr,key_resp_exposure.rt,key_resp_exposure.duration,key_resp.keys,exposure_loop.thisRepN,exposure_loop.thisTrialN,exposure_loop.thisN,exposure_loop.thisIndex,exposure_loop.ran,item_num,correct_response,question,path,duration,instructions_2afc.started,instructions_2afc.stopped,instructions_2afc_loop.thisRepN,instructions_2afc_loop.thisTrialN,instructions_2afc_loop.thisN,instructions_2afc_loop.thisIndex,instructions_2afc_loop.ran,practice_2afc.started,practice_2afc.stopped,key_resp_2afc_practice.keys,key_resp_2afc_practice.corr,key_resp_2afc_practice.rt,key_resp_2afc_practice.duration,trials_2afc_practice_loop.thisRepN,trials_2afc_practice_loop.thisTrialN,trials_2afc_practice_loop.thisN,trials_2afc_practice_loop.thisIndex,trials_2afc_practice_loop.ran,check_2afc.started,check_2afc.stopped,trial_2afc.started,trial_2afc.stopped,key_resp_2afc_trial.keys,key_resp_2afc_trial.corr,key_resp_2afc_trial.rt,key_resp_2afc_trial.duration,trials_2afc_loop.thisRepN,trials_2afc_loop.thisTrialN,trials_2afc_loop.thisN,trials_2afc_loop.thisIndex,trials_2afc_loop.ran,target,variety,instructions_lextale.started,instructions_lextale.stopped,instructions_lextale_loop.thisRepN,instructions_lextale_loop.thisTrialN,instructions_lextale_loop.thisN,instructions_lextale_loop.thisIndex,instructions_lextale_loop.ran,practice_lextale.started,practice_lextale.stopped,key_resp_lextale_practice.keys,key_resp_lextale_practice.corr,key_resp_lextale_practice.rt,key_resp_lextale_practice.duration,practice_feedback_lextale.started,practice_feedback_lextale.stopped,trials_lextale_practice_loop.thisRepN,trials_lextale_practice_loop.thisTrialN,trials_lextale_practice_loop.thisN,trials_lextale_practice_loop.thisIndex,trials_lextale_practice_loop.ran,stim,word,prac_button_real,prac_button_false,check_lextale.started,check_lextale.stopped,trial_lextale.started,trial_lextale.stopped,key_resp_lextale_trial.keys,key_resp_lextale_trial.corr,key_resp_lextale_trial.rt,key_resp_lextale_trial.duration,trials_lextale_loop.thisRepN,trials_lextale_loop.thisTrialN,trials_lextale_loop.thisN,trials_lextale_loop.thisIndex,trials_lextale_loop.ran,button_real,button_false,instructions_eq.started,instructions_eq.stopped,trial_eq.started,trial_eq.stopped,slider_eq_trial.response,trials_eq_loop.thisRepN,trials_eq_loop.thisTrialN,trials_eq_loop.thisN,trials_eq_loop.thisIndex,trials_eq_loop.ran,item,is_test_item,is_distractor,is_agree_score,is_disagree_score,end_exp.started,end_exp.stopped
0.008,1.695,0,0,0,0,1,"In the following task, you are going to hear a series of conversations.", (press the space bar to continue),,Spanish,younger than 13,click here to respond,click here to respond,2025-07-22_23h08.58.467,empathy_intonation_perc,2024.2.4,MacIntel,11.62790698,60ffa874681b76a16e189f84,687ed1b7e638a4cbf2f02089,6880523314bb17e231ec688d,,,,,,,,,,,,,,,,,,,,,,,,,,,,,,,,,,,,,,,,,,,,,,,,,,,,,,,,,,,,,,,,,,,,,,,,,,,,,,,,,,,,,,,,,,,,,,,,,,,,,,,,,,
1.697,3.023,0,1,1,1,1,It is okay if you don't not 100% understand them!, (press the space bar to continue),,Spanish,younger than 13,click here to respond,click here to respond,2025-07-22_23h08.58.467,empathy_intonation_perc,2024.2.4,MacIntel,11.62790698,60ffa874681b76a16e189f84,687ed1b7e638a4cbf2f02089,6880523314bb17e231ec688d,,,,,,,,,,,,,,,,,,,,,,,,,,,,,,,,,,,,,,,,,,,,,,,,,,,,,,,,,,,,,,,,,,,,,,,,,,,,,,,,,,,,,,,,,,,,,,,,,,,,,,,,,,
3.025,5.275,0,2,2,2,1,"After, you will read a sentence about the conversation and decide if it's true or false.", (press the space bar to continue),,Spanish,younger than 13,click here to respond,click here to respond,2025-07-22_23h08.58.467,empathy_intonation_perc,2024.2.4,MacIntel,11.62790698,60ffa874681b76a16e189f84,687ed1b7e638a4cbf2f02089,6880523314bb17e231ec688d,,,,,,,,,,,,,,,,,,,,,,,,,,,,,,,,,,,,,,,,,,,,,,,,,,,,,,,,,,,,,,,,,,,,,,,,,,,,,,,,,,,,,,,,,,,,,,,,,,,,,,,,,,
5.278,7.52,0,3,3,3,1,"If it's true, press '1' (True) and if it's false press '0' (False).", (press the space bar to continue),,Spanish,younger than 13,click here to respond,click here to respond,2025-07-22_23h08.58.467,empathy_intonation_perc,2024.2.4,MacIntel,11.62790698,60ffa874681b76a16e189f84,687ed1b7e638a4cbf2f02089,6880523314bb17e231ec688d,,,,,,,,,,,,,,,,,,,,,,,,,,,,,,,,,,,,,,,,,,,,,,,,,,,,,,,,,,,,,,,,,,,,,,,,,,,,,,,,,,,,,,,,,,,,,,,,,,,,,,,,,,
,,,,,,,,,,Spanish,younger than 13,click here to respond,click here to respond,2025-07-22_23h08.58.467,empathy_intonation_perc,2024.2.4,MacIntel,11.62790698,60ffa874681b76a16e189f84,687ed1b7e638a4cbf2f02089,6880523314bb17e231ec688d,7.531,47.618,0,1,4.034,,,0,0,0,2,1,3,0,The mom already has rice.,./stim/exposure_wavs/pr_stimuli_convo.wav,36,,,,,,,,,,,,,,,,,,,,,,,,,,,,,,,,,,,,,,,,,,,,,,,,,,,,,,,,,,,,,,,,,,,,,,,,,,,,,,,,,,,,,,,,,
,,,,,,,,,,Spanish,younger than 13,click here to respond,click here to respond,2025-07-22_23h08.58.467,empathy_intonation_perc,2024.2.4,MacIntel,11.62790698,60ffa874681b76a16e189f84,687ed1b7e638a4cbf2f02089,6880523314bb17e231ec688d,47.621,110.791,1,1,3.117,,,0,1,1,1,1,2,1,The mom asked the daughter if she already went to the supermarket.,./stim/exposure_wavs/dr_stimuli_convo.wav,60,,,,,,,,,,,,,,,,,,,,,,,,,,,,,,,,,,,,,,,,,,,,,,,,,,,,,,,,,,,,,,,,,,,,,,,,,,,,,,,,,,,,,,,,,
,,,,,,,,,,Spanish,younger than 13,click here to respond,click here to respond,2025-07-22_23h08.58.467,empathy_intonation_perc,2024.2.4,MacIntel,11.62790698,60ffa874681b76a16e189f84,687ed1b7e638a4cbf2f02089,6880523314bb17e231ec688d,110.794,168.952,0,0,11.113,,,0,2,2,0,1,1,1,The son asked the mom if Aunt Marina is okay.,./stim/exposure_wavs/ga_stimuli_convo.wav,47,,,,,,,,,,,,,,,,,,,,,,,,,,,,,,,,,,,,,,,,,,,,,,,,,,,,,,,,,,,,,,,,,,,,,,,,,,,,,,,,,,,,,,,,,
,,,,,,,"In the following task you are going to hear a series of utterances. 

  You will decide if the utterances sound like questions or not using your keyboard.", (press the spacebar to continue),,Spanish,younger than 13,click here to respond,click here to respond,2025-07-22_23h08.58.467,empathy_intonation_perc,2024.2.4,MacIntel,11.62790698,60ffa874681b76a16e189f84,687ed1b7e638a4cbf2f02089,6880523314bb17e231ec688d,,,,,,,,,,,,,,,,,,168.962,173.191,0,0,0,0,1,,,,,,,,,,,,,,,,,,,,,,,,,,,,,,,,,,,,,,,,,,,,,,,,,,,,,,,,,,,,,,,,,,,,,,,,,,,,,,,,,,
,,,,,,,"If you believe the utterance is a question, type '1' (for 'yes') and if you do not 
  believe it is a question type '0' (for 'no').

  Let's practice a bit...", (press the spacebar to continue),,Spanish,younger than 13,click here to respond,click here to respond,2025-07-22_23h08.58.467,empathy_intonation_perc,2024.2.4,MacIntel,11.62790698,60ffa874681b76a16e189f84,687ed1b7e638a4cbf2f02089,6880523314bb17e231ec688d,,,,,,,,,,,,,,,,,,173.193,177.391,0,1,1,1,1,,,,,,,,,,,,,,,,,,,,,,,,,,,,,,,,,,,,,,,,,,,,,,,,,,,,,,,,,,,,,,,,,,,,,,,,,,,,,,,,,,
,,,,,,,,,,Spanish,younger than 13,click here to respond,click here to respond,2025-07-22_23h08.58.467,empathy_intonation_perc,2024.2.4,MacIntel,11.62790698,60ffa874681b76a16e189f84,687ed1b7e638a4cbf2f02089,6880523314bb17e231ec688d,,,,,,,,,,,,,,0,,./stim/wavs/cuban_statement_filler_Cocinabas-por-la-noche.wav,,,,,,,,,177.403,180.899,0,1,2.981,,0,0,0,4,1,,,,,,,,,,,,,,,,,,,,,,,,,,,,,,,,,,,,,,,,,,,,,,,,,,,,,,,,,,,,,,,,,,,,,,,
,,,,,,,,,,Spanish,younger than 13,click here to respond,click here to respond,2025-07-22_23h08.58.467,empathy_intonation_perc,2024.2.4,MacIntel,11.62790698,60ffa874681b76a16e189f84,687ed1b7e638a4cbf2f02089,6880523314bb17e231ec688d,,,,,,,,,,,,,,1,,./stim/wavs/mexican_question_filler_Felipe-no-tiene-contrasena.wav,,,,,,,,,180.9,184.116,1,1,2.695,,0,1,1,3,1,,,,,,,,,,,,,,,,,,,,,,,,,,,,,,,,,,,,,,,,,,,,,,,,,,,,,,,,,,,,,,,,,,,,,,,
,,,,,,,,,,Spanish,younger than 13,click here to respond,click here to respond,2025-07-22_23h08.58.467,empathy_intonation_perc,2024.2.4,MacIntel,11.62790698,60ffa874681b76a16e189f84,687ed1b7e638a4cbf2f02089,6880523314bb17e231ec688d,,,,,,,,,,,,,,0,,./stim/wavs/puertorican_statement_filler_La-nina-pinta-con-su-amiga.wav,,,,,,,,,184.116,187.085,0,1,2.456,,0,2,2,7,1,,,,,,,,,,,,,,,,,,,,,,,,,,,,,,,,,,,,,,,,,,,,,,,,,,,,,,,,,,,,,,,,,,,,,,,
,,,,,,,,,,Spanish,younger than 13,click here to respond,click here to respond,2025-07-22_23h08.58.467,empathy_intonation_perc,2024.2.4,MacIntel,11.62790698,60ffa874681b76a16e189f84,687ed1b7e638a4cbf2f02089,6880523314bb17e231ec688d,,,,,,,,,,,,,,0,,./stim/wavs/peruvian_statement_filler_El-nino-habla-con-su-madre.wav,,,,,,,,,187.086,189.994,0,1,2.381,,0,3,3,6,1,,,,,,,,,,,,,,,,,,,,,,,,,,,,,,,,,,,,,,,,,,,,,,,,,,,,,,,,,,,,,,,,,,,,,,,
,,,,,,,,,,Spanish,younger than 13,click here to respond,click here to respond,2025-07-22_23h08.58.467,empathy_intonation_perc,2024.2.4,MacIntel,11.62790698,60ffa874681b76a16e189f84,687ed1b7e638a4cbf2f02089,6880523314bb17e231ec688d,,,,,,,,,,,,,,1,,./stim/wavs/chilean_question_filler_Mi-padre-cantaba-bien.wav,,,,,,,,,189.995,193.967,0,0,3.462,,0,4,4,2,1,,,,,,,,,,,,,,,,,,,,,,,,,,,,,,,,,,,,,,,,,,,,,,,,,,,,,,,,,,,,,,,,,,,,,,,
,,,,,,,,,,Spanish,younger than 13,click here to respond,click here to respond,2025-07-22_23h08.58.467,empathy_intonation_perc,2024.2.4,MacIntel,11.62790698,60ffa874681b76a16e189f84,687ed1b7e638a4cbf2f02089,6880523314bb17e231ec688d,,,,,,,,,,,,,,0,,./stim/wavs/andalusian_statement_filler_Alberto-nunca-se-afeita.wav,,,,,,,,,193.968,196.301,0,1,1.825,,0,5,5,5,1,,,,,,,,,,,,,,,,,,,,,,,,,,,,,,,,,,,,,,,,,,,,,,,,,,,,,,,,,,,,,,,,,,,,,,,
,,,,,,,,,,Spanish,younger than 13,click here to respond,click here to respond,2025-07-22_23h08.58.467,empathy_intonation_perc,2024.2.4,MacIntel,11.62790698,60ffa874681b76a16e189f84,687ed1b7e638a4cbf2f02089,6880523314bb17e231ec688d,,,,,,,,,,,,,,1,,./stim/wavs/castilian_question_filler_Mi-esposo-conoce-al-chico.wav,,,,,,,,,196.302,199.106,1,1,2.289,,0,6,6,0,1,,,,,,,,,,,,,,,,,,,,,,,,,,,,,,,,,,,,,,,,,,,,,,,,,,,,,,,,,,,,,,,,,,,,,,,
,,,,,,,,,,Spanish,younger than 13,click here to respond,click here to respond,2025-07-22_23h08.58.467,empathy_intonation_perc,2024.2.4,MacIntel,11.62790698,60ffa874681b76a16e189f84,687ed1b7e638a4cbf2f02089,6880523314bb17e231ec688d,,,,,,,,,,,,,,1,,./stim/wavs/argentine_question_filler_Mi-vecino-habla-mucho.wav,,,,,,,,,199.107,201.175,1,1,1.56,,0,7,7,1,1,,,,,,,,,,,,,,,,,,,,,,,,,,,,,,,,,,,,,,,,,,,,,,,,,,,,,,,,,,,,,,,,,,,,,,,
,,,,,,,,,,Spanish,younger than 13,click here to respond,click here to respond,2025-07-22_23h08.58.467,empathy_intonation_perc,2024.2.4,MacIntel,11.62790698,60ffa874681b76a16e189f84,687ed1b7e638a4cbf2f02089,6880523314bb17e231ec688d,,,,,,,,,,,,,,,,,,,,,,,,,,,,,,,,,,,,201.176,205.406,,,,,,,,,,,,,,,,,,,,,,,,,,,,,,,,,,,,,,,,,,,,,,,,,,,,,,,,,,,,,,,,,,,,,
,,,,,,,,,,Spanish,younger than 13,click here to respond,click here to respond,2025-07-22_23h08.58.467,empathy_intonation_perc,2024.2.4,MacIntel,11.62790698,60ffa874681b76a16e189f84,687ed1b7e638a4cbf2f02089,6880523314bb17e231ec688d,,,,,,,,,,,,,8,1,,./stim/wavs/cuban_match_interrogative-total-yn_Daniel-iba-a-Bolivia.wav,,,,,,,,,,,,,,,,,,,,,,205.42,207.774,0,0,1.827,,0,0,0,7,1,1,cuban,,,,,,,,,,,,,,,,,,,,,,,,,,,,,,,,,,,,,,,,,,,,,,,,,,,,,,,,
,,,,,,,,,,Spanish,younger than 13,click here to respond,click here to respond,2025-07-22_23h08.58.467,empathy_intonation_perc,2024.2.4,MacIntel,11.62790698,60ffa874681b76a16e189f84,687ed1b7e638a4cbf2f02089,6880523314bb17e231ec688d,,,,,,,,,,,,,7,1,,./stim/wavs/cuban_match_interrogative-total-yn_Ana-lleva-el-abrigo.wav,,,,,,,,,,,,,,,,,,,,,,207.775,209.872,0,0,1.576,,0,1,1,6,1,1,cuban,,,,,,,,,,,,,,,,,,,,,,,,,,,,,,,,,,,,,,,,,,,,,,,,,,,,,,,,
,,,,,,,,,,Spanish,younger than 13,click here to respond,click here to respond,2025-07-22_23h08.58.467,empathy_intonation_perc,2024.2.4,MacIntel,11.62790698,60ffa874681b76a16e189f84,687ed1b7e638a4cbf2f02089,6880523314bb17e231ec688d,,,,,,,,,,,,,79,0,,./stim/wavs/mexican_mismatch_declarative-broad-focus_El-bebe-comia-muy-bien.wav,,,,,,,,,,,,,,,,,,,,,,209.872,212.187,0,1,1.797,,0,2,2,78,1,0,mexican,,,,,,,,,,,,,,,,,,,,,,,,,,,,,,,,,,,,,,,,,,,,,,,,,,,,,,,,
,,,,,,,,,,Spanish,younger than 13,click here to respond,click here to respond,2025-07-22_23h08.58.467,empathy_intonation_perc,2024.2.4,MacIntel,11.62790698,60ffa874681b76a16e189f84,687ed1b7e638a4cbf2f02089,6880523314bb17e231ec688d,,,,,,,,,,,,,81,0,,./stim/wavs/mexican_mismatch_declarative-broad-focus_La-maestra-vive-en-Paris.wav,,,,,,,,,,,,,,,,,,,,,,212.188,214.762,0,1,2.041,,0,3,3,80,1,0,mexican,,,,,,,,,,,,,,,,,,,,,,,,,,,,,,,,,,,,,,,,,,,,,,,,,,,,,,,,
,,,,,,,,,,Spanish,younger than 13,click here to respond,click here to respond,2025-07-22_23h08.58.467,empathy_intonation_perc,2024.2.4,MacIntel,11.62790698,60ffa874681b76a16e189f84,687ed1b7e638a4cbf2f02089,6880523314bb17e231ec688d,,,,,,,,,,,,,70,0,,./stim/wavs/castilian_mismatch_declarative-broad-focus_La-maestra-vive-en-Paris.wav,,,,,,,,,,,,,,,,,,,,,,214.763,217.156,0,1,1.865,,0,4,4,69,1,0,castilian,,,,,,,,,,,,,,,,,,,,,,,,,,,,,,,,,,,,,,,,,,,,,,,,,,,,,,,,
,,,,,,,,,,Spanish,younger than 13,click here to respond,click here to respond,2025-07-22_23h08.58.467,empathy_intonation_perc,2024.2.4,MacIntel,11.62790698,60ffa874681b76a16e189f84,687ed1b7e638a4cbf2f02089,6880523314bb17e231ec688d,,,,,,,,,,,,,56,0,,./stim/wavs/cuban_match_declarative-broad-focus_Marta-abre-el-regalo.wav,,,,,,,,,,,,,,,,,,,,,,217.157,219.281,0,1,1.59,,0,5,5,55,1,0,cuban,,,,,,,,,,,,,,,,,,,,,,,,,,,,,,,,,,,,,,,,,,,,,,,,,,,,,,,,
,,,,,,,,,,Spanish,younger than 13,click here to respond,click here to respond,2025-07-22_23h08.58.467,empathy_intonation_perc,2024.2.4,MacIntel,11.62790698,60ffa874681b76a16e189f84,687ed1b7e638a4cbf2f02089,6880523314bb17e231ec688d,,,,,,,,,,,,,62,0,,./stim/wavs/mexican_match_declarative-broad-focus_Marta-abre-el-regalo.wav,,,,,,,,,,,,,,,,,,,,,,219.281,221.228,0,1,1.426,,0,6,6,61,1,0,mexican,,,,,,,,,,,,,,,,,,,,,,,,,,,,,,,,,,,,,,,,,,,,,,,,,,,,,,,,
,,,,,,,,,,Spanish,younger than 13,click here to respond,click here to respond,2025-07-22_23h08.58.467,empathy_intonation_perc,2024.2.4,MacIntel,11.62790698,60ffa874681b76a16e189f84,687ed1b7e638a4cbf2f02089,6880523314bb17e231ec688d,,,,,,,,,,,,,40,1,,./stim/wavs/puertorican_mismatch_interrogative-total-yn_El-hombre-mira-la-luna.wav,,,,,,,,,,,,,,,,,,,,,,221.228,223.576,0,0,1.841,,0,7,7,39,1,1,puertorican,,,,,,,,,,,,,,,,,,,,,,,,,,,,,,,,,,,,,,,,,,,,,,,,,,,,,,,,
,,,,,,,,,,Spanish,younger than 13,click here to respond,click here to respond,2025-07-22_23h08.58.467,empathy_intonation_perc,2024.2.4,MacIntel,11.62790698,60ffa874681b76a16e189f84,687ed1b7e638a4cbf2f02089,6880523314bb17e231ec688d,,,,,,,,,,,,,13,1,,./stim/wavs/mexican_match_interrogative-total-yn_Ana-lleva-el-abrigo.wav,,,,,,,,,,,,,,,,,,,,,,223.577,226.303,1,1,2.21,,0,8,8,12,1,0,mexican,,,,,,,,,,,,,,,,,,,,,,,,,,,,,,,,,,,,,,,,,,,,,,,,,,,,,,,,
,,,,,,,,,,Spanish,younger than 13,click here to respond,click here to respond,2025-07-22_23h08.58.467,empathy_intonation_perc,2024.2.4,MacIntel,11.62790698,60ffa874681b76a16e189f84,687ed1b7e638a4cbf2f02089,6880523314bb17e231ec688d,,,,,,,,,,,,,61,0,,./stim/wavs/mexican_match_declarative-broad-focus_Mariano-habla-del-tiempo.wav,,,,,,,,,,,,,,,,,,,,,,226.304,228.649,0,1,1.816,,0,9,9,60,1,0,mexican,,,,,,,,,,,,,,,,,,,,,,,,,,,,,,,,,,,,,,,,,,,,,,,,,,,,,,,,
,,,,,,,,,,Spanish,younger than 13,click here to respond,click here to respond,2025-07-22_23h08.58.467,empathy_intonation_perc,2024.2.4,MacIntel,11.62790698,60ffa874681b76a16e189f84,687ed1b7e638a4cbf2f02089,6880523314bb17e231ec688d,,,,,,,,,,,,,77,0,,./stim/wavs/cuban_mismatch_declarative-broad-focus_Mi-novio-viene-del-lago.wav,,,,,,,,,,,,,,,,,,,,,,228.65,230.827,0,1,1.663,,0,10,10,76,1,0,cuban,,,,,,,,,,,,,,,,,,,,,,,,,,,,,,,,,,,,,,,,,,,,,,,,,,,,,,,,
,,,,,,,,,,Spanish,younger than 13,click here to respond,click here to respond,2025-07-22_23h08.58.467,empathy_intonation_perc,2024.2.4,MacIntel,11.62790698,60ffa874681b76a16e189f84,687ed1b7e638a4cbf2f02089,6880523314bb17e231ec688d,,,,,,,,,,,,,54,0,,./stim/wavs/cuban_match_declarative-broad-focus_Maria-bebe-el-vino.wav,,,,,,,,,,,,,,,,,,,,,,230.829,232.85,0,1,1.507,,0,11,11,53,1,0,cuban,,,,,,,,,,,,,,,,,,,,,,,,,,,,,,,,,,,,,,,,,,,,,,,,,,,,,,,,
,,,,,,,,,,Spanish,younger than 13,click here to respond,click here to respond,2025-07-22_23h08.58.467,empathy_intonation_perc,2024.2.4,MacIntel,11.62790698,60ffa874681b76a16e189f84,687ed1b7e638a4cbf2f02089,6880523314bb17e231ec688d,,,,,,,,,,,,,27,1,,./stim/wavs/castilian_mismatch_interrogative-total-yn_Mi-madre-come-la-fruta.wav,,,,,,,,,,,,,,,,,,,,,,232.851,235.483,1,1,2.112,,0,12,12,26,1,0,castilian,,,,,,,,,,,,,,,,,,,,,,,,,,,,,,,,,,,,,,,,,,,,,,,,,,,,,,,,
,,,,,,,,,,Spanish,younger than 13,click here to respond,click here to respond,2025-07-22_23h08.58.467,empathy_intonation_perc,2024.2.4,MacIntel,11.62790698,60ffa874681b76a16e189f84,687ed1b7e638a4cbf2f02089,6880523314bb17e231ec688d,,,,,,,,,,,,,9,1,,./stim/wavs/cuban_match_interrogative-total-yn_Manuela-vende-el-carro.wav,,,,,,,,,,,,,,,,,,,,,,235.484,237.56,0,0,1.564,,0,13,13,8,1,1,cuban,,,,,,,,,,,,,,,,,,,,,,,,,,,,,,,,,,,,,,,,,,,,,,,,,,,,,,,,
,,,,,,,,,,Spanish,younger than 13,click here to respond,click here to respond,2025-07-22_23h08.58.467,empathy_intonation_perc,2024.2.4,MacIntel,11.62790698,60ffa874681b76a16e189f84,687ed1b7e638a4cbf2f02089,6880523314bb17e231ec688d,,,,,,,,,,,,,84,0,,./stim/wavs/puertorican_mismatch_declarative-broad-focus_El-bebe-comia-muy-bien.wav,,,,,,,,,,,,,,,,,,,,,,237.561,239.6,0,1,1.527,,0,14,14,83,1,0,puertorican,,,,,,,,,,,,,,,,,,,,,,,,,,,,,,,,,,,,,,,,,,,,,,,,,,,,,,,,
,,,,,,,,,,Spanish,younger than 13,click here to respond,click here to respond,2025-07-22_23h08.58.467,empathy_intonation_perc,2024.2.4,MacIntel,11.62790698,60ffa874681b76a16e189f84,687ed1b7e638a4cbf2f02089,6880523314bb17e231ec688d,,,,,,,,,,,,,76,0,,./stim/wavs/cuban_mismatch_declarative-broad-focus_La-nina-lava-el-plato.wav,,,,,,,,,,,,,,,,,,,,,,239.601,241.66,0,1,1.539,,0,15,15,75,1,0,cuban,,,,,,,,,,,,,,,,,,,,,,,,,,,,,,,,,,,,,,,,,,,,,,,,,,,,,,,,
,,,,,,,,,,Spanish,younger than 13,click here to respond,click here to respond,2025-07-22_23h08.58.467,empathy_intonation_perc,2024.2.4,MacIntel,11.62790698,60ffa874681b76a16e189f84,687ed1b7e638a4cbf2f02089,6880523314bb17e231ec688d,,,,,,,,,,,,,41,1,,./stim/wavs/puertorican_mismatch_interrogative-total-yn_El-nino-oye-el-rio.wav,,,,,,,,,,,,,,,,,,,,,,241.661,243.711,0,0,1.538,,0,16,16,40,1,1,puertorican,,,,,,,,,,,,,,,,,,,,,,,,,,,,,,,,,,,,,,,,,,,,,,,,,,,,,,,,
,,,,,,,,,,Spanish,younger than 13,click here to respond,click here to respond,2025-07-22_23h08.58.467,empathy_intonation_perc,2024.2.4,MacIntel,11.62790698,60ffa874681b76a16e189f84,687ed1b7e638a4cbf2f02089,6880523314bb17e231ec688d,,,,,,,,,,,,,78,0,,./stim/wavs/cuban_mismatch_declarative-broad-focus_Mi-tia-odia-la-lluvia.wav,,,,,,,,,,,,,,,,,,,,,,243.712,245.847,0,1,1.613,,0,17,17,77,1,0,cuban,,,,,,,,,,,,,,,,,,,,,,,,,,,,,,,,,,,,,,,,,,,,,,,,,,,,,,,,
,,,,,,,,,,Spanish,younger than 13,click here to respond,click here to respond,2025-07-22_23h08.58.467,empathy_intonation_perc,2024.2.4,MacIntel,11.62790698,60ffa874681b76a16e189f84,687ed1b7e638a4cbf2f02089,6880523314bb17e231ec688d,,,,,,,,,,,,,38,1,,./stim/wavs/mexican_mismatch_interrogative-total-yn_Mi-novio-viene-del-lago.wav,,,,,,,,,,,,,,,,,,,,,,245.848,248.328,1,1,1.972,,0,18,18,37,1,0,mexican,,,,,,,,,,,,,,,,,,,,,,,,,,,,,,,,,,,,,,,,,,,,,,,,,,,,,,,,
,,,,,,,,,,Spanish,younger than 13,click here to respond,click here to respond,2025-07-22_23h08.58.467,empathy_intonation_perc,2024.2.4,MacIntel,11.62790698,60ffa874681b76a16e189f84,687ed1b7e638a4cbf2f02089,6880523314bb17e231ec688d,,,,,,,,,,,,,28,1,,./stim/wavs/castilian_mismatch_interrogative-total-yn_Mi-novio-viene-del-lago.wav,,,,,,,,,,,,,,,,,,,,,,248.329,250.774,1,1,1.931,,0,19,19,27,1,0,castilian,,,,,,,,,,,,,,,,,,,,,,,,,,,,,,,,,,,,,,,,,,,,,,,,,,,,,,,,
,,,,,,,,,,Spanish,younger than 13,click here to respond,click here to respond,2025-07-22_23h08.58.467,empathy_intonation_perc,2024.2.4,MacIntel,11.62790698,60ffa874681b76a16e189f84,687ed1b7e638a4cbf2f02089,6880523314bb17e231ec688d,,,,,,,,,,,,,66,0,,./stim/wavs/puertorican_match_declarative-broad-focus_Emilio-ama-la-marcha.wav,,,,,,,,,,,,,,,,,,,,,,250.775,252.774,0,1,1.486,,0,20,20,65,1,0,puertorican,,,,,,,,,,,,,,,,,,,,,,,,,,,,,,,,,,,,,,,,,,,,,,,,,,,,,,,,
,,,,,,,,,,Spanish,younger than 13,click here to respond,click here to respond,2025-07-22_23h08.58.467,empathy_intonation_perc,2024.2.4,MacIntel,11.62790698,60ffa874681b76a16e189f84,687ed1b7e638a4cbf2f02089,6880523314bb17e231ec688d,,,,,,,,,,,,,45,0,,./stim/wavs/castilian_match_declarative-broad-focus_David-leia-el-libro.wav,,,,,,,,,,,,,,,,,,,,,,252.775,254.918,0,1,1.626,,0,21,21,44,1,0,castilian,,,,,,,,,,,,,,,,,,,,,,,,,,,,,,,,,,,,,,,,,,,,,,,,,,,,,,,,
,,,,,,,,,,Spanish,younger than 13,click here to respond,click here to respond,2025-07-22_23h08.58.467,empathy_intonation_perc,2024.2.4,MacIntel,11.62790698,60ffa874681b76a16e189f84,687ed1b7e638a4cbf2f02089,6880523314bb17e231ec688d,,,,,,,,,,,,,68,0,,./stim/wavs/puertorican_match_declarative-broad-focus_Maria-bebe-el-vino.wav,,,,,,,,,,,,,,,,,,,,,,254.919,256.807,0,1,1.373,,0,22,22,67,1,0,puertorican,,,,,,,,,,,,,,,,,,,,,,,,,,,,,,,,,,,,,,,,,,,,,,,,,,,,,,,,
,,,,,,,,,,Spanish,younger than 13,click here to respond,click here to respond,2025-07-22_23h08.58.467,empathy_intonation_perc,2024.2.4,MacIntel,11.62790698,60ffa874681b76a16e189f84,687ed1b7e638a4cbf2f02089,6880523314bb17e231ec688d,,,,,,,,,,,,,18,1,,./stim/wavs/mexican_match_interrogative-total-yn_Marta-abre-el-regalo.wav,,,,,,,,,,,,,,,,,,,,,,256.808,259.035,1,1,1.705,,0,23,23,17,1,0,mexican,,,,,,,,,,,,,,,,,,,,,,,,,,,,,,,,,,,,,,,,,,,,,,,,,,,,,,,,
,,,,,,,,,,Spanish,younger than 13,click here to respond,click here to respond,2025-07-22_23h08.58.467,empathy_intonation_perc,2024.2.4,MacIntel,11.62790698,60ffa874681b76a16e189f84,687ed1b7e638a4cbf2f02089,6880523314bb17e231ec688d,,,,,,,,,,,,,36,1,,./stim/wavs/mexican_mismatch_interrogative-total-yn_El-nino-oye-el-rio.wav,,,,,,,,,,,,,,,,,,,,,,259.036,261.332,1,1,1.773,,0,24,24,35,1,0,mexican,,,,,,,,,,,,,,,,,,,,,,,,,,,,,,,,,,,,,,,,,,,,,,,,,,,,,,,,
,,,,,,,,,,Spanish,younger than 13,click here to respond,click here to respond,2025-07-22_23h08.58.467,empathy_intonation_perc,2024.2.4,MacIntel,11.62790698,60ffa874681b76a16e189f84,687ed1b7e638a4cbf2f02089,6880523314bb17e231ec688d,,,,,,,,,,,,,82,0,,./stim/wavs/mexican_mismatch_declarative-broad-focus_Mi-novio-viene-del-lago.wav,,,,,,,,,,,,,,,,,,,,,,261.333,263.441,0,1,1.578,,0,25,25,81,1,0,mexican,,,,,,,,,,,,,,,,,,,,,,,,,,,,,,,,,,,,,,,,,,,,,,,,,,,,,,,,
,,,,,,,,,,Spanish,younger than 13,click here to respond,click here to respond,2025-07-22_23h08.58.467,empathy_intonation_perc,2024.2.4,MacIntel,11.62790698,60ffa874681b76a16e189f84,687ed1b7e638a4cbf2f02089,6880523314bb17e231ec688d,,,,,,,,,,,,,85,0,,./stim/wavs/puertorican_mismatch_declarative-broad-focus_El-hombre-mira-la-luna.wav,,,,,,,,,,,,,,,,,,,,,,263.442,265.48,0,1,1.534,,0,26,26,84,1,0,puertorican,,,,,,,,,,,,,,,,,,,,,,,,,,,,,,,,,,,,,,,,,,,,,,,,,,,,,,,,
,,,,,,,,,,Spanish,younger than 13,click here to respond,click here to respond,2025-07-22_23h08.58.467,empathy_intonation_perc,2024.2.4,MacIntel,11.62790698,60ffa874681b76a16e189f84,687ed1b7e638a4cbf2f02089,6880523314bb17e231ec688d,,,,,,,,,,,,,58,0,,./stim/wavs/mexican_match_declarative-broad-focus_Daniel-iba-a-Bolivia.wav,,,,,,,,,,,,,,,,,,,,,,265.481,267.628,0,1,1.63,,0,27,27,57,1,0,mexican,,,,,,,,,,,,,,,,,,,,,,,,,,,,,,,,,,,,,,,,,,,,,,,,,,,,,,,,
,,,,,,,,,,Spanish,younger than 13,click here to respond,click here to respond,2025-07-22_23h08.58.467,empathy_intonation_perc,2024.2.4,MacIntel,11.62790698,60ffa874681b76a16e189f84,687ed1b7e638a4cbf2f02089,6880523314bb17e231ec688d,,,,,,,,,,,,,50,0,,./stim/wavs/castilian_match_declarative-broad-focus_Marta-abre-el-regalo.wav,,,,,,,,,,,,,,,,,,,,,,267.629,269.757,0,1,1.612,,0,28,28,49,1,0,castilian,,,,,,,,,,,,,,,,,,,,,,,,,,,,,,,,,,,,,,,,,,,,,,,,,,,,,,,,
,,,,,,,,,,Spanish,younger than 13,click here to respond,click here to respond,2025-07-22_23h08.58.467,empathy_intonation_perc,2024.2.4,MacIntel,11.62790698,60ffa874681b76a16e189f84,687ed1b7e638a4cbf2f02089,6880523314bb17e231ec688d,,,,,,,,,,,,,4,1,,./stim/wavs/castilian_match_interrogative-total-yn_Maria-bebe-el-vino.wav,,,,,,,,,,,,,,,,,,,,,,269.758,272.015,1,1,1.733,,0,29,29,3,1,0,castilian,,,,,,,,,,,,,,,,,,,,,,,,,,,,,,,,,,,,,,,,,,,,,,,,,,,,,,,,
,,,,,,,,,,Spanish,younger than 13,click here to respond,click here to respond,2025-07-22_23h08.58.467,empathy_intonation_perc,2024.2.4,MacIntel,11.62790698,60ffa874681b76a16e189f84,687ed1b7e638a4cbf2f02089,6880523314bb17e231ec688d,,,,,,,,,,,,,5,1,,./stim/wavs/castilian_match_interrogative-total-yn_Mariano-habla-del-tiempo.wav,,,,,,,,,,,,,,,,,,,,,,272.016,274.448,1,1,1.924,,0,30,30,4,1,0,castilian,,,,,,,,,,,,,,,,,,,,,,,,,,,,,,,,,,,,,,,,,,,,,,,,,,,,,,,,
,,,,,,,,,,Spanish,younger than 13,click here to respond,click here to respond,2025-07-22_23h08.58.467,empathy_intonation_perc,2024.2.4,MacIntel,11.62790698,60ffa874681b76a16e189f84,687ed1b7e638a4cbf2f02089,6880523314bb17e231ec688d,,,,,,,,,,,,,60,0,,./stim/wavs/mexican_match_declarative-broad-focus_Emilio-ama-la-marcha.wav,,,,,,,,,,,,,,,,,,,,,,274.449,276.586,0,1,1.605,,0,31,31,59,1,0,mexican,,,,,,,,,,,,,,,,,,,,,,,,,,,,,,,,,,,,,,,,,,,,,,,,,,,,,,,,
,,,,,,,,,,Spanish,younger than 13,click here to respond,click here to respond,2025-07-22_23h08.58.467,empathy_intonation_perc,2024.2.4,MacIntel,11.62790698,60ffa874681b76a16e189f84,687ed1b7e638a4cbf2f02089,6880523314bb17e231ec688d,,,,,,,,,,,,,74,0,,./stim/wavs/cuban_mismatch_declarative-broad-focus_El-bebe-comia-muy-bien.wav,,,,,,,,,,,,,,,,,,,,,,276.587,278.444,0,1,1.345,,0,32,32,73,1,0,cuban,,,,,,,,,,,,,,,,,,,,,,,,,,,,,,,,,,,,,,,,,,,,,,,,,,,,,,,,
,,,,,,,,,,Spanish,younger than 13,click here to respond,click here to respond,2025-07-22_23h08.58.467,empathy_intonation_perc,2024.2.4,MacIntel,11.62790698,60ffa874681b76a16e189f84,687ed1b7e638a4cbf2f02089,6880523314bb17e231ec688d,,,,,,,,,,,,,51,0,,./stim/wavs/cuban_match_declarative-broad-focus_Ana-lleva-el-abrigo.wav,,,,,,,,,,,,,,,,,,,,,,278.445,280.661,0,1,1.691,,0,33,33,50,1,0,cuban,,,,,,,,,,,,,,,,,,,,,,,,,,,,,,,,,,,,,,,,,,,,,,,,,,,,,,,,
,,,,,,,,,,Spanish,younger than 13,click here to respond,click here to respond,2025-07-22_23h08.58.467,empathy_intonation_perc,2024.2.4,MacIntel,11.62790698,60ffa874681b76a16e189f84,687ed1b7e638a4cbf2f02089,6880523314bb17e231ec688d,,,,,,,,,,,,,83,0,,./stim/wavs/mexican_mismatch_declarative-broad-focus_Mi-tia-odia-la-lluvia.wav,,,,,,,,,,,,,,,,,,,,,,280.662,282.612,0,1,1.433,,0,34,34,82,1,0,mexican,,,,,,,,,,,,,,,,,,,,,,,,,,,,,,,,,,,,,,,,,,,,,,,,,,,,,,,,
,,,,,,,,,,Spanish,younger than 13,click here to respond,click here to respond,2025-07-22_23h08.58.467,empathy_intonation_perc,2024.2.4,MacIntel,11.62790698,60ffa874681b76a16e189f84,687ed1b7e638a4cbf2f02089,6880523314bb17e231ec688d,,,,,,,,,,,,,86,0,,./stim/wavs/puertorican_mismatch_declarative-broad-focus_El-nino-oye-el-rio.wav,,,,,,,,,,,,,,,,,,,,,,282.613,284.477,0,1,1.345,,0,35,35,85,1,0,puertorican,,,,,,,,,,,,,,,,,,,,,,,,,,,,,,,,,,,,,,,,,,,,,,,,,,,,,,,,
,,,,,,,,,,Spanish,younger than 13,click here to respond,click here to respond,2025-07-22_23h08.58.467,empathy_intonation_perc,2024.2.4,MacIntel,11.62790698,60ffa874681b76a16e189f84,687ed1b7e638a4cbf2f02089,6880523314bb17e231ec688d,,,,,,,,,,,,,35,1,,./stim/wavs/mexican_mismatch_interrogative-total-yn_El-hombre-mira-la-luna.wav,,,,,,,,,,,,,,,,,,,,,,284.478,286.724,1,1,1.732,,0,36,36,34,1,0,mexican,,,,,,,,,,,,,,,,,,,,,,,,,,,,,,,,,,,,,,,,,,,,,,,,,,,,,,,,
,,,,,,,,,,Spanish,younger than 13,click here to respond,click here to respond,2025-07-22_23h08.58.467,empathy_intonation_perc,2024.2.4,MacIntel,11.62790698,60ffa874681b76a16e189f84,687ed1b7e638a4cbf2f02089,6880523314bb17e231ec688d,,,,,,,,,,,,,1,1,,./stim/wavs/castilian_match_interrogative-total-yn_David-leia-el-libro.wav,,,,,,,,,,,,,,,,,,,,,,286.725,288.774,1,1,1.54,,0,37,37,0,1,0,castilian,,,,,,,,,,,,,,,,,,,,,,,,,,,,,,,,,,,,,,,,,,,,,,,,,,,,,,,,
,,,,,,,,,,Spanish,younger than 13,click here to respond,click here to respond,2025-07-22_23h08.58.467,empathy_intonation_perc,2024.2.4,MacIntel,11.62790698,60ffa874681b76a16e189f84,687ed1b7e638a4cbf2f02089,6880523314bb17e231ec688d,,,,,,,,,,,,,33,1,,./stim/wavs/cuban_mismatch_interrogative-total-yn_Mi-novio-viene-del-lago.wav,,,,,,,,,,,,,,,,,,,,,,288.775,291.911,0,0,2.611,,0,38,38,32,1,1,cuban,,,,,,,,,,,,,,,,,,,,,,,,,,,,,,,,,,,,,,,,,,,,,,,,,,,,,,,,
,,,,,,,,,,Spanish,younger than 13,click here to respond,click here to respond,2025-07-22_23h08.58.467,empathy_intonation_perc,2024.2.4,MacIntel,11.62790698,60ffa874681b76a16e189f84,687ed1b7e638a4cbf2f02089,6880523314bb17e231ec688d,,,,,,,,,,,,,37,1,,./stim/wavs/mexican_mismatch_interrogative-total-yn_La-maestra-vive-en-Paris.wav,,,,,,,,,,,,,,,,,,,,,,291.912,294.774,1,1,2.34,,0,39,39,36,1,0,mexican,,,,,,,,,,,,,,,,,,,,,,,,,,,,,,,,,,,,,,,,,,,,,,,,,,,,,,,,
,,,,,,,,,,Spanish,younger than 13,click here to respond,click here to respond,2025-07-22_23h08.58.467,empathy_intonation_perc,2024.2.4,MacIntel,11.62790698,60ffa874681b76a16e189f84,687ed1b7e638a4cbf2f02089,6880523314bb17e231ec688d,,,,,,,,,,,,,59,0,,./stim/wavs/mexican_match_declarative-broad-focus_David-leia-el-libro.wav,,,,,,,,,,,,,,,,,,,,,,294.775,296.812,0,1,1.516,,0,40,40,58,1,0,mexican,,,,,,,,,,,,,,,,,,,,,,,,,,,,,,,,,,,,,,,,,,,,,,,,,,,,,,,,
,,,,,,,,,,Spanish,younger than 13,click here to respond,click here to respond,2025-07-22_23h08.58.467,empathy_intonation_perc,2024.2.4,MacIntel,11.62790698,60ffa874681b76a16e189f84,687ed1b7e638a4cbf2f02089,6880523314bb17e231ec688d,,,,,,,,,,,,,16,1,,./stim/wavs/mexican_match_interrogative-total-yn_Emilio-ama-la-marcha.wav,,,,,,,,,,,,,,,,,,,,,,296.812,299.338,1,1,2.008,,0,41,41,15,1,0,mexican,,,,,,,,,,,,,,,,,,,,,,,,,,,,,,,,,,,,,,,,,,,,,,,,,,,,,,,,
,,,,,,,,,,Spanish,younger than 13,click here to respond,click here to respond,2025-07-22_23h08.58.467,empathy_intonation_perc,2024.2.4,MacIntel,11.62790698,60ffa874681b76a16e189f84,687ed1b7e638a4cbf2f02089,6880523314bb17e231ec688d,,,,,,,,,,,,,24,1,,./stim/wavs/puertorican_match_interrogative-total-yn_Maria-bebe-el-vino.wav,,,,,,,,,,,,,,,,,,,,,,299.34,301.505,0,0,1.646,,0,42,42,23,1,1,puertorican,,,,,,,,,,,,,,,,,,,,,,,,,,,,,,,,,,,,,,,,,,,,,,,,,,,,,,,,
,,,,,,,,,,Spanish,younger than 13,click here to respond,click here to respond,2025-07-22_23h08.58.467,empathy_intonation_perc,2024.2.4,MacIntel,11.62790698,60ffa874681b76a16e189f84,687ed1b7e638a4cbf2f02089,6880523314bb17e231ec688d,,,,,,,,,,,,,22,1,,./stim/wavs/puertorican_match_interrogative-total-yn_Emilio-ama-la-marcha.wav,,,,,,,,,,,,,,,,,,,,,,301.506,303.463,0,0,1.449,,0,43,43,21,1,1,puertorican,,,,,,,,,,,,,,,,,,,,,,,,,,,,,,,,,,,,,,,,,,,,,,,,,,,,,,,,
,,,,,,,,,,Spanish,younger than 13,click here to respond,click here to respond,2025-07-22_23h08.58.467,empathy_intonation_perc,2024.2.4,MacIntel,11.62790698,60ffa874681b76a16e189f84,687ed1b7e638a4cbf2f02089,6880523314bb17e231ec688d,,,,,,,,,,,,,46,0,,./stim/wavs/castilian_match_declarative-broad-focus_Emilio-ama-la-marcha.wav,,,,,,,,,,,,,,,,,,,,,,303.464,306.405,0,1,2.423,,0,44,44,45,1,0,castilian,,,,,,,,,,,,,,,,,,,,,,,,,,,,,,,,,,,,,,,,,,,,,,,,,,,,,,,,
,,,,,,,,,,Spanish,younger than 13,click here to respond,click here to respond,2025-07-22_23h08.58.467,empathy_intonation_perc,2024.2.4,MacIntel,11.62790698,60ffa874681b76a16e189f84,687ed1b7e638a4cbf2f02089,6880523314bb17e231ec688d,,,,,,,,,,,,,32,1,,./stim/wavs/cuban_mismatch_interrogative-total-yn_Mi-madre-come-la-fruta.wav,,,,,,,,,,,,,,,,,,,,,,306.405,308.361,0,0,1.442,,0,45,45,31,1,1,cuban,,,,,,,,,,,,,,,,,,,,,,,,,,,,,,,,,,,,,,,,,,,,,,,,,,,,,,,,
,,,,,,,,,,Spanish,younger than 13,click here to respond,click here to respond,2025-07-22_23h08.58.467,empathy_intonation_perc,2024.2.4,MacIntel,11.62790698,60ffa874681b76a16e189f84,687ed1b7e638a4cbf2f02089,6880523314bb17e231ec688d,,,,,,,,,,,,,10,1,,./stim/wavs/cuban_match_interrogative-total-yn_Maria-bebe-el-vino.wav,,,,,,,,,,,,,,,,,,,,,,308.362,310.318,0,0,1.438,,0,46,46,9,1,1,cuban,,,,,,,,,,,,,,,,,,,,,,,,,,,,,,,,,,,,,,,,,,,,,,,,,,,,,,,,
,,,,,,,,,,Spanish,younger than 13,click here to respond,click here to respond,2025-07-22_23h08.58.467,empathy_intonation_perc,2024.2.4,MacIntel,11.62790698,60ffa874681b76a16e189f84,687ed1b7e638a4cbf2f02089,6880523314bb17e231ec688d,,,,,,,,,,,,,52,0,,./stim/wavs/cuban_match_declarative-broad-focus_Daniel-iba-a-Bolivia.wav,,,,,,,,,,,,,,,,,,,,,,310.319,312.43,0,1,1.601,,0,47,47,51,1,0,cuban,,,,,,,,,,,,,,,,,,,,,,,,,,,,,,,,,,,,,,,,,,,,,,,,,,,,,,,,
,,,,,,,,,,Spanish,younger than 13,click here to respond,click here to respond,2025-07-22_23h08.58.467,empathy_intonation_perc,2024.2.4,MacIntel,11.62790698,60ffa874681b76a16e189f84,687ed1b7e638a4cbf2f02089,6880523314bb17e231ec688d,,,,,,,,,,,,,25,1,,./stim/wavs/castilian_mismatch_interrogative-total-yn_La-maestra-vive-en-Paris.wav,,,,,,,,,,,,,,,,,,,,,,312.43,314.85,1,1,1.895,,0,48,48,24,1,0,castilian,,,,,,,,,,,,,,,,,,,,,,,,,,,,,,,,,,,,,,,,,,,,,,,,,,,,,,,,
,,,,,,,,,,Spanish,younger than 13,click here to respond,click here to respond,2025-07-22_23h08.58.467,empathy_intonation_perc,2024.2.4,MacIntel,11.62790698,60ffa874681b76a16e189f84,687ed1b7e638a4cbf2f02089,6880523314bb17e231ec688d,,,,,,,,,,,,,6,1,,./stim/wavs/castilian_match_interrogative-total-yn_Marta-abre-el-regalo.wav,,,,,,,,,,,,,,,,,,,,,,314.851,316.889,1,1,1.523,,0,49,49,5,1,0,castilian,,,,,,,,,,,,,,,,,,,,,,,,,,,,,,,,,,,,,,,,,,,,,,,,,,,,,,,,
,,,,,,,,,,Spanish,younger than 13,click here to respond,click here to respond,2025-07-22_23h08.58.467,empathy_intonation_perc,2024.2.4,MacIntel,11.62790698,60ffa874681b76a16e189f84,687ed1b7e638a4cbf2f02089,6880523314bb17e231ec688d,,,,,,,,,,,,,11,1,,./stim/wavs/cuban_match_interrogative-total-yn_Mariano-habla-del-tiempo.wav,,,,,,,,,,,,,,,,,,,,,,316.89,319.454,0,0,2.045,,0,50,50,10,1,1,cuban,,,,,,,,,,,,,,,,,,,,,,,,,,,,,,,,,,,,,,,,,,,,,,,,,,,,,,,,
,,,,,,,,,,Spanish,younger than 13,click here to respond,click here to respond,2025-07-22_23h08.58.467,empathy_intonation_perc,2024.2.4,MacIntel,11.62790698,60ffa874681b76a16e189f84,687ed1b7e638a4cbf2f02089,6880523314bb17e231ec688d,,,,,,,,,,,,,30,1,,./stim/wavs/cuban_mismatch_interrogative-total-yn_El-hombre-mira-la-luna.wav,,,,,,,,,,,,,,,,,,,,,,319.455,321.384,0,0,1.403,,0,51,51,29,1,1,cuban,,,,,,,,,,,,,,,,,,,,,,,,,,,,,,,,,,,,,,,,,,,,,,,,,,,,,,,,
,,,,,,,,,,Spanish,younger than 13,click here to respond,click here to respond,2025-07-22_23h08.58.467,empathy_intonation_perc,2024.2.4,MacIntel,11.62790698,60ffa874681b76a16e189f84,687ed1b7e638a4cbf2f02089,6880523314bb17e231ec688d,,,,,,,,,,,,,63,0,,./stim/wavs/puertorican_match_declarative-broad-focus_Ana-lleva-el-abrigo.wav,,,,,,,,,,,,,,,,,,,,,,321.384,323.233,0,1,1.341,,0,52,52,62,1,0,puertorican,,,,,,,,,,,,,,,,,,,,,,,,,,,,,,,,,,,,,,,,,,,,,,,,,,,,,,,,
,,,,,,,,,,Spanish,younger than 13,click here to respond,click here to respond,2025-07-22_23h08.58.467,empathy_intonation_perc,2024.2.4,MacIntel,11.62790698,60ffa874681b76a16e189f84,687ed1b7e638a4cbf2f02089,6880523314bb17e231ec688d,,,,,,,,,,,,,20,1,,./stim/wavs/puertorican_match_interrogative-total-yn_Daniel-iba-a-Bolivia.wav,,,,,,,,,,,,,,,,,,,,,,323.233,325.403,0,0,1.651,,0,53,53,19,1,1,puertorican,,,,,,,,,,,,,,,,,,,,,,,,,,,,,,,,,,,,,,,,,,,,,,,,,,,,,,,,
,,,,,,,,,,Spanish,younger than 13,click here to respond,click here to respond,2025-07-22_23h08.58.467,empathy_intonation_perc,2024.2.4,MacIntel,11.62790698,60ffa874681b76a16e189f84,687ed1b7e638a4cbf2f02089,6880523314bb17e231ec688d,,,,,,,,,,,,,19,1,,./stim/wavs/puertorican_match_interrogative-total-yn_Ana-lleva-el-abrigo.wav,,,,,,,,,,,,,,,,,,,,,,325.404,327.177,0,0,1.255,,0,54,54,18,1,1,puertorican,,,,,,,,,,,,,,,,,,,,,,,,,,,,,,,,,,,,,,,,,,,,,,,,,,,,,,,,
,,,,,,,,,,Spanish,younger than 13,click here to respond,click here to respond,2025-07-22_23h08.58.467,empathy_intonation_perc,2024.2.4,MacIntel,11.62790698,60ffa874681b76a16e189f84,687ed1b7e638a4cbf2f02089,6880523314bb17e231ec688d,,,,,,,,,,,,,29,1,,./stim/wavs/castilian_mismatch_interrogative-total-yn_Mi-tia-odia-la-lluvia.wav,,,,,,,,,,,,,,,,,,,,,,327.178,329.427,1,1,1.723,,0,55,55,28,1,0,castilian,,,,,,,,,,,,,,,,,,,,,,,,,,,,,,,,,,,,,,,,,,,,,,,,,,,,,,,,
,,,,,,,,,,Spanish,younger than 13,click here to respond,click here to respond,2025-07-22_23h08.58.467,empathy_intonation_perc,2024.2.4,MacIntel,11.62790698,60ffa874681b76a16e189f84,687ed1b7e638a4cbf2f02089,6880523314bb17e231ec688d,,,,,,,,,,,,,65,0,,./stim/wavs/puertorican_match_declarative-broad-focus_David-leia-el-libro.wav,,,,,,,,,,,,,,,,,,,,,,329.427,331.923,0,1,1.98,,0,56,56,64,1,0,puertorican,,,,,,,,,,,,,,,,,,,,,,,,,,,,,,,,,,,,,,,,,,,,,,,,,,,,,,,,
,,,,,,,,,,Spanish,younger than 13,click here to respond,click here to respond,2025-07-22_23h08.58.467,empathy_intonation_perc,2024.2.4,MacIntel,11.62790698,60ffa874681b76a16e189f84,687ed1b7e638a4cbf2f02089,6880523314bb17e231ec688d,,,,,,,,,,,,,67,0,,./stim/wavs/puertorican_match_declarative-broad-focus_Manuela-vende-el-carro.wav,,,,,,,,,,,,,,,,,,,,,,331.924,333.973,0,1,1.535,,0,57,57,66,1,0,puertorican,,,,,,,,,,,,,,,,,,,,,,,,,,,,,,,,,,,,,,,,,,,,,,,,,,,,,,,,
,,,,,,,,,,Spanish,younger than 13,click here to respond,click here to respond,2025-07-22_23h08.58.467,empathy_intonation_perc,2024.2.4,MacIntel,11.62790698,60ffa874681b76a16e189f84,687ed1b7e638a4cbf2f02089,6880523314bb17e231ec688d,,,,,,,,,,,,,73,0,,./stim/wavs/castilian_mismatch_declarative-broad-focus_Mi-tia-odia-la-lluvia.wav,,,,,,,,,,,,,,,,,,,,,,333.973,336.658,0,1,2.176,,0,58,58,72,1,0,castilian,,,,,,,,,,,,,,,,,,,,,,,,,,,,,,,,,,,,,,,,,,,,,,,,,,,,,,,,
,,,,,,,,,,Spanish,younger than 13,click here to respond,click here to respond,2025-07-22_23h08.58.467,empathy_intonation_perc,2024.2.4,MacIntel,11.62790698,60ffa874681b76a16e189f84,687ed1b7e638a4cbf2f02089,6880523314bb17e231ec688d,,,,,,,,,,,,,64,0,,./stim/wavs/puertorican_match_declarative-broad-focus_Daniel-iba-a-Bolivia.wav,,,,,,,,,,,,,,,,,,,,,,336.659,338.517,0,1,1.341,,0,59,59,63,1,0,puertorican,,,,,,,,,,,,,,,,,,,,,,,,,,,,,,,,,,,,,,,,,,,,,,,,,,,,,,,,
,,,,,,,,,,Spanish,younger than 13,click here to respond,click here to respond,2025-07-22_23h08.58.467,empathy_intonation_perc,2024.2.4,MacIntel,11.62790698,60ffa874681b76a16e189f84,687ed1b7e638a4cbf2f02089,6880523314bb17e231ec688d,,,,,,,,,,,,,23,1,,./stim/wavs/puertorican_match_interrogative-total-yn_Manuela-vende-el-carro.wav,,,,,,,,,,,,,,,,,,,,,,338.518,341.888,1,1,2.846,,0,60,60,22,1,1,puertorican,,,,,,,,,,,,,,,,,,,,,,,,,,,,,,,,,,,,,,,,,,,,,,,,,,,,,,,,
,,,,,,,,,,Spanish,younger than 13,click here to respond,click here to respond,2025-07-22_23h08.58.467,empathy_intonation_perc,2024.2.4,MacIntel,11.62790698,60ffa874681b76a16e189f84,687ed1b7e638a4cbf2f02089,6880523314bb17e231ec688d,,,,,,,,,,,,,44,1,,./stim/wavs/puertorican_mismatch_interrogative-total-yn_Mi-madre-come-la-fruta.wav,,,,,,,,,,,,,,,,,,,,,,341.889,343.923,0,0,1.509,,0,61,61,43,1,1,puertorican,,,,,,,,,,,,,,,,,,,,,,,,,,,,,,,,,,,,,,,,,,,,,,,,,,,,,,,,
,,,,,,,,,,Spanish,younger than 13,click here to respond,click here to respond,2025-07-22_23h08.58.467,empathy_intonation_perc,2024.2.4,MacIntel,11.62790698,60ffa874681b76a16e189f84,687ed1b7e638a4cbf2f02089,6880523314bb17e231ec688d,,,,,,,,,,,,,72,0,,./stim/wavs/castilian_mismatch_declarative-broad-focus_Mi-novio-viene-del-lago.wav,,,,,,,,,,,,,,,,,,,,,,343.923,346.166,0,1,1.731,,0,62,62,71,1,0,castilian,,,,,,,,,,,,,,,,,,,,,,,,,,,,,,,,,,,,,,,,,,,,,,,,,,,,,,,,
,,,,,,,,,,Spanish,younger than 13,click here to respond,click here to respond,2025-07-22_23h08.58.467,empathy_intonation_perc,2024.2.4,MacIntel,11.62790698,60ffa874681b76a16e189f84,687ed1b7e638a4cbf2f02089,6880523314bb17e231ec688d,,,,,,,,,,,,,71,0,,./stim/wavs/castilian_mismatch_declarative-broad-focus_La-nina-lava-el-plato.wav,,,,,,,,,,,,,,,,,,,,,,346.167,348.348,0,1,1.666,,0,63,63,70,1,0,castilian,,,,,,,,,,,,,,,,,,,,,,,,,,,,,,,,,,,,,,,,,,,,,,,,,,,,,,,,
,,,,,,,,,,Spanish,younger than 13,click here to respond,click here to respond,2025-07-22_23h08.58.467,empathy_intonation_perc,2024.2.4,MacIntel,11.62790698,60ffa874681b76a16e189f84,687ed1b7e638a4cbf2f02089,6880523314bb17e231ec688d,,,,,,,,,,,,,34,1,,./stim/wavs/cuban_mismatch_interrogative-total-yn_Mi-tia-odia-la-lluvia.wav,,,,,,,,,,,,,,,,,,,,,,348.349,350.574,0,0,1.702,,0,64,64,33,1,1,cuban,,,,,,,,,,,,,,,,,,,,,,,,,,,,,,,,,,,,,,,,,,,,,,,,,,,,,,,,
,,,,,,,,,,Spanish,younger than 13,click here to respond,click here to respond,2025-07-22_23h08.58.467,empathy_intonation_perc,2024.2.4,MacIntel,11.62790698,60ffa874681b76a16e189f84,687ed1b7e638a4cbf2f02089,6880523314bb17e231ec688d,,,,,,,,,,,,,80,0,,./stim/wavs/mexican_mismatch_declarative-broad-focus_El-hombre-mira-la-luna.wav,,,,,,,,,,,,,,,,,,,,,,350.574,352.913,0,1,1.815,,0,65,65,79,1,0,mexican,,,,,,,,,,,,,,,,,,,,,,,,,,,,,,,,,,,,,,,,,,,,,,,,,,,,,,,,
,,,,,,,,,,Spanish,younger than 13,click here to respond,click here to respond,2025-07-22_23h08.58.467,empathy_intonation_perc,2024.2.4,MacIntel,11.62790698,60ffa874681b76a16e189f84,687ed1b7e638a4cbf2f02089,6880523314bb17e231ec688d,,,,,,,,,,,,,42,1,,./stim/wavs/puertorican_mismatch_interrogative-total-yn_La-maestra-vive-en-Paris.wav,,,,,,,,,,,,,,,,,,,,,,352.914,355.046,0,0,1.606,,0,66,66,41,1,1,puertorican,,,,,,,,,,,,,,,,,,,,,,,,,,,,,,,,,,,,,,,,,,,,,,,,,,,,,,,,
,,,,,,,,,,Spanish,younger than 13,click here to respond,click here to respond,2025-07-22_23h08.58.467,empathy_intonation_perc,2024.2.4,MacIntel,11.62790698,60ffa874681b76a16e189f84,687ed1b7e638a4cbf2f02089,6880523314bb17e231ec688d,,,,,,,,,,,,,88,0,,./stim/wavs/puertorican_mismatch_declarative-broad-focus_La-nina-lava-el-plato.wav,,,,,,,,,,,,,,,,,,,,,,355.046,356.888,0,1,1.326,,0,67,67,87,1,0,puertorican,,,,,,,,,,,,,,,,,,,,,,,,,,,,,,,,,,,,,,,,,,,,,,,,,,,,,,,,
,,,,,,,,,,Spanish,younger than 13,click here to respond,click here to respond,2025-07-22_23h08.58.467,empathy_intonation_perc,2024.2.4,MacIntel,11.62790698,60ffa874681b76a16e189f84,687ed1b7e638a4cbf2f02089,6880523314bb17e231ec688d,,,,,,,,,,,,,39,1,,./stim/wavs/mexican_mismatch_interrogative-total-yn_Mi-tia-odia-la-lluvia.wav,,,,,,,,,,,,,,,,,,,,,,356.889,359.717,1,1,2.305,,0,68,68,38,1,0,mexican,,,,,,,,,,,,,,,,,,,,,,,,,,,,,,,,,,,,,,,,,,,,,,,,,,,,,,,,
,,,,,,,,,,Spanish,younger than 13,click here to respond,click here to respond,2025-07-22_23h08.58.467,empathy_intonation_perc,2024.2.4,MacIntel,11.62790698,60ffa874681b76a16e189f84,687ed1b7e638a4cbf2f02089,6880523314bb17e231ec688d,,,,,,,,,,,,,49,0,,./stim/wavs/castilian_match_declarative-broad-focus_Mariano-habla-del-tiempo.wav,,,,,,,,,,,,,,,,,,,,,,359.718,362.625,0,1,2.391,,0,69,69,48,1,0,castilian,,,,,,,,,,,,,,,,,,,,,,,,,,,,,,,,,,,,,,,,,,,,,,,,,,,,,,,,
,,,,,,,,,,Spanish,younger than 13,click here to respond,click here to respond,2025-07-22_23h08.58.467,empathy_intonation_perc,2024.2.4,MacIntel,11.62790698,60ffa874681b76a16e189f84,687ed1b7e638a4cbf2f02089,6880523314bb17e231ec688d,,,,,,,,,,,,,87,0,,./stim/wavs/puertorican_mismatch_declarative-broad-focus_La-maestra-vive-en-Paris.wav,,,,,,,,,,,,,,,,,,,,,,362.625,364.567,0,1,1.431,,0,70,70,86,1,0,puertorican,,,,,,,,,,,,,,,,,,,,,,,,,,,,,,,,,,,,,,,,,,,,,,,,,,,,,,,,
,,,,,,,,,,Spanish,younger than 13,click here to respond,click here to respond,2025-07-22_23h08.58.467,empathy_intonation_perc,2024.2.4,MacIntel,11.62790698,60ffa874681b76a16e189f84,687ed1b7e638a4cbf2f02089,6880523314bb17e231ec688d,,,,,,,,,,,,,57,0,,./stim/wavs/mexican_match_declarative-broad-focus_Ana-lleva-el-abrigo.wav,,,,,,,,,,,,,,,,,,,,,,364.568,366.405,0,1,1.328,,0,71,71,56,1,0,mexican,,,,,,,,,,,,,,,,,,,,,,,,,,,,,,,,,,,,,,,,,,,,,,,,,,,,,,,,
,,,,,,,,,,Spanish,younger than 13,click here to respond,click here to respond,2025-07-22_23h08.58.467,empathy_intonation_perc,2024.2.4,MacIntel,11.62790698,60ffa874681b76a16e189f84,687ed1b7e638a4cbf2f02089,6880523314bb17e231ec688d,,,,,,,,,,,,,2,1,,./stim/wavs/castilian_match_interrogative-total-yn_Emilio-ama-la-marcha.wav,,,,,,,,,,,,,,,,,,,,,,366.406,368.839,1,1,1.921,,0,72,72,1,1,0,castilian,,,,,,,,,,,,,,,,,,,,,,,,,,,,,,,,,,,,,,,,,,,,,,,,,,,,,,,,
,,,,,,,,,,Spanish,younger than 13,click here to respond,click here to respond,2025-07-22_23h08.58.467,empathy_intonation_perc,2024.2.4,MacIntel,11.62790698,60ffa874681b76a16e189f84,687ed1b7e638a4cbf2f02089,6880523314bb17e231ec688d,,,,,,,,,,,,,14,1,,./stim/wavs/mexican_match_interrogative-total-yn_Daniel-iba-a-Bolivia.wav,,,,,,,,,,,,,,,,,,,,,,368.84,371.096,1,1,1.74,,0,73,73,13,1,0,mexican,,,,,,,,,,,,,,,,,,,,,,,,,,,,,,,,,,,,,,,,,,,,,,,,,,,,,,,,
,,,,,,,,,,Spanish,younger than 13,click here to respond,click here to respond,2025-07-22_23h08.58.467,empathy_intonation_perc,2024.2.4,MacIntel,11.62790698,60ffa874681b76a16e189f84,687ed1b7e638a4cbf2f02089,6880523314bb17e231ec688d,,,,,,,,,,,,,53,0,,./stim/wavs/cuban_match_declarative-broad-focus_Manuela-vende-el-carro.wav,,,,,,,,,,,,,,,,,,,,,,371.096,373.349,0,1,1.741,,0,74,74,52,1,0,cuban,,,,,,,,,,,,,,,,,,,,,,,,,,,,,,,,,,,,,,,,,,,,,,,,,,,,,,,,
,,,,,,,,,,Spanish,younger than 13,click here to respond,click here to respond,2025-07-22_23h08.58.467,empathy_intonation_perc,2024.2.4,MacIntel,11.62790698,60ffa874681b76a16e189f84,687ed1b7e638a4cbf2f02089,6880523314bb17e231ec688d,,,,,,,,,,,,,17,1,,./stim/wavs/mexican_match_interrogative-total-yn_Mariano-habla-del-tiempo.wav,,,,,,,,,,,,,,,,,,,,,,373.35,375.385,0,0,1.517,,0,75,75,16,1,0,mexican,,,,,,,,,,,,,,,,,,,,,,,,,,,,,,,,,,,,,,,,,,,,,,,,,,,,,,,,
,,,,,,,,,,Spanish,younger than 13,click here to respond,click here to respond,2025-07-22_23h08.58.467,empathy_intonation_perc,2024.2.4,MacIntel,11.62790698,60ffa874681b76a16e189f84,687ed1b7e638a4cbf2f02089,6880523314bb17e231ec688d,,,,,,,,,,,,,43,1,,./stim/wavs/puertorican_mismatch_interrogative-total-yn_La-nina-lava-el-plato.wav,,,,,,,,,,,,,,,,,,,,,,375.385,377.376,0,0,1.464,,0,76,76,42,1,1,puertorican,,,,,,,,,,,,,,,,,,,,,,,,,,,,,,,,,,,,,,,,,,,,,,,,,,,,,,,,
,,,,,,,,,,Spanish,younger than 13,click here to respond,click here to respond,2025-07-22_23h08.58.467,empathy_intonation_perc,2024.2.4,MacIntel,11.62790698,60ffa874681b76a16e189f84,687ed1b7e638a4cbf2f02089,6880523314bb17e231ec688d,,,,,,,,,,,,,69,0,,./stim/wavs/castilian_mismatch_declarative-broad-focus_El-nino-oye-el-rio.wav,,,,,,,,,,,,,,,,,,,,,,377.376,379.603,0,1,1.703,,0,77,77,68,1,0,castilian,,,,,,,,,,,,,,,,,,,,,,,,,,,,,,,,,,,,,,,,,,,,,,,,,,,,,,,,
,,,,,,,,,,Spanish,younger than 13,click here to respond,click here to respond,2025-07-22_23h08.58.467,empathy_intonation_perc,2024.2.4,MacIntel,11.62790698,60ffa874681b76a16e189f84,687ed1b7e638a4cbf2f02089,6880523314bb17e231ec688d,,,,,,,,,,,,,15,1,,./stim/wavs/mexican_match_interrogative-total-yn_David-leia-el-libro.wav,,,,,,,,,,,,,,,,,,,,,,379.603,381.898,1,1,1.774,,0,78,78,14,1,0,mexican,,,,,,,,,,,,,,,,,,,,,,,,,,,,,,,,,,,,,,,,,,,,,,,,,,,,,,,,
,,,,,,,,,,Spanish,younger than 13,click here to respond,click here to respond,2025-07-22_23h08.58.467,empathy_intonation_perc,2024.2.4,MacIntel,11.62790698,60ffa874681b76a16e189f84,687ed1b7e638a4cbf2f02089,6880523314bb17e231ec688d,,,,,,,,,,,,,31,1,,./stim/wavs/cuban_mismatch_interrogative-total-yn_El-nino-oye-el-rio.wav,,,,,,,,,,,,,,,,,,,,,,381.899,384.217,0,0,1.796,,0,79,79,30,1,1,cuban,,,,,,,,,,,,,,,,,,,,,,,,,,,,,,,,,,,,,,,,,,,,,,,,,,,,,,,,
,,,,,,,,,,Spanish,younger than 13,click here to respond,click here to respond,2025-07-22_23h08.58.467,empathy_intonation_perc,2024.2.4,MacIntel,11.62790698,60ffa874681b76a16e189f84,687ed1b7e638a4cbf2f02089,6880523314bb17e231ec688d,,,,,,,,,,,,,75,0,,./stim/wavs/cuban_mismatch_declarative-broad-focus_El-hombre-mira-la-luna.wav,,,,,,,,,,,,,,,,,,,,,,384.218,385.995,0,1,1.257,,0,80,80,74,1,0,cuban,,,,,,,,,,,,,,,,,,,,,,,,,,,,,,,,,,,,,,,,,,,,,,,,,,,,,,,,
,,,,,,,,,,Spanish,younger than 13,click here to respond,click here to respond,2025-07-22_23h08.58.467,empathy_intonation_perc,2024.2.4,MacIntel,11.62790698,60ffa874681b76a16e189f84,687ed1b7e638a4cbf2f02089,6880523314bb17e231ec688d,,,,,,,,,,,,,26,1,,./stim/wavs/castilian_mismatch_interrogative-total-yn_La-nina-lava-el-plato.wav,,,,,,,,,,,,,,,,,,,,,,385.996,388.463,1,1,1.945,,0,81,81,25,1,0,castilian,,,,,,,,,,,,,,,,,,,,,,,,,,,,,,,,,,,,,,,,,,,,,,,,,,,,,,,,
,,,,,,,,,,Spanish,younger than 13,click here to respond,click here to respond,2025-07-22_23h08.58.467,empathy_intonation_perc,2024.2.4,MacIntel,11.62790698,60ffa874681b76a16e189f84,687ed1b7e638a4cbf2f02089,6880523314bb17e231ec688d,,,,,,,,,,,,,47,0,,./stim/wavs/castilian_match_declarative-broad-focus_Manuela-vende-el-carro.wav,,,,,,,,,,,,,,,,,,,,,,388.463,391.357,0,1,2.385,,0,82,82,46,1,0,castilian,,,,,,,,,,,,,,,,,,,,,,,,,,,,,,,,,,,,,,,,,,,,,,,,,,,,,,,,
,,,,,,,,,,Spanish,younger than 13,click here to respond,click here to respond,2025-07-22_23h08.58.467,empathy_intonation_perc,2024.2.4,MacIntel,11.62790698,60ffa874681b76a16e189f84,687ed1b7e638a4cbf2f02089,6880523314bb17e231ec688d,,,,,,,,,,,,,12,1,,./stim/wavs/cuban_match_interrogative-total-yn_Marta-abre-el-regalo.wav,,,,,,,,,,,,,,,,,,,,,,391.358,394.344,0,0,2.47,,0,83,83,11,1,1,cuban,,,,,,,,,,,,,,,,,,,,,,,,,,,,,,,,,,,,,,,,,,,,,,,,,,,,,,,,
,,,,,,,,,,Spanish,younger than 13,click here to respond,click here to respond,2025-07-22_23h08.58.467,empathy_intonation_perc,2024.2.4,MacIntel,11.62790698,60ffa874681b76a16e189f84,687ed1b7e638a4cbf2f02089,6880523314bb17e231ec688d,,,,,,,,,,,,,48,0,,./stim/wavs/castilian_match_declarative-broad-focus_Maria-bebe-el-vino.wav,,,,,,,,,,,,,,,,,,,,,,394.345,396.686,0,1,1.83,,0,84,84,47,1,0,castilian,,,,,,,,,,,,,,,,,,,,,,,,,,,,,,,,,,,,,,,,,,,,,,,,,,,,,,,,
,,,,,,,,,,Spanish,younger than 13,click here to respond,click here to respond,2025-07-22_23h08.58.467,empathy_intonation_perc,2024.2.4,MacIntel,11.62790698,60ffa874681b76a16e189f84,687ed1b7e638a4cbf2f02089,6880523314bb17e231ec688d,,,,,,,,,,,,,21,1,,./stim/wavs/puertorican_match_interrogative-total-yn_David-leia-el-libro.wav,,,,,,,,,,,,,,,,,,,,,,396.688,398.636,0,0,1.417,,0,85,85,20,1,1,puertorican,,,,,,,,,,,,,,,,,,,,,,,,,,,,,,,,,,,,,,,,,,,,,,,,,,,,,,,,
,,,,,,,,,,Spanish,younger than 13,click here to respond,click here to respond,2025-07-22_23h08.58.467,empathy_intonation_perc,2024.2.4,MacIntel,11.62790698,60ffa874681b76a16e189f84,687ed1b7e638a4cbf2f02089,6880523314bb17e231ec688d,,,,,,,,,,,,,55,0,,./stim/wavs/cuban_match_declarative-broad-focus_Mariano-habla-del-tiempo.wav,,,,,,,,,,,,,,,,,,,,,,398.637,400.846,0,1,1.683,,0,86,86,54,1,0,cuban,,,,,,,,,,,,,,,,,,,,,,,,,,,,,,,,,,,,,,,,,,,,,,,,,,,,,,,,
,,,,,,,,,,Spanish,younger than 13,click here to respond,click here to respond,2025-07-22_23h08.58.467,empathy_intonation_perc,2024.2.4,MacIntel,11.62790698,60ffa874681b76a16e189f84,687ed1b7e638a4cbf2f02089,6880523314bb17e231ec688d,,,,,,,,,,,,,3,1,,./stim/wavs/castilian_match_interrogative-total-yn_Manuela-vende-el-carro.wav,,,,,,,,,,,,,,,,,,,,,,400.847,403.446,1,1,2.076,,0,87,87,2,1,0,castilian,,,,,,,,,,,,,,,,,,,,,,,,,,,,,,,,,,,,,,,,,,,,,,,,,,,,,,,,
,,,,,,,"Great! Now we will move on. The next task consists of about 60 trials, in each of which you will see a string of letters. 
  
  Your task is to decide whether this is a real Spanish word or not.", (press the spacebar to continue),,Spanish,younger than 13,click here to respond,click here to respond,2025-07-22_23h08.58.467,empathy_intonation_perc,2024.2.4,MacIntel,11.62790698,60ffa874681b76a16e189f84,687ed1b7e638a4cbf2f02089,6880523314bb17e231ec688d,,,,,,,,,,,,,,,,,,,,,,,,,,,,,,,,,,,,,,,,,,,,,,,,,,,403.458,408.571,0,0,0,0,1,,,,,,,,,,,,,,,,,,,,,,,,,,,,,,,,,,,,,,,,,,,,,,,,,
,,,,,,,"If you think it is an existing Spanish word, you type '1' (for 'REAL'), and if you think it is not an existing Spanish word, you type '0' (for 'FAKE').", (press the spacebar to continue),,Spanish,younger than 13,click here to respond,click here to respond,2025-07-22_23h08.58.467,empathy_intonation_perc,2024.2.4,MacIntel,11.62790698,60ffa874681b76a16e189f84,687ed1b7e638a4cbf2f02089,6880523314bb17e231ec688d,,,,,,,,,,,,,,,,,,,,,,,,,,,,,,,,,,,,,,,,,,,,,,,,,,,408.574,412.529,0,1,1,1,1,,,,,,,,,,,,,,,,,,,,,,,,,,,,,,,,,,,,,,,,,,,,,,,,,
,,,,,,,"If you are sure that the word exists, even though you don’t know its exact meaning, you may still respond '1' (REAL). 
  
  But if you are not sure if it is an existing word, you should respond '0' (FAKE).
  
  Let's do a practice round...", (press the spacebar to continue),,Spanish,younger than 13,click here to respond,click here to respond,2025-07-22_23h08.58.467,empathy_intonation_perc,2024.2.4,MacIntel,11.62790698,60ffa874681b76a16e189f84,687ed1b7e638a4cbf2f02089,6880523314bb17e231ec688d,,,,,,,,,,,,,,,,,,,,,,,,,,,,,,,,,,,,,,,,,,,,,,,,,,,412.532,419.587,0,2,2,2,1,,,,,,,,,,,,,,,,,,,,,,,,,,,,,,,,,,,,,,,,,,,,,,,,,
,,,,,,,,,,Spanish,younger than 13,click here to respond,click here to respond,2025-07-22_23h08.58.467,empathy_intonation_perc,2024.2.4,MacIntel,11.62790698,60ffa874681b76a16e189f84,687ed1b7e638a4cbf2f02089,6880523314bb17e231ec688d,,,,,,,,,,,,,,0,,,,,,,,,,,,,,,,,,,,,,,,,,,,,,,,,,,,,,,,,,,,419.596,423.081,0,1,2.959,,423.085,424.08,0,0,0,0,1,0,depiste,REAL,FAKE,,,,,,,,,,,,,,,,,,,,,,,,,,,,,,,,
,,,,,,,,,,Spanish,younger than 13,click here to respond,click here to respond,2025-07-22_23h08.58.467,empathy_intonation_perc,2024.2.4,MacIntel,11.62790698,60ffa874681b76a16e189f84,687ed1b7e638a4cbf2f02089,6880523314bb17e231ec688d,,,,,,,,,,,,,,1,,,,,,,,,,,,,,,,,,,,,,,,,,,,,,,,,,,,,,,,,,,,424.082,425.798,1,1,1.192,,425.798,426.8,0,1,1,1,1,0,sí,REAL,FAKE,,,,,,,,,,,,,,,,,,,,,,,,,,,,,,,,
,,,,,,,,,,Spanish,younger than 13,click here to respond,click here to respond,2025-07-22_23h08.58.467,empathy_intonation_perc,2024.2.4,MacIntel,11.62790698,60ffa874681b76a16e189f84,687ed1b7e638a4cbf2f02089,6880523314bb17e231ec688d,,,,,,,,,,,,,,0,,,,,,,,,,,,,,,,,,,,,,,,,,,,,,,,,,,,,,,,,,,,426.801,429.026,0,1,1.688,,429.026,430.026,0,2,2,2,1,0,coné,REAL,FAKE,,,,,,,,,,,,,,,,,,,,,,,,,,,,,,,,
,,,,,,,,,,Spanish,younger than 13,click here to respond,click here to respond,2025-07-22_23h08.58.467,empathy_intonation_perc,2024.2.4,MacIntel,11.62790698,60ffa874681b76a16e189f84,687ed1b7e638a4cbf2f02089,6880523314bb17e231ec688d,,,,,,,,,,,,,,0,,,,,,,,,,,,,,,,,,,,,,,,,,,,,,,,,,,,,,,,,,,,430.027,431.46,1,0,0.904,,431.461,432.463,0,3,3,3,1,0,calpar,REAL,FAKE,,,,,,,,,,,,,,,,,,,,,,,,,,,,,,,,
,,,,,,,,,,Spanish,younger than 13,click here to respond,click here to respond,2025-07-22_23h08.58.467,empathy_intonation_perc,2024.2.4,MacIntel,11.62790698,60ffa874681b76a16e189f84,687ed1b7e638a4cbf2f02089,6880523314bb17e231ec688d,,,,,,,,,,,,,,0,,,,,,,,,,,,,,,,,,,,,,,,,,,,,,,,,,,,,,,,,,,,432.465,434.197,0,1,1.2,,434.198,435.195,0,4,4,4,1,0,joten,REAL,FAKE,,,,,,,,,,,,,,,,,,,,,,,,,,,,,,,,
,,,,,,,,,,Spanish,younger than 13,click here to respond,click here to respond,2025-07-22_23h08.58.467,empathy_intonation_perc,2024.2.4,MacIntel,11.62790698,60ffa874681b76a16e189f84,687ed1b7e638a4cbf2f02089,6880523314bb17e231ec688d,,,,,,,,,,,,,,1,,,,,,,,,,,,,,,,,,,,,,,,,,,,,,,,,,,,,,,,,,,,435.196,437.631,1,1,1.898,,437.631,438.622,0,5,5,5,1,0,sacapuntas,REAL,FAKE,,,,,,,,,,,,,,,,,,,,,,,,,,,,,,,,
,,,,,,,,,,Spanish,younger than 13,click here to respond,click here to respond,2025-07-22_23h08.58.467,empathy_intonation_perc,2024.2.4,MacIntel,11.62790698,60ffa874681b76a16e189f84,687ed1b7e638a4cbf2f02089,6880523314bb17e231ec688d,,,,,,,,,,,,,,0,,,,,,,,,,,,,,,,,,,,,,,,,,,,,,,,,,,,,,,,,,,,438.623,440.2,1,0,1.06,,440.201,441.201,0,6,6,6,1,0,priba,REAL,FAKE,,,,,,,,,,,,,,,,,,,,,,,,,,,,,,,,
,,,,,,,,,,Spanish,younger than 13,click here to respond,click here to respond,2025-07-22_23h08.58.467,empathy_intonation_perc,2024.2.4,MacIntel,11.62790698,60ffa874681b76a16e189f84,687ed1b7e638a4cbf2f02089,6880523314bb17e231ec688d,,,,,,,,,,,,,,0,,,,,,,,,,,,,,,,,,,,,,,,,,,,,,,,,,,,,,,,,,,,441.202,442.643,0,1,0.921,,442.644,443.635,0,7,7,7,1,0,pelasula,REAL,FAKE,,,,,,,,,,,,,,,,,,,,,,,,,,,,,,,,
,,,,,,,,,,Spanish,younger than 13,click here to respond,click here to respond,2025-07-22_23h08.58.467,empathy_intonation_perc,2024.2.4,MacIntel,11.62790698,60ffa874681b76a16e189f84,687ed1b7e638a4cbf2f02089,6880523314bb17e231ec688d,,,,,,,,,,,,,,1,,,,,,,,,,,,,,,,,,,,,,,,,,,,,,,,,,,,,,,,,,,,443.636,444.839,1,1,0.683,,444.839,445.831,0,8,8,8,1,0,bien,REAL,FAKE,,,,,,,,,,,,,,,,,,,,,,,,,,,,,,,,
,,,,,,,,,,Spanish,younger than 13,click here to respond,click here to respond,2025-07-22_23h08.58.467,empathy_intonation_perc,2024.2.4,MacIntel,11.62790698,60ffa874681b76a16e189f84,687ed1b7e638a4cbf2f02089,6880523314bb17e231ec688d,,,,,,,,,,,,,,1,,,,,,,,,,,,,,,,,,,,,,,,,,,,,,,,,,,,,,,,,,,,445.832,447.038,1,1,0.664,,447.038,448.039,0,9,9,9,1,0,casa,REAL,FAKE,,,,,,,,,,,,,,,,,,,,,,,,,,,,,,,,
,,,,,,,,,,Spanish,younger than 13,click here to respond,click here to respond,2025-07-22_23h08.58.467,empathy_intonation_perc,2024.2.4,MacIntel,11.62790698,60ffa874681b76a16e189f84,687ed1b7e638a4cbf2f02089,6880523314bb17e231ec688d,,,,,,,,,,,,,,0,,,,,,,,,,,,,,,,,,,,,,,,,,,,,,,,,,,,,,,,,,,,448.04,449.7,0,1,1.122,,449.7,450.701,0,10,10,10,1,0,lejo,REAL,FAKE,,,,,,,,,,,,,,,,,,,,,,,,,,,,,,,,
,,,,,,,,,,Spanish,younger than 13,click here to respond,click here to respond,2025-07-22_23h08.58.467,empathy_intonation_perc,2024.2.4,MacIntel,11.62790698,60ffa874681b76a16e189f84,687ed1b7e638a4cbf2f02089,6880523314bb17e231ec688d,,,,,,,,,,,,,,0,,,,,,,,,,,,,,,,,,,,,,,,,,,,,,,,,,,,,,,,,,,,450.702,452.145,0,1,0.922,,452.145,453.134,0,11,11,11,1,0,pretantas,REAL,FAKE,,,,,,,,,,,,,,,,,,,,,,,,,,,,,,,,
,,,,,,,,,,Spanish,younger than 13,click here to respond,click here to respond,2025-07-22_23h08.58.467,empathy_intonation_perc,2024.2.4,MacIntel,11.62790698,60ffa874681b76a16e189f84,687ed1b7e638a4cbf2f02089,6880523314bb17e231ec688d,,,,,,,,,,,,,,,,,,,,,,,,,,,,,,,,,,,,,,,,,,,,,,,,,,,,,,,,,,,,,,,,,,,,,,,,,,,453.136,453.964,,,,,,,,,,,,,,,,,,,,,,,,,,,,,,
,,,,,,,,,,Spanish,younger than 13,click here to respond,click here to respond,2025-07-22_23h08.58.467,empathy_intonation_perc,2024.2.4,MacIntel,11.62790698,60ffa874681b76a16e189f84,687ed1b7e638a4cbf2f02089,6880523314bb17e231ec688d,,,,,,,,,,,,,,0,,,,,,,,,,,,,,,,,,,,,,,,,,,,,,,,,,,,,,,,,,,,,,,,,,,,,,,,,70,temblo,,,,,453.977,455.631,0,1,1.125,,0,0,0,69,1,REAL,FAKE,,,,,,,,,,,,,,,,,
,,,,,,,,,,Spanish,younger than 13,click here to respond,click here to respond,2025-07-22_23h08.58.467,empathy_intonation_perc,2024.2.4,MacIntel,11.62790698,60ffa874681b76a16e189f84,687ed1b7e638a4cbf2f02089,6880523314bb17e231ec688d,,,,,,,,,,,,,,0,,,,,,,,,,,,,,,,,,,,,,,,,,,,,,,,,,,,,,,,,,,,,,,,,,,,,,,,,53,vegada,,,,,455.633,457.334,1,0,1.174,,0,1,1,52,1,REAL,FAKE,,,,,,,,,,,,,,,,,
,,,,,,,,,,Spanish,younger than 13,click here to respond,click here to respond,2025-07-22_23h08.58.467,empathy_intonation_perc,2024.2.4,MacIntel,11.62790698,60ffa874681b76a16e189f84,687ed1b7e638a4cbf2f02089,6880523314bb17e231ec688d,,,,,,,,,,,,,,0,,,,,,,,,,,,,,,,,,,,,,,,,,,,,,,,,,,,,,,,,,,,,,,,,,,,,,,,,21,capillo,,,,,457.336,458.689,1,0,0.818,,0,2,2,20,1,REAL,FAKE,,,,,,,,,,,,,,,,,
,,,,,,,,,,Spanish,younger than 13,click here to respond,click here to respond,2025-07-22_23h08.58.467,empathy_intonation_perc,2024.2.4,MacIntel,11.62790698,60ffa874681b76a16e189f84,687ed1b7e638a4cbf2f02089,6880523314bb17e231ec688d,,,,,,,,,,,,,,1,,,,,,,,,,,,,,,,,,,,,,,,,,,,,,,,,,,,,,,,,,,,,,,,,,,,,,,,,83,guante,,,,,458.69,460.096,1,1,0.878,,0,3,3,82,1,REAL,FAKE,,,,,,,,,,,,,,,,,
,,,,,,,,,,Spanish,younger than 13,click here to respond,click here to respond,2025-07-22_23h08.58.467,empathy_intonation_perc,2024.2.4,MacIntel,11.62790698,60ffa874681b76a16e189f84,687ed1b7e638a4cbf2f02089,6880523314bb17e231ec688d,,,,,,,,,,,,,,1,,,,,,,,,,,,,,,,,,,,,,,,,,,,,,,,,,,,,,,,,,,,,,,,,,,,,,,,,44,cuchara,,,,,460.097,461.929,1,1,1.315,,0,4,4,43,1,REAL,FAKE,,,,,,,,,,,,,,,,,
,,,,,,,,,,Spanish,younger than 13,click here to respond,click here to respond,2025-07-22_23h08.58.467,empathy_intonation_perc,2024.2.4,MacIntel,11.62790698,60ffa874681b76a16e189f84,687ed1b7e638a4cbf2f02089,6880523314bb17e231ec688d,,,,,,,,,,,,,,0,,,,,,,,,,,,,,,,,,,,,,,,,,,,,,,,,,,,,,,,,,,,,,,,,,,,,,,,,79,tropaje,,,,,461.931,463.112,0,1,0.649,,0,5,5,78,1,REAL,FAKE,,,,,,,,,,,,,,,,,
,,,,,,,,,,Spanish,younger than 13,click here to respond,click here to respond,2025-07-22_23h08.58.467,empathy_intonation_perc,2024.2.4,MacIntel,11.62790698,60ffa874681b76a16e189f84,687ed1b7e638a4cbf2f02089,6880523314bb17e231ec688d,,,,,,,,,,,,,,0,,,,,,,,,,,,,,,,,,,,,,,,,,,,,,,,,,,,,,,,,,,,,,,,,,,,,,,,,72,pemición,,,,,463.113,464.508,0,1,0.866,,0,6,6,71,1,REAL,FAKE,,,,,,,,,,,,,,,,,
,,,,,,,,,,Spanish,younger than 13,click here to respond,click here to respond,2025-07-22_23h08.58.467,empathy_intonation_perc,2024.2.4,MacIntel,11.62790698,60ffa874681b76a16e189f84,687ed1b7e638a4cbf2f02089,6880523314bb17e231ec688d,,,,,,,,,,,,,,1,,,,,,,,,,,,,,,,,,,,,,,,,,,,,,,,,,,,,,,,,,,,,,,,,,,,,,,,,22,lacayo,,,,,464.51,465.711,0,0,0.673,,0,7,7,21,1,REAL,FAKE,,,,,,,,,,,,,,,,,
,,,,,,,,,,Spanish,younger than 13,click here to respond,click here to respond,2025-07-22_23h08.58.467,empathy_intonation_perc,2024.2.4,MacIntel,11.62790698,60ffa874681b76a16e189f84,687ed1b7e638a4cbf2f02089,6880523314bb17e231ec688d,,,,,,,,,,,,,,1,,,,,,,,,,,,,,,,,,,,,,,,,,,,,,,,,,,,,,,,,,,,,,,,,,,,,,,,,69,engatusar,,,,,465.713,467.701,0,0,1.459,,0,8,8,68,1,REAL,FAKE,,,,,,,,,,,,,,,,,
,,,,,,,,,,Spanish,younger than 13,click here to respond,click here to respond,2025-07-22_23h08.58.467,empathy_intonation_perc,2024.2.4,MacIntel,11.62790698,60ffa874681b76a16e189f84,687ed1b7e638a4cbf2f02089,6880523314bb17e231ec688d,,,,,,,,,,,,,,0,,,,,,,,,,,,,,,,,,,,,,,,,,,,,,,,,,,,,,,,,,,,,,,,,,,,,,,,,18,arsa,,,,,467.702,469.507,0,1,1.279,,0,9,9,17,1,REAL,FAKE,,,,,,,,,,,,,,,,,
,,,,,,,,,,Spanish,younger than 13,click here to respond,click here to respond,2025-07-22_23h08.58.467,empathy_intonation_perc,2024.2.4,MacIntel,11.62790698,60ffa874681b76a16e189f84,687ed1b7e638a4cbf2f02089,6880523314bb17e231ec688d,,,,,,,,,,,,,,0,,,,,,,,,,,,,,,,,,,,,,,,,,,,,,,,,,,,,,,,,,,,,,,,,,,,,,,,,66,hacido,,,,,469.508,470.732,1,0,0.7,,0,10,10,65,1,REAL,FAKE,,,,,,,,,,,,,,,,,
,,,,,,,,,,Spanish,younger than 13,click here to respond,click here to respond,2025-07-22_23h08.58.467,empathy_intonation_perc,2024.2.4,MacIntel,11.62790698,60ffa874681b76a16e189f84,687ed1b7e638a4cbf2f02089,6880523314bb17e231ec688d,,,,,,,,,,,,,,0,,,,,,,,,,,,,,,,,,,,,,,,,,,,,,,,,,,,,,,,,,,,,,,,,,,,,,,,,1,terzo,,,,,470.733,472.282,0,1,1.022,,0,11,11,0,1,REAL,FAKE,,,,,,,,,,,,,,,,,
,,,,,,,,,,Spanish,younger than 13,click here to respond,click here to respond,2025-07-22_23h08.58.467,empathy_intonation_perc,2024.2.4,MacIntel,11.62790698,60ffa874681b76a16e189f84,687ed1b7e638a4cbf2f02089,6880523314bb17e231ec688d,,,,,,,,,,,,,,1,,,,,,,,,,,,,,,,,,,,,,,,,,,,,,,,,,,,,,,,,,,,,,,,,,,,,,,,,45,jilguero,,,,,472.284,473.444,0,0,0.637,,0,12,12,44,1,REAL,FAKE,,,,,,,,,,,,,,,,,
,,,,,,,,,,Spanish,younger than 13,click here to respond,click here to respond,2025-07-22_23h08.58.467,empathy_intonation_perc,2024.2.4,MacIntel,11.62790698,60ffa874681b76a16e189f84,687ed1b7e638a4cbf2f02089,6880523314bb17e231ec688d,,,,,,,,,,,,,,1,,,,,,,,,,,,,,,,,,,,,,,,,,,,,,,,,,,,,,,,,,,,,,,,,,,,,,,,,20,ávido,,,,,473.445,474.795,1,1,0.823,,0,13,13,19,1,REAL,FAKE,,,,,,,,,,,,,,,,,
,,,,,,,,,,Spanish,younger than 13,click here to respond,click here to respond,2025-07-22_23h08.58.467,empathy_intonation_perc,2024.2.4,MacIntel,11.62790698,60ffa874681b76a16e189f84,687ed1b7e638a4cbf2f02089,6880523314bb17e231ec688d,,,,,,,,,,,,,,1,,,,,,,,,,,,,,,,,,,,,,,,,,,,,,,,,,,,,,,,,,,,,,,,,,,,,,,,,85,laúd,,,,,474.797,476.087,0,0,0.77,,0,14,14,84,1,REAL,FAKE,,,,,,,,,,,,,,,,,
,,,,,,,,,,Spanish,younger than 13,click here to respond,click here to respond,2025-07-22_23h08.58.467,empathy_intonation_perc,2024.2.4,MacIntel,11.62790698,60ffa874681b76a16e189f84,687ed1b7e638a4cbf2f02089,6880523314bb17e231ec688d,,,,,,,,,,,,,,1,,,,,,,,,,,,,,,,,,,,,,,,,,,,,,,,,,,,,,,,,,,,,,,,,,,,,,,,,86,barato,,,,,476.087,477.928,1,1,1.315,,0,15,15,85,1,REAL,FAKE,,,,,,,,,,,,,,,,,
,,,,,,,,,,Spanish,younger than 13,click here to respond,click here to respond,2025-07-22_23h08.58.467,empathy_intonation_perc,2024.2.4,MacIntel,11.62790698,60ffa874681b76a16e189f84,687ed1b7e638a4cbf2f02089,6880523314bb17e231ec688d,,,,,,,,,,,,,,1,,,,,,,,,,,,,,,,,,,,,,,,,,,,,,,,,,,,,,,,,,,,,,,,,,,,,,,,,6,tergiversar,,,,,477.929,480.205,0,0,1.745,,0,16,16,5,1,REAL,FAKE,,,,,,,,,,,,,,,,,
,,,,,,,,,,Spanish,younger than 13,click here to respond,click here to respond,2025-07-22_23h08.58.467,empathy_intonation_perc,2024.2.4,MacIntel,11.62790698,60ffa874681b76a16e189f84,687ed1b7e638a4cbf2f02089,6880523314bb17e231ec688d,,,,,,,,,,,,,,1,,,,,,,,,,,,,,,,,,,,,,,,,,,,,,,,,,,,,,,,,,,,,,,,,,,,,,,,,31,pandilla,,,,,480.207,481.756,0,0,1.016,,0,17,17,30,1,REAL,FAKE,,,,,,,,,,,,,,,,,
,,,,,,,,,,Spanish,younger than 13,click here to respond,click here to respond,2025-07-22_23h08.58.467,empathy_intonation_perc,2024.2.4,MacIntel,11.62790698,60ffa874681b76a16e189f84,687ed1b7e638a4cbf2f02089,6880523314bb17e231ec688d,,,,,,,,,,,,,,1,,,,,,,,,,,,,,,,,,,,,,,,,,,,,,,,,,,,,,,,,,,,,,,,,,,,,,,,,14,yunque,,,,,481.758,483.453,1,1,1.163,,0,18,18,13,1,REAL,FAKE,,,,,,,,,,,,,,,,,
,,,,,,,,,,Spanish,younger than 13,click here to respond,click here to respond,2025-07-22_23h08.58.467,empathy_intonation_perc,2024.2.4,MacIntel,11.62790698,60ffa874681b76a16e189f84,687ed1b7e638a4cbf2f02089,6880523314bb17e231ec688d,,,,,,,,,,,,,,1,,,,,,,,,,,,,,,,,,,,,,,,,,,,,,,,,,,,,,,,,,,,,,,,,,,,,,,,,59,besar,,,,,483.454,484.756,1,1,0.78,,0,19,19,58,1,REAL,FAKE,,,,,,,,,,,,,,,,,
,,,,,,,,,,Spanish,younger than 13,click here to respond,click here to respond,2025-07-22_23h08.58.467,empathy_intonation_perc,2024.2.4,MacIntel,11.62790698,60ffa874681b76a16e189f84,687ed1b7e638a4cbf2f02089,6880523314bb17e231ec688d,,,,,,,,,,,,,,0,,,,,,,,,,,,,,,,,,,,,,,,,,,,,,,,,,,,,,,,,,,,,,,,,,,,,,,,,42,cadallo,,,,,484.758,486.12,0,1,0.832,,0,20,20,41,1,REAL,FAKE,,,,,,,,,,,,,,,,,
,,,,,,,,,,Spanish,younger than 13,click here to respond,click here to respond,2025-07-22_23h08.58.467,empathy_intonation_perc,2024.2.4,MacIntel,11.62790698,60ffa874681b76a16e189f84,687ed1b7e638a4cbf2f02089,6880523314bb17e231ec688d,,,,,,,,,,,,,,1,,,,,,,,,,,,,,,,,,,,,,,,,,,,,,,,,,,,,,,,,,,,,,,,,,,,,,,,,13,helar,,,,,486.122,487.616,1,1,0.968,,0,21,21,12,1,REAL,FAKE,,,,,,,,,,,,,,,,,
,,,,,,,,,,Spanish,younger than 13,click here to respond,click here to respond,2025-07-22_23h08.58.467,empathy_intonation_perc,2024.2.4,MacIntel,11.62790698,60ffa874681b76a16e189f84,687ed1b7e638a4cbf2f02089,6880523314bb17e231ec688d,,,,,,,,,,,,,,0,,,,,,,,,,,,,,,,,,,,,,,,,,,,,,,,,,,,,,,,,,,,,,,,,,,,,,,,,82,empirador,,,,,487.617,489.044,0,1,0.908,,0,22,22,81,1,REAL,FAKE,,,,,,,,,,,,,,,,,
,,,,,,,,,,Spanish,younger than 13,click here to respond,click here to respond,2025-07-22_23h08.58.467,empathy_intonation_perc,2024.2.4,MacIntel,11.62790698,60ffa874681b76a16e189f84,687ed1b7e638a4cbf2f02089,6880523314bb17e231ec688d,,,,,,,,,,,,,,0,,,,,,,,,,,,,,,,,,,,,,,,,,,,,,,,,,,,,,,,,,,,,,,,,,,,,,,,,74,cintro,,,,,489.046,490.896,0,1,1.335,,0,23,23,73,1,REAL,FAKE,,,,,,,,,,,,,,,,,
,,,,,,,,,,Spanish,younger than 13,click here to respond,click here to respond,2025-07-22_23h08.58.467,empathy_intonation_perc,2024.2.4,MacIntel,11.62790698,60ffa874681b76a16e189f84,687ed1b7e638a4cbf2f02089,6880523314bb17e231ec688d,,,,,,,,,,,,,,1,,,,,,,,,,,,,,,,,,,,,,,,,,,,,,,,,,,,,,,,,,,,,,,,,,,,,,,,,89,prisa,,,,,490.898,492.118,1,1,0.688,,0,24,24,88,1,REAL,FAKE,,,,,,,,,,,,,,,,,
,,,,,,,,,,Spanish,younger than 13,click here to respond,click here to respond,2025-07-22_23h08.58.467,empathy_intonation_perc,2024.2.4,MacIntel,11.62790698,60ffa874681b76a16e189f84,687ed1b7e638a4cbf2f02089,6880523314bb17e231ec688d,,,,,,,,,,,,,,0,,,,,,,,,,,,,,,,,,,,,,,,,,,,,,,,,,,,,,,,,,,,,,,,,,,,,,,,,33,pauca,,,,,492.119,493.403,0,1,0.747,,0,25,25,32,1,REAL,FAKE,,,,,,,,,,,,,,,,,
,,,,,,,,,,Spanish,younger than 13,click here to respond,click here to respond,2025-07-22_23h08.58.467,empathy_intonation_perc,2024.2.4,MacIntel,11.62790698,60ffa874681b76a16e189f84,687ed1b7e638a4cbf2f02089,6880523314bb17e231ec688d,,,,,,,,,,,,,,0,,,,,,,,,,,,,,,,,,,,,,,,,,,,,,,,,,,,,,,,,,,,,,,,,,,,,,,,,23,lampera,,,,,493.405,494.863,0,1,0.936,,0,26,26,22,1,REAL,FAKE,,,,,,,,,,,,,,,,,
,,,,,,,,,,Spanish,younger than 13,click here to respond,click here to respond,2025-07-22_23h08.58.467,empathy_intonation_perc,2024.2.4,MacIntel,11.62790698,60ffa874681b76a16e189f84,687ed1b7e638a4cbf2f02089,6880523314bb17e231ec688d,,,,,,,,,,,,,,1,,,,,,,,,,,,,,,,,,,,,,,,,,,,,,,,,,,,,,,,,,,,,,,,,,,,,,,,,76,atar,,,,,494.864,496.138,1,1,0.747,,0,27,27,75,1,REAL,FAKE,,,,,,,,,,,,,,,,,
,,,,,,,,,,Spanish,younger than 13,click here to respond,click here to respond,2025-07-22_23h08.58.467,empathy_intonation_perc,2024.2.4,MacIntel,11.62790698,60ffa874681b76a16e189f84,687ed1b7e638a4cbf2f02089,6880523314bb17e231ec688d,,,,,,,,,,,,,,1,,,,,,,,,,,,,,,,,,,,,,,,,,,,,,,,,,,,,,,,,,,,,,,,,,,,,,,,,43,canela,,,,,496.139,497.328,1,1,0.658,,0,28,28,42,1,REAL,FAKE,,,,,,,,,,,,,,,,,
,,,,,,,,,,Spanish,younger than 13,click here to respond,click here to respond,2025-07-22_23h08.58.467,empathy_intonation_perc,2024.2.4,MacIntel,11.62790698,60ffa874681b76a16e189f84,687ed1b7e638a4cbf2f02089,6880523314bb17e231ec688d,,,,,,,,,,,,,,0,,,,,,,,,,,,,,,,,,,,,,,,,,,,,,,,,,,,,,,,,,,,,,,,,,,,,,,,,30,alardio,,,,,497.329,498.448,0,1,0.604,,0,29,29,29,1,REAL,FAKE,,,,,,,,,,,,,,,,,
,,,,,,,,,,Spanish,younger than 13,click here to respond,click here to respond,2025-07-22_23h08.58.467,empathy_intonation_perc,2024.2.4,MacIntel,11.62790698,60ffa874681b76a16e189f84,687ed1b7e638a4cbf2f02089,6880523314bb17e231ec688d,,,,,,,,,,,,,,1,,,,,,,,,,,,,,,,,,,,,,,,,,,,,,,,,,,,,,,,,,,,,,,,,,,,,,,,,60,matar,,,,,498.451,499.574,1,1,0.594,,0,30,30,59,1,REAL,FAKE,,,,,,,,,,,,,,,,,
,,,,,,,,,,Spanish,younger than 13,click here to respond,click here to respond,2025-07-22_23h08.58.467,empathy_intonation_perc,2024.2.4,MacIntel,11.62790698,60ffa874681b76a16e189f84,687ed1b7e638a4cbf2f02089,6880523314bb17e231ec688d,,,,,,,,,,,,,,1,,,,,,,,,,,,,,,,,,,,,,,,,,,,,,,,,,,,,,,,,,,,,,,,,,,,,,,,,51,candado,,,,,499.575,501.226,0,0,1.125,,0,31,31,50,1,REAL,FAKE,,,,,,,,,,,,,,,,,
,,,,,,,,,,Spanish,younger than 13,click here to respond,click here to respond,2025-07-22_23h08.58.467,empathy_intonation_perc,2024.2.4,MacIntel,11.62790698,60ffa874681b76a16e189f84,687ed1b7e638a4cbf2f02089,6880523314bb17e231ec688d,,,,,,,,,,,,,,0,,,,,,,,,,,,,,,,,,,,,,,,,,,,,,,,,,,,,,,,,,,,,,,,,,,,,,,,,16,abracer,,,,,501.228,502.634,1,0,0.887,,0,32,32,15,1,REAL,FAKE,,,,,,,,,,,,,,,,,
,,,,,,,,,,Spanish,younger than 13,click here to respond,click here to respond,2025-07-22_23h08.58.467,empathy_intonation_perc,2024.2.4,MacIntel,11.62790698,60ffa874681b76a16e189f84,687ed1b7e638a4cbf2f02089,6880523314bb17e231ec688d,,,,,,,,,,,,,,1,,,,,,,,,,,,,,,,,,,,,,,,,,,,,,,,,,,,,,,,,,,,,,,,,,,,,,,,,73,hervidor,,,,,502.635,503.84,0,0,0.684,,0,33,33,72,1,REAL,FAKE,,,,,,,,,,,,,,,,,
,,,,,,,,,,Spanish,younger than 13,click here to respond,click here to respond,2025-07-22_23h08.58.467,empathy_intonation_perc,2024.2.4,MacIntel,11.62790698,60ffa874681b76a16e189f84,687ed1b7e638a4cbf2f02089,6880523314bb17e231ec688d,,,,,,,,,,,,,,1,,,,,,,,,,,,,,,,,,,,,,,,,,,,,,,,,,,,,,,,,,,,,,,,,,,,,,,,,71,polvoriento,,,,,503.841,505.5,0,0,1.126,,0,34,34,70,1,REAL,FAKE,,,,,,,,,,,,,,,,,
,,,,,,,,,,Spanish,younger than 13,click here to respond,click here to respond,2025-07-22_23h08.58.467,empathy_intonation_perc,2024.2.4,MacIntel,11.62790698,60ffa874681b76a16e189f84,687ed1b7e638a4cbf2f02089,6880523314bb17e231ec688d,,,,,,,,,,,,,,1,,,,,,,,,,,,,,,,,,,,,,,,,,,,,,,,,,,,,,,,,,,,,,,,,,,,,,,,,49,ganar,,,,,505.501,506.662,1,1,0.633,,0,35,35,48,1,REAL,FAKE,,,,,,,,,,,,,,,,,
,,,,,,,,,,Spanish,younger than 13,click here to respond,click here to respond,2025-07-22_23h08.58.467,empathy_intonation_perc,2024.2.4,MacIntel,11.62790698,60ffa874681b76a16e189f84,687ed1b7e638a4cbf2f02089,6880523314bb17e231ec688d,,,,,,,,,,,,,,1,,,,,,,,,,,,,,,,,,,,,,,,,,,,,,,,,,,,,,,,,,,,,,,,,,,,,,,,,25,bisagra,,,,,506.663,507.997,0,0,0.81,,0,36,36,24,1,REAL,FAKE,,,,,,,,,,,,,,,,,
,,,,,,,,,,Spanish,younger than 13,click here to respond,click here to respond,2025-07-22_23h08.58.467,empathy_intonation_perc,2024.2.4,MacIntel,11.62790698,60ffa874681b76a16e189f84,687ed1b7e638a4cbf2f02089,6880523314bb17e231ec688d,,,,,,,,,,,,,,1,,,,,,,,,,,,,,,,,,,,,,,,,,,,,,,,,,,,,,,,,,,,,,,,,,,,,,,,,34,aviso,,,,,507.998,509.738,1,1,1.208,,0,37,37,33,1,REAL,FAKE,,,,,,,,,,,,,,,,,
,,,,,,,,,,Spanish,younger than 13,click here to respond,click here to respond,2025-07-22_23h08.58.467,empathy_intonation_perc,2024.2.4,MacIntel,11.62790698,60ffa874681b76a16e189f84,687ed1b7e638a4cbf2f02089,6880523314bb17e231ec688d,,,,,,,,,,,,,,1,,,,,,,,,,,,,,,,,,,,,,,,,,,,,,,,,,,,,,,,,,,,,,,,,,,,,,,,,54,fomentar,,,,,509.739,511.393,0,0,1.125,,0,38,38,53,1,REAL,FAKE,,,,,,,,,,,,,,,,,
,,,,,,,,,,Spanish,younger than 13,click here to respond,click here to respond,2025-07-22_23h08.58.467,empathy_intonation_perc,2024.2.4,MacIntel,11.62790698,60ffa874681b76a16e189f84,687ed1b7e638a4cbf2f02089,6880523314bb17e231ec688d,,,,,,,,,,,,,,0,,,,,,,,,,,,,,,,,,,,,,,,,,,,,,,,,,,,,,,,,,,,,,,,,,,,,,,,,4,batillón,,,,,511.394,512.828,0,1,0.922,,0,39,39,3,1,REAL,FAKE,,,,,,,,,,,,,,,,,
,,,,,,,,,,Spanish,younger than 13,click here to respond,click here to respond,2025-07-22_23h08.58.467,empathy_intonation_perc,2024.2.4,MacIntel,11.62790698,60ffa874681b76a16e189f84,687ed1b7e638a4cbf2f02089,6880523314bb17e231ec688d,,,,,,,,,,,,,,1,,,,,,,,,,,,,,,,,,,,,,,,,,,,,,,,,,,,,,,,,,,,,,,,,,,,,,,,,81,pozo,,,,,512.829,514.235,1,1,0.875,,0,40,40,80,1,REAL,FAKE,,,,,,,,,,,,,,,,,
,,,,,,,,,,Spanish,younger than 13,click here to respond,click here to respond,2025-07-22_23h08.58.467,empathy_intonation_perc,2024.2.4,MacIntel,11.62790698,60ffa874681b76a16e189f84,687ed1b7e638a4cbf2f02089,6880523314bb17e231ec688d,,,,,,,,,,,,,,0,,,,,,,,,,,,,,,,,,,,,,,,,,,,,,,,,,,,,,,,,,,,,,,,,,,,,,,,,8,cadeña,,,,,514.237,515.561,0,1,0.798,,0,41,41,7,1,REAL,FAKE,,,,,,,,,,,,,,,,,
,,,,,,,,,,Spanish,younger than 13,click here to respond,click here to respond,2025-07-22_23h08.58.467,empathy_intonation_perc,2024.2.4,MacIntel,11.62790698,60ffa874681b76a16e189f84,687ed1b7e638a4cbf2f02089,6880523314bb17e231ec688d,,,,,,,,,,,,,,1,,,,,,,,,,,,,,,,,,,,,,,,,,,,,,,,,,,,,,,,,,,,,,,,,,,,,,,,,77,tiburón,,,,,515.562,516.755,0,0,0.654,,0,42,42,76,1,REAL,FAKE,,,,,,,,,,,,,,,,,
,,,,,,,,,,Spanish,younger than 13,click here to respond,click here to respond,2025-07-22_23h08.58.467,empathy_intonation_perc,2024.2.4,MacIntel,11.62790698,60ffa874681b76a16e189f84,687ed1b7e638a4cbf2f02089,6880523314bb17e231ec688d,,,,,,,,,,,,,,1,,,,,,,,,,,,,,,,,,,,,,,,,,,,,,,,,,,,,,,,,,,,,,,,,,,,,,,,,80,hormiga,,,,,516.756,517.975,0,0,0.685,,0,43,43,79,1,REAL,FAKE,,,,,,,,,,,,,,,,,
,,,,,,,,,,Spanish,younger than 13,click here to respond,click here to respond,2025-07-22_23h08.58.467,empathy_intonation_perc,2024.2.4,MacIntel,11.62790698,60ffa874681b76a16e189f84,687ed1b7e638a4cbf2f02089,6880523314bb17e231ec688d,,,,,,,,,,,,,,0,,,,,,,,,,,,,,,,,,,,,,,,,,,,,,,,,,,,,,,,,,,,,,,,,,,,,,,,,29,decar,,,,,517.975,519.062,1,0,0.557,,0,44,44,28,1,REAL,FAKE,,,,,,,,,,,,,,,,,
,,,,,,,,,,Spanish,younger than 13,click here to respond,click here to respond,2025-07-22_23h08.58.467,empathy_intonation_perc,2024.2.4,MacIntel,11.62790698,60ffa874681b76a16e189f84,687ed1b7e638a4cbf2f02089,6880523314bb17e231ec688d,,,,,,,,,,,,,,1,,,,,,,,,,,,,,,,,,,,,,,,,,,,,,,,,,,,,,,,,,,,,,,,,,,,,,,,,26,secuestro,,,,,519.063,520.638,1,1,1.046,,0,45,45,25,1,REAL,FAKE,,,,,,,,,,,,,,,,,
,,,,,,,,,,Spanish,younger than 13,click here to respond,click here to respond,2025-07-22_23h08.58.467,empathy_intonation_perc,2024.2.4,MacIntel,11.62790698,60ffa874681b76a16e189f84,687ed1b7e638a4cbf2f02089,6880523314bb17e231ec688d,,,,,,,,,,,,,,0,,,,,,,,,,,,,,,,,,,,,,,,,,,,,,,,,,,,,,,,,,,,,,,,,,,,,,,,,17,floroso,,,,,520.639,521.99,0,1,0.829,,0,46,46,16,1,REAL,FAKE,,,,,,,,,,,,,,,,,
,,,,,,,,,,Spanish,younger than 13,click here to respond,click here to respond,2025-07-22_23h08.58.467,empathy_intonation_perc,2024.2.4,MacIntel,11.62790698,60ffa874681b76a16e189f84,687ed1b7e638a4cbf2f02089,6880523314bb17e231ec688d,,,,,,,,,,,,,,1,,,,,,,,,,,,,,,,,,,,,,,,,,,,,,,,,,,,,,,,,,,,,,,,,,,,,,,,,41,rebuscar,,,,,521.992,523.243,0,0,0.726,,0,47,47,40,1,REAL,FAKE,,,,,,,,,,,,,,,,,
,,,,,,,,,,Spanish,younger than 13,click here to respond,click here to respond,2025-07-22_23h08.58.467,empathy_intonation_perc,2024.2.4,MacIntel,11.62790698,60ffa874681b76a16e189f84,687ed1b7e638a4cbf2f02089,6880523314bb17e231ec688d,,,,,,,,,,,,,,1,,,,,,,,,,,,,,,,,,,,,,,,,,,,,,,,,,,,,,,,,,,,,,,,,,,,,,,,,75,yacer,,,,,523.244,524.69,0,0,0.923,,0,48,48,74,1,REAL,FAKE,,,,,,,,,,,,,,,,,
,,,,,,,,,,Spanish,younger than 13,click here to respond,click here to respond,2025-07-22_23h08.58.467,empathy_intonation_perc,2024.2.4,MacIntel,11.62790698,60ffa874681b76a16e189f84,687ed1b7e638a4cbf2f02089,6880523314bb17e231ec688d,,,,,,,,,,,,,,0,,,,,,,,,,,,,,,,,,,,,,,,,,,,,,,,,,,,,,,,,,,,,,,,,,,,,,,,,92,click the 0 key.,,,,,524.692,526.37,0,1,1.156,,0,49,49,91,1,REAL,FAKE,,,,,,,,,,,,,,,,,
,,,,,,,,,,Spanish,younger than 13,click here to respond,click here to respond,2025-07-22_23h08.58.467,empathy_intonation_perc,2024.2.4,MacIntel,11.62790698,60ffa874681b76a16e189f84,687ed1b7e638a4cbf2f02089,6880523314bb17e231ec688d,,,,,,,,,,,,,,1,,,,,,,,,,,,,,,,,,,,,,,,,,,,,,,,,,,,,,,,,,,,,,,,,,,,,,,,,64,orgulloso,,,,,526.372,527.672,1,1,0.773,,0,50,50,63,1,REAL,FAKE,,,,,,,,,,,,,,,,,
,,,,,,,,,,Spanish,younger than 13,click here to respond,click here to respond,2025-07-22_23h08.58.467,empathy_intonation_perc,2024.2.4,MacIntel,11.62790698,60ffa874681b76a16e189f84,687ed1b7e638a4cbf2f02089,6880523314bb17e231ec688d,,,,,,,,,,,,,,1,,,,,,,,,,,,,,,,,,,,,,,,,,,,,,,,,,,,,,,,,,,,,,,,,,,,,,,,,78,frondoso,,,,,527.673,528.908,0,0,0.715,,0,51,51,77,1,REAL,FAKE,,,,,,,,,,,,,,,,,
,,,,,,,,,,Spanish,younger than 13,click here to respond,click here to respond,2025-07-22_23h08.58.467,empathy_intonation_perc,2024.2.4,MacIntel,11.62790698,60ffa874681b76a16e189f84,687ed1b7e638a4cbf2f02089,6880523314bb17e231ec688d,,,,,,,,,,,,,,1,,,,,,,,,,,,,,,,,,,,,,,,,,,,,,,,,,,,,,,,,,,,,,,,,,,,,,,,,67,cabello,,,,,528.91,530.158,1,1,0.729,,0,52,52,66,1,REAL,FAKE,,,,,,,,,,,,,,,,,
,,,,,,,,,,Spanish,younger than 13,click here to respond,click here to respond,2025-07-22_23h08.58.467,empathy_intonation_perc,2024.2.4,MacIntel,11.62790698,60ffa874681b76a16e189f84,687ed1b7e638a4cbf2f02089,6880523314bb17e231ec688d,,,,,,,,,,,,,,1,,,,,,,,,,,,,,,,,,,,,,,,,,,,,,,,,,,,,,,,,,,,,,,,,,,,,,,,,5,zapato,,,,,530.16,531.27,1,1,0.586,,0,53,53,4,1,REAL,FAKE,,,,,,,,,,,,,,,,,
,,,,,,,,,,Spanish,younger than 13,click here to respond,click here to respond,2025-07-22_23h08.58.467,empathy_intonation_perc,2024.2.4,MacIntel,11.62790698,60ffa874681b76a16e189f84,687ed1b7e638a4cbf2f02089,6880523314bb17e231ec688d,,,,,,,,,,,,,,1,,,,,,,,,,,,,,,,,,,,,,,,,,,,,,,,,,,,,,,,,,,,,,,,,,,,,,,,,11,cenefa,,,,,531.272,532.457,0,0,0.655,,0,54,54,10,1,REAL,FAKE,,,,,,,,,,,,,,,,,
,,,,,,,,,,Spanish,younger than 13,click here to respond,click here to respond,2025-07-22_23h08.58.467,empathy_intonation_perc,2024.2.4,MacIntel,11.62790698,60ffa874681b76a16e189f84,687ed1b7e638a4cbf2f02089,6880523314bb17e231ec688d,,,,,,,,,,,,,,1,,,,,,,,,,,,,,,,,,,,,,,,,,,,,,,,,,,,,,,,,,,,,,,,,,,,,,,,,61,seda,,,,,532.459,533.588,1,1,0.614,,0,55,55,60,1,REAL,FAKE,,,,,,,,,,,,,,,,,
,,,,,,,,,,Spanish,younger than 13,click here to respond,click here to respond,2025-07-22_23h08.58.467,empathy_intonation_perc,2024.2.4,MacIntel,11.62790698,60ffa874681b76a16e189f84,687ed1b7e638a4cbf2f02089,6880523314bb17e231ec688d,,,,,,,,,,,,,,0,,,,,,,,,,,,,,,,,,,,,,,,,,,,,,,,,,,,,,,,,,,,,,,,,,,,,,,,,19,brecedad,,,,,533.589,534.836,0,1,0.719,,0,56,56,18,1,REAL,FAKE,,,,,,,,,,,,,,,,,
,,,,,,,,,,Spanish,younger than 13,click here to respond,click here to respond,2025-07-22_23h08.58.467,empathy_intonation_perc,2024.2.4,MacIntel,11.62790698,60ffa874681b76a16e189f84,687ed1b7e638a4cbf2f02089,6880523314bb17e231ec688d,,,,,,,,,,,,,,1,,,,,,,,,,,,,,,,,,,,,,,,,,,,,,,,,,,,,,,,,,,,,,,,,,,,,,,,,68,alegre,,,,,534.837,536.028,1,1,0.662,,0,57,57,67,1,REAL,FAKE,,,,,,,,,,,,,,,,,
,,,,,,,,,,Spanish,younger than 13,click here to respond,click here to respond,2025-07-22_23h08.58.467,empathy_intonation_perc,2024.2.4,MacIntel,11.62790698,60ffa874681b76a16e189f84,687ed1b7e638a4cbf2f02089,6880523314bb17e231ec688d,,,,,,,,,,,,,,1,,,,,,,,,,,,,,,,,,,,,,,,,,,,,,,,,,,,,,,,,,,,,,,,,,,,,,,,,90,clavel,,,,,536.029,537.275,0,0,0.723,,0,58,58,89,1,REAL,FAKE,,,,,,,,,,,,,,,,,
,,,,,,,,,,Spanish,younger than 13,click here to respond,click here to respond,2025-07-22_23h08.58.467,empathy_intonation_perc,2024.2.4,MacIntel,11.62790698,60ffa874681b76a16e189f84,687ed1b7e638a4cbf2f02089,6880523314bb17e231ec688d,,,,,,,,,,,,,,0,,,,,,,,,,,,,,,,,,,,,,,,,,,,,,,,,,,,,,,,,,,,,,,,,,,,,,,,,84,escuto,,,,,537.277,539.491,1,0,1.687,,0,59,59,83,1,REAL,FAKE,,,,,,,,,,,,,,,,,
,,,,,,,,,,Spanish,younger than 13,click here to respond,click here to respond,2025-07-22_23h08.58.467,empathy_intonation_perc,2024.2.4,MacIntel,11.62790698,60ffa874681b76a16e189f84,687ed1b7e638a4cbf2f02089,6880523314bb17e231ec688d,,,,,,,,,,,,,,0,,,,,,,,,,,,,,,,,,,,,,,,,,,,,,,,,,,,,,,,,,,,,,,,,,,,,,,,,35,rompido,,,,,539.492,540.781,1,0,0.765,,0,60,60,34,1,REAL,FAKE,,,,,,,,,,,,,,,,,
,,,,,,,,,,Spanish,younger than 13,click here to respond,click here to respond,2025-07-22_23h08.58.467,empathy_intonation_perc,2024.2.4,MacIntel,11.62790698,60ffa874681b76a16e189f84,687ed1b7e638a4cbf2f02089,6880523314bb17e231ec688d,,,,,,,,,,,,,,1,,,,,,,,,,,,,,,,,,,,,,,,,,,,,,,,,,,,,,,,,,,,,,,,,,,,,,,,,2,pellizcar,,,,,540.782,541.917,0,0,0.611,,0,61,61,1,1,REAL,FAKE,,,,,,,,,,,,,,,,,
,,,,,,,,,,Spanish,younger than 13,click here to respond,click here to respond,2025-07-22_23h08.58.467,empathy_intonation_perc,2024.2.4,MacIntel,11.62790698,60ffa874681b76a16e189f84,687ed1b7e638a4cbf2f02089,6880523314bb17e231ec688d,,,,,,,,,,,,,,1,,,,,,,,,,,,,,,,,,,,,,,,,,,,,,,,,,,,,,,,,,,,,,,,,,,,,,,,,39,torpe,,,,,541.918,543.537,0,0,1.088,,0,62,62,38,1,REAL,FAKE,,,,,,,,,,,,,,,,,
,,,,,,,,,,Spanish,younger than 13,click here to respond,click here to respond,2025-07-22_23h08.58.467,empathy_intonation_perc,2024.2.4,MacIntel,11.62790698,60ffa874681b76a16e189f84,687ed1b7e638a4cbf2f02089,6880523314bb17e231ec688d,,,,,,,,,,,,,,1,,,,,,,,,,,,,,,,,,,,,,,,,,,,,,,,,,,,,,,,,,,,,,,,,,,,,,,,,52,camisa,,,,,543.538,544.606,1,1,0.54,,0,63,63,51,1,REAL,FAKE,,,,,,,,,,,,,,,,,
,,,,,,,,,,Spanish,younger than 13,click here to respond,click here to respond,2025-07-22_23h08.58.467,empathy_intonation_perc,2024.2.4,MacIntel,11.62790698,60ffa874681b76a16e189f84,687ed1b7e638a4cbf2f02089,6880523314bb17e231ec688d,,,,,,,,,,,,,,1,,,,,,,,,,,,,,,,,,,,,,,,,,,,,,,,,,,,,,,,,,,,,,,,,,,,,,,,,88,acantilado,,,,,544.607,545.859,0,0,0.725,,0,64,64,87,1,REAL,FAKE,,,,,,,,,,,,,,,,,
,,,,,,,,,,Spanish,younger than 13,click here to respond,click here to respond,2025-07-22_23h08.58.467,empathy_intonation_perc,2024.2.4,MacIntel,11.62790698,60ffa874681b76a16e189f84,687ed1b7e638a4cbf2f02089,6880523314bb17e231ec688d,,,,,,,,,,,,,,0,,,,,,,,,,,,,,,,,,,,,,,,,,,,,,,,,,,,,,,,,,,,,,,,,,,,,,,,,50,flamida,,,,,545.86,547.075,0,1,0.694,,0,65,65,49,1,REAL,FAKE,,,,,,,,,,,,,,,,,
,,,,,,,,,,Spanish,younger than 13,click here to respond,click here to respond,2025-07-22_23h08.58.467,empathy_intonation_perc,2024.2.4,MacIntel,11.62790698,60ffa874681b76a16e189f84,687ed1b7e638a4cbf2f02089,6880523314bb17e231ec688d,,,,,,,,,,,,,,1,,,,,,,,,,,,,,,,,,,,,,,,,,,,,,,,,,,,,,,,,,,,,,,,,,,,,,,,,36,loro,,,,,547.076,548.327,1,1,0.722,,0,66,66,35,1,REAL,FAKE,,,,,,,,,,,,,,,,,
,,,,,,,,,,Spanish,younger than 13,click here to respond,click here to respond,2025-07-22_23h08.58.467,empathy_intonation_perc,2024.2.4,MacIntel,11.62790698,60ffa874681b76a16e189f84,687ed1b7e638a4cbf2f02089,6880523314bb17e231ec688d,,,,,,,,,,,,,,1,,,,,,,,,,,,,,,,,,,,,,,,,,,,,,,,,,,,,,,,,,,,,,,,,,,,,,,,,37,granuja,,,,,548.327,550.805,0,0,1.951,,0,67,67,36,1,REAL,FAKE,,,,,,,,,,,,,,,,,
,,,,,,,,,,Spanish,younger than 13,click here to respond,click here to respond,2025-07-22_23h08.58.467,empathy_intonation_perc,2024.2.4,MacIntel,11.62790698,60ffa874681b76a16e189f84,687ed1b7e638a4cbf2f02089,6880523314bb17e231ec688d,,,,,,,,,,,,,,0,,,,,,,,,,,,,,,,,,,,,,,,,,,,,,,,,,,,,,,,,,,,,,,,,,,,,,,,,87,grodo,,,,,550.806,552.424,0,1,1.095,,0,68,68,86,1,REAL,FAKE,,,,,,,,,,,,,,,,,
,,,,,,,,,,Spanish,younger than 13,click here to respond,click here to respond,2025-07-22_23h08.58.467,empathy_intonation_perc,2024.2.4,MacIntel,11.62790698,60ffa874681b76a16e189f84,687ed1b7e638a4cbf2f02089,6880523314bb17e231ec688d,,,,,,,,,,,,,,0,,,,,,,,,,,,,,,,,,,,,,,,,,,,,,,,,,,,,,,,,,,,,,,,,,,,,,,,,58,plaudir,,,,,552.425,554.02,0,1,1.076,,0,69,69,57,1,REAL,FAKE,,,,,,,,,,,,,,,,,
,,,,,,,,,,Spanish,younger than 13,click here to respond,click here to respond,2025-07-22_23h08.58.467,empathy_intonation_perc,2024.2.4,MacIntel,11.62790698,60ffa874681b76a16e189f84,687ed1b7e638a4cbf2f02089,6880523314bb17e231ec688d,,,,,,,,,,,,,,1,,,,,,,,,,,,,,,,,,,,,,,,,,,,,,,,,,,,,,,,,,,,,,,,,,,,,,,,,48,ladrón,,,,,554.022,555.395,1,1,0.844,,0,70,70,47,1,REAL,FAKE,,,,,,,,,,,,,,,,,
,,,,,,,,,,Spanish,younger than 13,click here to respond,click here to respond,2025-07-22_23h08.58.467,empathy_intonation_perc,2024.2.4,MacIntel,11.62790698,60ffa874681b76a16e189f84,687ed1b7e638a4cbf2f02089,6880523314bb17e231ec688d,,,,,,,,,,,,,,1,,,,,,,,,,,,,,,,,,,,,,,,,,,,,,,,,,,,,,,,,,,,,,,,,,,,,,,,,56,musgo,,,,,555.397,556.554,0,0,0.63,,0,71,71,55,1,REAL,FAKE,,,,,,,,,,,,,,,,,
,,,,,,,,,,Spanish,younger than 13,click here to respond,click here to respond,2025-07-22_23h08.58.467,empathy_intonation_perc,2024.2.4,MacIntel,11.62790698,60ffa874681b76a16e189f84,687ed1b7e638a4cbf2f02089,6880523314bb17e231ec688d,,,,,,,,,,,,,,1,,,,,,,,,,,,,,,,,,,,,,,,,,,,,,,,,,,,,,,,,,,,,,,,,,,,,,,,,46,martillo,,,,,556.556,557.742,0,0,0.664,,0,72,72,45,1,REAL,FAKE,,,,,,,,,,,,,,,,,
,,,,,,,,,,Spanish,younger than 13,click here to respond,click here to respond,2025-07-22_23h08.58.467,empathy_intonation_perc,2024.2.4,MacIntel,11.62790698,60ffa874681b76a16e189f84,687ed1b7e638a4cbf2f02089,6880523314bb17e231ec688d,,,,,,,,,,,,,,1,,,,,,,,,,,,,,,,,,,,,,,,,,,,,,,,,,,,,,,,,,,,,,,,,,,,,,,,,9,hacha,,,,,557.743,559.001,0,0,0.729,,0,73,73,8,1,REAL,FAKE,,,,,,,,,,,,,,,,,
,,,,,,,,,,Spanish,younger than 13,click here to respond,click here to respond,2025-07-22_23h08.58.467,empathy_intonation_perc,2024.2.4,MacIntel,11.62790698,60ffa874681b76a16e189f84,687ed1b7e638a4cbf2f02089,6880523314bb17e231ec688d,,,,,,,,,,,,,,0,,,,,,,,,,,,,,,,,,,,,,,,,,,,,,,,,,,,,,,,,,,,,,,,,,,,,,,,,27,acutación,,,,,559.002,560.188,0,1,0.67,,0,74,74,26,1,REAL,FAKE,,,,,,,,,,,,,,,,,
,,,,,,,,,,Spanish,younger than 13,click here to respond,click here to respond,2025-07-22_23h08.58.467,empathy_intonation_perc,2024.2.4,MacIntel,11.62790698,60ffa874681b76a16e189f84,687ed1b7e638a4cbf2f02089,6880523314bb17e231ec688d,,,,,,,,,,,,,,1,,,,,,,,,,,,,,,,,,,,,,,,,,,,,,,,,,,,,,,,,,,,,,,,,,,,,,,,,38,estornudar,,,,,560.189,561.318,0,0,0.6,,0,75,75,37,1,REAL,FAKE,,,,,,,,,,,,,,,,,
,,,,,,,,,,Spanish,younger than 13,click here to respond,click here to respond,2025-07-22_23h08.58.467,empathy_intonation_perc,2024.2.4,MacIntel,11.62790698,60ffa874681b76a16e189f84,687ed1b7e638a4cbf2f02089,6880523314bb17e231ec688d,,,,,,,,,,,,,,1,,,,,,,,,,,,,,,,,,,,,,,,,,,,,,,,,,,,,,,,,,,,,,,,,,,,,,,,,91,click the 1 key.,,,,,561.319,562.678,1,1,0.842,,0,76,76,90,1,REAL,FAKE,,,,,,,,,,,,,,,,,
,,,,,,,,,,Spanish,younger than 13,click here to respond,click here to respond,2025-07-22_23h08.58.467,empathy_intonation_perc,2024.2.4,MacIntel,11.62790698,60ffa874681b76a16e189f84,687ed1b7e638a4cbf2f02089,6880523314bb17e231ec688d,,,,,,,,,,,,,,1,,,,,,,,,,,,,,,,,,,,,,,,,,,,,,,,,,,,,,,,,,,,,,,,,,,,,,,,,12,asesinato,,,,,562.678,564.598,0,0,1.395,,0,77,77,11,1,REAL,FAKE,,,,,,,,,,,,,,,,,
,,,,,,,,,,Spanish,younger than 13,click here to respond,click here to respond,2025-07-22_23h08.58.467,empathy_intonation_perc,2024.2.4,MacIntel,11.62790698,60ffa874681b76a16e189f84,687ed1b7e638a4cbf2f02089,6880523314bb17e231ec688d,,,,,,,,,,,,,,1,,,,,,,,,,,,,,,,,,,,,,,,,,,,,,,,,,,,,,,,,,,,,,,,,,,,,,,,,28,merodear,,,,,564.601,565.915,0,0,0.779,,0,78,78,27,1,REAL,FAKE,,,,,,,,,,,,,,,,,
,,,,,,,,,,Spanish,younger than 13,click here to respond,click here to respond,2025-07-22_23h08.58.467,empathy_intonation_perc,2024.2.4,MacIntel,11.62790698,60ffa874681b76a16e189f84,687ed1b7e638a4cbf2f02089,6880523314bb17e231ec688d,,,,,,,,,,,,,,1,,,,,,,,,,,,,,,,,,,,,,,,,,,,,,,,,,,,,,,,,,,,,,,,,,,,,,,,,24,látigo,,,,,565.917,567.304,0,0,0.86,,0,79,79,23,1,REAL,FAKE,,,,,,,,,,,,,,,,,
,,,,,,,,,,Spanish,younger than 13,click here to respond,click here to respond,2025-07-22_23h08.58.467,empathy_intonation_perc,2024.2.4,MacIntel,11.62790698,60ffa874681b76a16e189f84,687ed1b7e638a4cbf2f02089,6880523314bb17e231ec688d,,,,,,,,,,,,,,0,,,,,,,,,,,,,,,,,,,,,,,,,,,,,,,,,,,,,,,,,,,,,,,,,,,,,,,,,47,cartinar,,,,,567.306,568.693,0,1,0.855,,0,80,80,46,1,REAL,FAKE,,,,,,,,,,,,,,,,,
,,,,,,,,,,Spanish,younger than 13,click here to respond,click here to respond,2025-07-22_23h08.58.467,empathy_intonation_perc,2024.2.4,MacIntel,11.62790698,60ffa874681b76a16e189f84,687ed1b7e638a4cbf2f02089,6880523314bb17e231ec688d,,,,,,,,,,,,,,1,,,,,,,,,,,,,,,,,,,,,,,,,,,,,,,,,,,,,,,,,,,,,,,,,,,,,,,,,40,alfombra,,,,,568.694,570.505,0,0,1.28,,0,81,81,39,1,REAL,FAKE,,,,,,,,,,,,,,,,,
,,,,,,,,,,Spanish,younger than 13,click here to respond,click here to respond,2025-07-22_23h08.58.467,empathy_intonation_perc,2024.2.4,MacIntel,11.62790698,60ffa874681b76a16e189f84,687ed1b7e638a4cbf2f02089,6880523314bb17e231ec688d,,,,,,,,,,,,,,1,,,,,,,,,,,,,,,,,,,,,,,,,,,,,,,,,,,,,,,,,,,,,,,,,,,,,,,,,62,flaco,,,,,570.505,571.84,1,1,0.818,,0,82,82,61,1,REAL,FAKE,,,,,,,,,,,,,,,,,
,,,,,,,,,,Spanish,younger than 13,click here to respond,click here to respond,2025-07-22_23h08.58.467,empathy_intonation_perc,2024.2.4,MacIntel,11.62790698,60ffa874681b76a16e189f84,687ed1b7e638a4cbf2f02089,6880523314bb17e231ec688d,,,,,,,,,,,,,,1,,,,,,,,,,,,,,,,,,,,,,,,,,,,,,,,,,,,,,,,,,,,,,,,,,,,,,,,,65,bizcocho,,,,,571.842,573.405,1,1,1.035,,0,83,83,64,1,REAL,FAKE,,,,,,,,,,,,,,,,,
,,,,,,,,,,Spanish,younger than 13,click here to respond,click here to respond,2025-07-22_23h08.58.467,empathy_intonation_perc,2024.2.4,MacIntel,11.62790698,60ffa874681b76a16e189f84,687ed1b7e638a4cbf2f02089,6880523314bb17e231ec688d,,,,,,,,,,,,,,1,,,,,,,,,,,,,,,,,,,,,,,,,,,,,,,,,,,,,,,,,,,,,,,,,,,,,,,,,3,pulmones,,,,,573.407,574.617,0,0,0.675,,0,84,84,2,1,REAL,FAKE,,,,,,,,,,,,,,,,,
,,,,,,,,,,Spanish,younger than 13,click here to respond,click here to respond,2025-07-22_23h08.58.467,empathy_intonation_perc,2024.2.4,MacIntel,11.62790698,60ffa874681b76a16e189f84,687ed1b7e638a4cbf2f02089,6880523314bb17e231ec688d,,,,,,,,,,,,,,1,,,,,,,,,,,,,,,,,,,,,,,,,,,,,,,,,,,,,,,,,,,,,,,,,,,,,,,,,7,pésimo,,,,,574.618,576.229,1,1,1.075,,0,85,85,6,1,REAL,FAKE,,,,,,,,,,,,,,,,,
,,,,,,,,,,Spanish,younger than 13,click here to respond,click here to respond,2025-07-22_23h08.58.467,empathy_intonation_perc,2024.2.4,MacIntel,11.62790698,60ffa874681b76a16e189f84,687ed1b7e638a4cbf2f02089,6880523314bb17e231ec688d,,,,,,,,,,,,,,0,,,,,,,,,,,,,,,,,,,,,,,,,,,,,,,,,,,,,,,,,,,,,,,,,,,,,,,,,32,fatacidad,,,,,576.23,577.398,0,1,0.645,,0,86,86,31,1,REAL,FAKE,,,,,,,,,,,,,,,,,
,,,,,,,,,,Spanish,younger than 13,click here to respond,click here to respond,2025-07-22_23h08.58.467,empathy_intonation_perc,2024.2.4,MacIntel,11.62790698,60ffa874681b76a16e189f84,687ed1b7e638a4cbf2f02089,6880523314bb17e231ec688d,,,,,,,,,,,,,,0,,,,,,,,,,,,,,,,,,,,,,,,,,,,,,,,,,,,,,,,,,,,,,,,,,,,,,,,,10,antar,,,,,577.399,578.543,1,0,0.621,,0,87,87,9,1,REAL,FAKE,,,,,,,,,,,,,,,,,
,,,,,,,,,,Spanish,younger than 13,click here to respond,click here to respond,2025-07-22_23h08.58.467,empathy_intonation_perc,2024.2.4,MacIntel,11.62790698,60ffa874681b76a16e189f84,687ed1b7e638a4cbf2f02089,6880523314bb17e231ec688d,,,,,,,,,,,,,,1,,,,,,,,,,,,,,,,,,,,,,,,,,,,,,,,,,,,,,,,,,,,,,,,,,,,,,,,,15,regar,,,,,578.544,580.725,1,1,1.657,,0,88,88,14,1,REAL,FAKE,,,,,,,,,,,,,,,,,
,,,,,,,,,,Spanish,younger than 13,click here to respond,click here to respond,2025-07-22_23h08.58.467,empathy_intonation_perc,2024.2.4,MacIntel,11.62790698,60ffa874681b76a16e189f84,687ed1b7e638a4cbf2f02089,6880523314bb17e231ec688d,,,,,,,,,,,,,,1,,,,,,,,,,,,,,,,,,,,,,,,,,,,,,,,,,,,,,,,,,,,,,,,,,,,,,,,,57,tacaño,,,,,580.726,581.789,0,0,0.544,,0,89,89,56,1,REAL,FAKE,,,,,,,,,,,,,,,,,
,,,,,,,,,,Spanish,younger than 13,click here to respond,click here to respond,2025-07-22_23h08.58.467,empathy_intonation_perc,2024.2.4,MacIntel,11.62790698,60ffa874681b76a16e189f84,687ed1b7e638a4cbf2f02089,6880523314bb17e231ec688d,,,,,,,,,,,,,,0,,,,,,,,,,,,,,,,,,,,,,,,,,,,,,,,,,,,,,,,,,,,,,,,,,,,,,,,,63,esposante,,,,,581.79,583.434,0,1,1.117,,0,90,90,62,1,REAL,FAKE,,,,,,,,,,,,,,,,,
,,,,,,,,,,Spanish,younger than 13,click here to respond,click here to respond,2025-07-22_23h08.58.467,empathy_intonation_perc,2024.2.4,MacIntel,11.62790698,60ffa874681b76a16e189f84,687ed1b7e638a4cbf2f02089,6880523314bb17e231ec688d,,,,,,,,,,,,,,1,,,,,,,,,,,,,,,,,,,,,,,,,,,,,,,,,,,,,,,,,,,,,,,,,,,,,,,,,55,nevar,,,,,583.435,585.027,0,0,1.06,,0,91,91,54,1,REAL,FAKE,,,,,,,,,,,,,,,,,
,,,,,,,,,,Spanish,younger than 13,click here to respond,click here to respond,2025-07-22_23h08.58.467,empathy_intonation_perc,2024.2.4,MacIntel,11.62790698,60ffa874681b76a16e189f84,687ed1b7e638a4cbf2f02089,6880523314bb17e231ec688d,,,,,,,,,,,,,,,,,,,,,,,,,,,,,,,,,,,,,,,,,,,,,,,,,,,,,,,,,,,,,,,,,,,,,,,,,,,,,,,,,,,,,,,,,,585.028,590.177,,,,,,,,,,,,,,,
,,,,,,,,,,Spanish,younger than 13,click here to respond,click here to respond,2025-07-22_23h08.58.467,empathy_intonation_perc,2024.2.4,MacIntel,11.62790698,60ffa874681b76a16e189f84,687ed1b7e638a4cbf2f02089,6880523314bb17e231ec688d,,,,,,,,,,,,,1,,,,,,,,,,,,,,,,,,,,,,,,,,,,,,,,,,,,,,,,,,,,,,,,,,,,,,,,,,,,,,,,,,,,,,,,,,,,,,,590.193,602.632,strongly agree,0,0,0,0,1,I can easily tell if someone else wants to enter a conversation.,1,0,1,0,,
,,,,,,,,,,Spanish,younger than 13,click here to respond,click here to respond,2025-07-22_23h08.58.467,empathy_intonation_perc,2024.2.4,MacIntel,11.62790698,60ffa874681b76a16e189f84,687ed1b7e638a4cbf2f02089,6880523314bb17e231ec688d,,,,,,,,,,,,,2,,,,,,,,,,,,,,,,,,,,,,,,,,,,,,,,,,,,,,,,,,,,,,,,,,,,,,,,,,,,,,,,,,,,,,,,,,,,,,,602.633,604.35,strongly agree,0,1,1,1,1,I prefer animals to humans.,0,1,0,0,,
,,,,,,,,,,Spanish,younger than 13,click here to respond,click here to respond,2025-07-22_23h08.58.467,empathy_intonation_perc,2024.2.4,MacIntel,11.62790698,60ffa874681b76a16e189f84,687ed1b7e638a4cbf2f02089,6880523314bb17e231ec688d,,,,,,,,,,,,,3,,,,,,,,,,,,,,,,,,,,,,,,,,,,,,,,,,,,,,,,,,,,,,,,,,,,,,,,,,,,,,,,,,,,,,,,,,,,,,,604.351,605.839,strongly agree,0,2,2,2,1,I try to keep up with the current trends and fashions.,0,1,0,0,,
,,,,,,,,,,Spanish,younger than 13,click here to respond,click here to respond,2025-07-22_23h08.58.467,empathy_intonation_perc,2024.2.4,MacIntel,11.62790698,60ffa874681b76a16e189f84,687ed1b7e638a4cbf2f02089,6880523314bb17e231ec688d,,,,,,,,,,,,,4,,,,,,,,,,,,,,,,,,,,,,,,,,,,,,,,,,,,,,,,,,,,,,,,,,,,,,,,,,,,,,,,,,,,,,,,,,,,,,,605.84,610.697,strongly agree,0,3,3,3,1,"I find it difficult to explain to others things that I understand easily,   when they don't understand it first time.",1,0,0,1,,
,,,,,,,,,,Spanish,younger than 13,click here to respond,click here to respond,2025-07-22_23h08.58.467,empathy_intonation_perc,2024.2.4,MacIntel,11.62790698,60ffa874681b76a16e189f84,687ed1b7e638a4cbf2f02089,6880523314bb17e231ec688d,,,,,,,,,,,,,5,,,,,,,,,,,,,,,,,,,,,,,,,,,,,,,,,,,,,,,,,,,,,,,,,,,,,,,,,,,,,,,,,,,,,,,,,,,,,,,610.698,612.917,slightly agree,0,4,4,4,1,I dream most nights.,0,1,0,0,,
,,,,,,,,,,Spanish,younger than 13,click here to respond,click here to respond,2025-07-22_23h08.58.467,empathy_intonation_perc,2024.2.4,MacIntel,11.62790698,60ffa874681b76a16e189f84,687ed1b7e638a4cbf2f02089,6880523314bb17e231ec688d,,,,,,,,,,,,,6,,,,,,,,,,,,,,,,,,,,,,,,,,,,,,,,,,,,,,,,,,,,,,,,,,,,,,,,,,,,,,,,,,,,,,,,,,,,,,,612.918,614.708,strongly agree,0,5,5,5,1,I really enjoy caring for other people.,1,0,1,0,,
,,,,,,,,,,Spanish,younger than 13,click here to respond,click here to respond,2025-07-22_23h08.58.467,empathy_intonation_perc,2024.2.4,MacIntel,11.62790698,60ffa874681b76a16e189f84,687ed1b7e638a4cbf2f02089,6880523314bb17e231ec688d,,,,,,,,,,,,,7,,,,,,,,,,,,,,,,,,,,,,,,,,,,,,,,,,,,,,,,,,,,,,,,,,,,,,,,,,,,,,,,,,,,,,,,,,,,,,,614.709,618.451,strongly disagree,0,6,6,6,1,I try to solve my own problems rather than discussing them with others.,0,1,0,0,,
,,,,,,,,,,Spanish,younger than 13,click here to respond,click here to respond,2025-07-22_23h08.58.467,empathy_intonation_perc,2024.2.4,MacIntel,11.62790698,60ffa874681b76a16e189f84,687ed1b7e638a4cbf2f02089,6880523314bb17e231ec688d,,,,,,,,,,,,,8,,,,,,,,,,,,,,,,,,,,,,,,,,,,,,,,,,,,,,,,,,,,,,,,,,,,,,,,,,,,,,,,,,,,,,,,,,,,,,,618.453,621.925,slightly agree,0,7,7,7,1,I find it hard to know what to do in a social situation.,1,0,0,1,,
,,,,,,,,,,Spanish,younger than 13,click here to respond,click here to respond,2025-07-22_23h08.58.467,empathy_intonation_perc,2024.2.4,MacIntel,11.62790698,60ffa874681b76a16e189f84,687ed1b7e638a4cbf2f02089,6880523314bb17e231ec688d,,,,,,,,,,,,,9,,,,,,,,,,,,,,,,,,,,,,,,,,,,,,,,,,,,,,,,,,,,,,,,,,,,,,,,,,,,,,,,,,,,,,,,,,,,,,,621.926,623.763,strongly disagree,0,8,8,8,1,I am at my best first thing in the morning.,0,1,0,0,,
,,,,,,,,,,Spanish,younger than 13,click here to respond,click here to respond,2025-07-22_23h08.58.467,empathy_intonation_perc,2024.2.4,MacIntel,11.62790698,60ffa874681b76a16e189f84,687ed1b7e638a4cbf2f02089,6880523314bb17e231ec688d,,,,,,,,,,,,,10,,,,,,,,,,,,,,,,,,,,,,,,,,,,,,,,,,,,,,,,,,,,,,,,,,,,,,,,,,,,,,,,,,,,,,,,,,,,,,,623.763,627.883,strongly agree,0,9,9,9,1,People often tell me that I went too far in driving my point home in a discussion.,1,0,0,1,,
,,,,,,,,,,Spanish,younger than 13,click here to respond,click here to respond,2025-07-22_23h08.58.467,empathy_intonation_perc,2024.2.4,MacIntel,11.62790698,60ffa874681b76a16e189f84,687ed1b7e638a4cbf2f02089,6880523314bb17e231ec688d,,,,,,,,,,,,,11,,,,,,,,,,,,,,,,,,,,,,,,,,,,,,,,,,,,,,,,,,,,,,,,,,,,,,,,,,,,,,,,,,,,,,,,,,,,,,,627.885,632.647,slightly disagree,0,10,10,10,1,It doesn't bother me too much if I am late meeting a friend.,1,0,0,1,,
,,,,,,,,,,Spanish,younger than 13,click here to respond,click here to respond,2025-07-22_23h08.58.467,empathy_intonation_perc,2024.2.4,MacIntel,11.62790698,60ffa874681b76a16e189f84,687ed1b7e638a4cbf2f02089,6880523314bb17e231ec688d,,,,,,,,,,,,,12,,,,,,,,,,,,,,,,,,,,,,,,,,,,,,,,,,,,,,,,,,,,,,,,,,,,,,,,,,,,,,,,,,,,,,,,,,,,,,,632.648,635.814,strongly disagree,0,11,11,11,1,"Friendships and relationships are just too difficult, so I tend not to 
  bother with them.",1,0,0,1,,
,,,,,,,,,,Spanish,younger than 13,click here to respond,click here to respond,2025-07-22_23h08.58.467,empathy_intonation_perc,2024.2.4,MacIntel,11.62790698,60ffa874681b76a16e189f84,687ed1b7e638a4cbf2f02089,6880523314bb17e231ec688d,,,,,,,,,,,,,13,,,,,,,,,,,,,,,,,,,,,,,,,,,,,,,,,,,,,,,,,,,,,,,,,,,,,,,,,,,,,,,,,,,,,,,,,,,,,,,635.816,641.586,slightly disagree,0,12,12,12,1,"I would never break a law, no matter how minor.",0,1,0,0,,
,,,,,,,,,,Spanish,younger than 13,click here to respond,click here to respond,2025-07-22_23h08.58.467,empathy_intonation_perc,2024.2.4,MacIntel,11.62790698,60ffa874681b76a16e189f84,687ed1b7e638a4cbf2f02089,6880523314bb17e231ec688d,,,,,,,,,,,,,14,,,,,,,,,,,,,,,,,,,,,,,,,,,,,,,,,,,,,,,,,,,,,,,,,,,,,,,,,,,,,,,,,,,,,,,,,,,,,,,641.587,646.83,strongly disagree,0,13,13,13,1,I often find it difficult to judge if something is rude or polite.,1,0,0,1,,
