instructions_exposure.started,instructions_exposure.stopped,instructions_exposure_loop.thisRepN,instructions_exposure_loop.thisTrialN,instructions_exposure_loop.thisN,instructions_exposure_loop.thisIndex,instructions_exposure_loop.ran,instructions_text,continue_text,participant_id,"What variety of Spanish are you most familiar with? (e.g., Peruvian, Spanish, Mexican)",At what age did you begin learning Spanish?,Are you proficient in any languages other than English/Spanish?,"Are you familiar with Caribbean (e.g., Caribbean, Puerto Rican) or Galician Spanish?",date,expName,psychopyVersion,OS,frameRate,id,study_id,session,trial_exposure.started,trial_exposure.stopped,key_resp_exposure.keys,key_resp_exposure.corr,key_resp_exposure.rt,key_resp_exposure.duration,key_resp.keys,exposure_loop.thisRepN,exposure_loop.thisTrialN,exposure_loop.thisN,exposure_loop.thisIndex,exposure_loop.ran,item_num,correct_response,question,path,duration,instructions_2afc.started,instructions_2afc.stopped,instructions_2afc_loop.thisRepN,instructions_2afc_loop.thisTrialN,instructions_2afc_loop.thisN,instructions_2afc_loop.thisIndex,instructions_2afc_loop.ran,practice_2afc.started,practice_2afc.stopped,key_resp_2afc_practice.keys,key_resp_2afc_practice.corr,key_resp_2afc_practice.rt,key_resp_2afc_practice.duration,trials_2afc_practice_loop.thisRepN,trials_2afc_practice_loop.thisTrialN,trials_2afc_practice_loop.thisN,trials_2afc_practice_loop.thisIndex,trials_2afc_practice_loop.ran,check_2afc.started,check_2afc.stopped,trial_2afc.started,trial_2afc.stopped,key_resp_2afc_trial.keys,key_resp_2afc_trial.corr,key_resp_2afc_trial.rt,key_resp_2afc_trial.duration,trials_2afc_loop.thisRepN,trials_2afc_loop.thisTrialN,trials_2afc_loop.thisN,trials_2afc_loop.thisIndex,trials_2afc_loop.ran,target,variety,instructions_lextale.started,instructions_lextale.stopped,instructions_lextale_loop.thisRepN,instructions_lextale_loop.thisTrialN,instructions_lextale_loop.thisN,instructions_lextale_loop.thisIndex,instructions_lextale_loop.ran,practice_lextale.started,practice_lextale.stopped,key_resp_lextale_practice.keys,key_resp_lextale_practice.corr,key_resp_lextale_practice.rt,key_resp_lextale_practice.duration,practice_feedback_lextale.started,practice_feedback_lextale.stopped,trials_lextale_practice_loop.thisRepN,trials_lextale_practice_loop.thisTrialN,trials_lextale_practice_loop.thisN,trials_lextale_practice_loop.thisIndex,trials_lextale_practice_loop.ran,stim,word,prac_button_real,prac_button_false,check_lextale.started,check_lextale.stopped,trial_lextale.started,trial_lextale.stopped,key_resp_lextale_trial.keys,key_resp_lextale_trial.corr,key_resp_lextale_trial.rt,key_resp_lextale_trial.duration,trials_lextale_loop.thisRepN,trials_lextale_loop.thisTrialN,trials_lextale_loop.thisN,trials_lextale_loop.thisIndex,trials_lextale_loop.ran,button_real,button_false,instructions_eq.started,instructions_eq.stopped,trial_eq.started,trial_eq.stopped,slider_eq_trial.response,trials_eq_loop.thisRepN,trials_eq_loop.thisTrialN,trials_eq_loop.thisN,trials_eq_loop.thisIndex,trials_eq_loop.ran,item,is_test_item,is_distractor,is_agree_score,is_disagree_score,end_exp.started,end_exp.stopped
0.011,3.0238,0,0,0,0,1,"In the following task, you are going to hear a series of conversations.", (press the space bar to continue),,mexican,13 or older,"no, only English or Spanish",no,2025-08-13_17h38.58.880,empathy_intonation_perc,2024.2.4,Win32,60.24096386,65c11c7e9a7978508604477f,687ed1b7e638a4cbf2f02089,689d05d04d8b039383a61d15,,,,,,,,,,,,,,,,,,,,,,,,,,,,,,,,,,,,,,,,,,,,,,,,,,,,,,,,,,,,,,,,,,,,,,,,,,,,,,,,,,,,,,,,,,,,,,,,,,,,,,,,,,
3.0242,5.7453,0,1,1,1,1,It is okay if you don't not 100% understand them!, (press the space bar to continue),,mexican,13 or older,"no, only English or Spanish",no,2025-08-13_17h38.58.880,empathy_intonation_perc,2024.2.4,Win32,60.24096386,65c11c7e9a7978508604477f,687ed1b7e638a4cbf2f02089,689d05d04d8b039383a61d15,,,,,,,,,,,,,,,,,,,,,,,,,,,,,,,,,,,,,,,,,,,,,,,,,,,,,,,,,,,,,,,,,,,,,,,,,,,,,,,,,,,,,,,,,,,,,,,,,,,,,,,,,,
5.7465,8.3335,0,2,2,2,1,"After, you will read a sentence about the conversation and decide if it's true or false.", (press the space bar to continue),,mexican,13 or older,"no, only English or Spanish",no,2025-08-13_17h38.58.880,empathy_intonation_perc,2024.2.4,Win32,60.24096386,65c11c7e9a7978508604477f,687ed1b7e638a4cbf2f02089,689d05d04d8b039383a61d15,,,,,,,,,,,,,,,,,,,,,,,,,,,,,,,,,,,,,,,,,,,,,,,,,,,,,,,,,,,,,,,,,,,,,,,,,,,,,,,,,,,,,,,,,,,,,,,,,,,,,,,,,,
8.3355,22.5099,0,3,3,3,1,"If it's true, press '1' (True) and if it's false press '0' (False).", (press the space bar to continue),,mexican,13 or older,"no, only English or Spanish",no,2025-08-13_17h38.58.880,empathy_intonation_perc,2024.2.4,Win32,60.24096386,65c11c7e9a7978508604477f,687ed1b7e638a4cbf2f02089,689d05d04d8b039383a61d15,,,,,,,,,,,,,,,,,,,,,,,,,,,,,,,,,,,,,,,,,,,,,,,,,,,,,,,,,,,,,,,,,,,,,,,,,,,,,,,,,,,,,,,,,,,,,,,,,,,,,,,,,,
,,,,,,,,,,mexican,13 or older,"no, only English or Spanish",no,2025-08-13_17h38.58.880,empathy_intonation_perc,2024.2.4,Win32,60.24096386,65c11c7e9a7978508604477f,687ed1b7e638a4cbf2f02089,689d05d04d8b039383a61d15,22.5228,85.862,1,1,3.322,,,0,0,0,1,1,2,1,The mom asked the daughter if she already went to the supermarket.,./stim/exposure_wavs/dr_stimuli_convo.wav,60,,,,,,,,,,,,,,,,,,,,,,,,,,,,,,,,,,,,,,,,,,,,,,,,,,,,,,,,,,,,,,,,,,,,,,,,,,,,,,,,,,,,,,,,,
,,,,,,,,,,mexican,13 or older,"no, only English or Spanish",no,2025-08-13_17h38.58.880,empathy_intonation_perc,2024.2.4,Win32,60.24096386,65c11c7e9a7978508604477f,687ed1b7e638a4cbf2f02089,689d05d04d8b039383a61d15,85.8637,141.9169,0,0,9.0279,,,0,1,1,0,1,1,1,The son asked the mom if Aunt Marina is okay.,./stim/exposure_wavs/ga_stimuli_convo.wav,47,,,,,,,,,,,,,,,,,,,,,,,,,,,,,,,,,,,,,,,,,,,,,,,,,,,,,,,,,,,,,,,,,,,,,,,,,,,,,,,,,,,,,,,,,
,,,,,,,,,,mexican,13 or older,"no, only English or Spanish",no,2025-08-13_17h38.58.880,empathy_intonation_perc,2024.2.4,Win32,60.24096386,65c11c7e9a7978508604477f,687ed1b7e638a4cbf2f02089,689d05d04d8b039383a61d15,141.9195,182.0419,0,1,4.097,,,0,2,2,2,1,3,0,The mom already has rice.,./stim/exposure_wavs/pr_stimuli_convo.wav,36,,,,,,,,,,,,,,,,,,,,,,,,,,,,,,,,,,,,,,,,,,,,,,,,,,,,,,,,,,,,,,,,,,,,,,,,,,,,,,,,,,,,,,,,,
,,,,,,,"In the following task you are going to hear a series of utterances. 

  You will decide if the utterances sound like questions or not using your keyboard.", (press the spacebar to continue),,mexican,13 or older,"no, only English or Spanish",no,2025-08-13_17h38.58.880,empathy_intonation_perc,2024.2.4,Win32,60.24096386,65c11c7e9a7978508604477f,687ed1b7e638a4cbf2f02089,689d05d04d8b039383a61d15,,,,,,,,,,,,,,,,,,182.0458,187.1347,0,0,0,0,1,,,,,,,,,,,,,,,,,,,,,,,,,,,,,,,,,,,,,,,,,,,,,,,,,,,,,,,,,,,,,,,,,,,,,,,,,,,,,,,,,,
,,,,,,,"If you believe the utterance is a question, type '1' (for 'yes') and if you do not 
  believe it is a question type '0' (for 'no').

  Let's practice a bit...", (press the spacebar to continue),,mexican,13 or older,"no, only English or Spanish",no,2025-08-13_17h38.58.880,empathy_intonation_perc,2024.2.4,Win32,60.24096386,65c11c7e9a7978508604477f,687ed1b7e638a4cbf2f02089,689d05d04d8b039383a61d15,,,,,,,,,,,,,,,,,,187.1364,190.3572,0,1,1,1,1,,,,,,,,,,,,,,,,,,,,,,,,,,,,,,,,,,,,,,,,,,,,,,,,,,,,,,,,,,,,,,,,,,,,,,,,,,,,,,,,,,
,,,,,,,,,,mexican,13 or older,"no, only English or Spanish",no,2025-08-13_17h38.58.880,empathy_intonation_perc,2024.2.4,Win32,60.24096386,65c11c7e9a7978508604477f,687ed1b7e638a4cbf2f02089,689d05d04d8b039383a61d15,,,,,,,,,,,,,,1,,./stim/wavs/chilean_question_filler_Mi-padre-cantaba-bien.wav,,,,,,,,,190.3628,196.1857,0,0,5.2939,,0,0,0,2,1,,,,,,,,,,,,,,,,,,,,,,,,,,,,,,,,,,,,,,,,,,,,,,,,,,,,,,,,,,,,,,,,,,,,,,,
,,,,,,,,,,mexican,13 or older,"no, only English or Spanish",no,2025-08-13_17h38.58.880,empathy_intonation_perc,2024.2.4,Win32,60.24096386,65c11c7e9a7978508604477f,687ed1b7e638a4cbf2f02089,689d05d04d8b039383a61d15,,,,,,,,,,,,,,0,,./stim/wavs/peruvian_statement_filler_El-nino-habla-con-su-madre.wav,,,,,,,,,196.1865,199.3241,0,1,2.6176,,0,1,1,6,1,,,,,,,,,,,,,,,,,,,,,,,,,,,,,,,,,,,,,,,,,,,,,,,,,,,,,,,,,,,,,,,,,,,,,,,
,,,,,,,,,,mexican,13 or older,"no, only English or Spanish",no,2025-08-13_17h38.58.880,empathy_intonation_perc,2024.2.4,Win32,60.24096386,65c11c7e9a7978508604477f,687ed1b7e638a4cbf2f02089,689d05d04d8b039383a61d15,,,,,,,,,,,,,,0,,./stim/wavs/cuban_statement_filler_Cocinabas-por-la-noche.wav,,,,,,,,,199.3247,202.9144,0,1,3.0796,,0,2,2,4,1,,,,,,,,,,,,,,,,,,,,,,,,,,,,,,,,,,,,,,,,,,,,,,,,,,,,,,,,,,,,,,,,,,,,,,,
,,,,,,,,,,mexican,13 or older,"no, only English or Spanish",no,2025-08-13_17h38.58.880,empathy_intonation_perc,2024.2.4,Win32,60.24096386,65c11c7e9a7978508604477f,687ed1b7e638a4cbf2f02089,689d05d04d8b039383a61d15,,,,,,,,,,,,,,0,,./stim/wavs/andalusian_statement_filler_Alberto-nunca-se-afeita.wav,,,,,,,,,202.915,206.187,1,0,2.7609,,0,3,3,5,1,,,,,,,,,,,,,,,,,,,,,,,,,,,,,,,,,,,,,,,,,,,,,,,,,,,,,,,,,,,,,,,,,,,,,,,
,,,,,,,,,,mexican,13 or older,"no, only English or Spanish",no,2025-08-13_17h38.58.880,empathy_intonation_perc,2024.2.4,Win32,60.24096386,65c11c7e9a7978508604477f,687ed1b7e638a4cbf2f02089,689d05d04d8b039383a61d15,,,,,,,,,,,,,,1,,./stim/wavs/castilian_question_filler_Mi-esposo-conoce-al-chico.wav,,,,,,,,,206.1874,209.1426,1,1,2.4484,,0,4,4,0,1,,,,,,,,,,,,,,,,,,,,,,,,,,,,,,,,,,,,,,,,,,,,,,,,,,,,,,,,,,,,,,,,,,,,,,,
,,,,,,,,,,mexican,13 or older,"no, only English or Spanish",no,2025-08-13_17h38.58.880,empathy_intonation_perc,2024.2.4,Win32,60.24096386,65c11c7e9a7978508604477f,687ed1b7e638a4cbf2f02089,689d05d04d8b039383a61d15,,,,,,,,,,,,,,0,,./stim/wavs/puertorican_statement_filler_La-nina-pinta-con-su-amiga.wav,,,,,,,,,209.143,212.9662,0,1,3.3098,,0,5,5,7,1,,,,,,,,,,,,,,,,,,,,,,,,,,,,,,,,,,,,,,,,,,,,,,,,,,,,,,,,,,,,,,,,,,,,,,,
,,,,,,,,,,mexican,13 or older,"no, only English or Spanish",no,2025-08-13_17h38.58.880,empathy_intonation_perc,2024.2.4,Win32,60.24096386,65c11c7e9a7978508604477f,687ed1b7e638a4cbf2f02089,689d05d04d8b039383a61d15,,,,,,,,,,,,,,1,,./stim/wavs/mexican_question_filler_Felipe-no-tiene-contrasena.wav,,,,,,,,,212.9668,216.2558,1,1,2.7811,,0,6,6,3,1,,,,,,,,,,,,,,,,,,,,,,,,,,,,,,,,,,,,,,,,,,,,,,,,,,,,,,,,,,,,,,,,,,,,,,,
,,,,,,,,,,mexican,13 or older,"no, only English or Spanish",no,2025-08-13_17h38.58.880,empathy_intonation_perc,2024.2.4,Win32,60.24096386,65c11c7e9a7978508604477f,687ed1b7e638a4cbf2f02089,689d05d04d8b039383a61d15,,,,,,,,,,,,,,1,,./stim/wavs/argentine_question_filler_Mi-vecino-habla-mucho.wav,,,,,,,,,216.2562,218.5435,1,1,1.7713,,0,7,7,1,1,,,,,,,,,,,,,,,,,,,,,,,,,,,,,,,,,,,,,,,,,,,,,,,,,,,,,,,,,,,,,,,,,,,,,,,
,,,,,,,,,,mexican,13 or older,"no, only English or Spanish",no,2025-08-13_17h38.58.880,empathy_intonation_perc,2024.2.4,Win32,60.24096386,65c11c7e9a7978508604477f,687ed1b7e638a4cbf2f02089,689d05d04d8b039383a61d15,,,,,,,,,,,,,,,,,,,,,,,,,,,,,,,,,,,,218.5438,221.0153,,,,,,,,,,,,,,,,,,,,,,,,,,,,,,,,,,,,,,,,,,,,,,,,,,,,,,,,,,,,,,,,,,,,,
,,,,,,,,,,mexican,13 or older,"no, only English or Spanish",no,2025-08-13_17h38.58.880,empathy_intonation_perc,2024.2.4,Win32,60.24096386,65c11c7e9a7978508604477f,687ed1b7e638a4cbf2f02089,689d05d04d8b039383a61d15,,,,,,,,,,,,,71,0,,./stim/wavs/castilian_mismatch_declarative-broad-focus_La-nina-lava-el-plato.wav,,,,,,,,,,,,,,,,,,,,,,221.0236,223.4195,1,0,1.8762,,0,0,0,70,1,0,castilian,,,,,,,,,,,,,,,,,,,,,,,,,,,,,,,,,,,,,,,,,,,,,,,,,,,,,,,,
,,,,,,,,,,mexican,13 or older,"no, only English or Spanish",no,2025-08-13_17h38.58.880,empathy_intonation_perc,2024.2.4,Win32,60.24096386,65c11c7e9a7978508604477f,687ed1b7e638a4cbf2f02089,689d05d04d8b039383a61d15,,,,,,,,,,,,,67,0,,./stim/wavs/puertorican_match_declarative-broad-focus_Manuela-vende-el-carro.wav,,,,,,,,,,,,,,,,,,,,,,223.42,225.6232,0,1,1.6964,,0,1,1,66,1,0,puertorican,,,,,,,,,,,,,,,,,,,,,,,,,,,,,,,,,,,,,,,,,,,,,,,,,,,,,,,,
,,,,,,,,,,mexican,13 or older,"no, only English or Spanish",no,2025-08-13_17h38.58.880,empathy_intonation_perc,2024.2.4,Win32,60.24096386,65c11c7e9a7978508604477f,687ed1b7e638a4cbf2f02089,689d05d04d8b039383a61d15,,,,,,,,,,,,,51,0,,./stim/wavs/cuban_match_declarative-broad-focus_Ana-lleva-el-abrigo.wav,,,,,,,,,,,,,,,,,,,,,,225.6235,227.677,0,1,1.548,,0,2,2,50,1,0,cuban,,,,,,,,,,,,,,,,,,,,,,,,,,,,,,,,,,,,,,,,,,,,,,,,,,,,,,,,
,,,,,,,,,,mexican,13 or older,"no, only English or Spanish",no,2025-08-13_17h38.58.880,empathy_intonation_perc,2024.2.4,Win32,60.24096386,65c11c7e9a7978508604477f,687ed1b7e638a4cbf2f02089,689d05d04d8b039383a61d15,,,,,,,,,,,,,25,1,,./stim/wavs/castilian_mismatch_interrogative-total-yn_La-maestra-vive-en-Paris.wav,,,,,,,,,,,,,,,,,,,,,,227.6774,230.2654,1,1,2.0784,,0,3,3,24,1,0,castilian,,,,,,,,,,,,,,,,,,,,,,,,,,,,,,,,,,,,,,,,,,,,,,,,,,,,,,,,
,,,,,,,,,,mexican,13 or older,"no, only English or Spanish",no,2025-08-13_17h38.58.880,empathy_intonation_perc,2024.2.4,Win32,60.24096386,65c11c7e9a7978508604477f,687ed1b7e638a4cbf2f02089,689d05d04d8b039383a61d15,,,,,,,,,,,,,16,1,,./stim/wavs/mexican_match_interrogative-total-yn_Emilio-ama-la-marcha.wav,,,,,,,,,,,,,,,,,,,,,,230.2657,232.5027,1,1,1.7302,,0,4,4,15,1,0,mexican,,,,,,,,,,,,,,,,,,,,,,,,,,,,,,,,,,,,,,,,,,,,,,,,,,,,,,,,
,,,,,,,,,,mexican,13 or older,"no, only English or Spanish",no,2025-08-13_17h38.58.880,empathy_intonation_perc,2024.2.4,Win32,60.24096386,65c11c7e9a7978508604477f,687ed1b7e638a4cbf2f02089,689d05d04d8b039383a61d15,,,,,,,,,,,,,44,1,,./stim/wavs/puertorican_mismatch_interrogative-total-yn_Mi-madre-come-la-fruta.wav,,,,,,,,,,,,,,,,,,,,,,232.5032,234.9243,0,0,1.9041,,0,5,5,43,1,1,puertorican,,,,,,,,,,,,,,,,,,,,,,,,,,,,,,,,,,,,,,,,,,,,,,,,,,,,,,,,
,,,,,,,,,,mexican,13 or older,"no, only English or Spanish",no,2025-08-13_17h38.58.880,empathy_intonation_perc,2024.2.4,Win32,60.24096386,65c11c7e9a7978508604477f,687ed1b7e638a4cbf2f02089,689d05d04d8b039383a61d15,,,,,,,,,,,,,14,1,,./stim/wavs/mexican_match_interrogative-total-yn_Daniel-iba-a-Bolivia.wav,,,,,,,,,,,,,,,,,,,,,,234.9248,237.3955,1,1,1.954,,0,6,6,13,1,0,mexican,,,,,,,,,,,,,,,,,,,,,,,,,,,,,,,,,,,,,,,,,,,,,,,,,,,,,,,,
,,,,,,,,,,mexican,13 or older,"no, only English or Spanish",no,2025-08-13_17h38.58.880,empathy_intonation_perc,2024.2.4,Win32,60.24096386,65c11c7e9a7978508604477f,687ed1b7e638a4cbf2f02089,689d05d04d8b039383a61d15,,,,,,,,,,,,,33,1,,./stim/wavs/cuban_mismatch_interrogative-total-yn_Mi-novio-viene-del-lago.wav,,,,,,,,,,,,,,,,,,,,,,237.3959,239.833,0,0,1.9284,,0,7,7,32,1,1,cuban,,,,,,,,,,,,,,,,,,,,,,,,,,,,,,,,,,,,,,,,,,,,,,,,,,,,,,,,
,,,,,,,,,,mexican,13 or older,"no, only English or Spanish",no,2025-08-13_17h38.58.880,empathy_intonation_perc,2024.2.4,Win32,60.24096386,65c11c7e9a7978508604477f,687ed1b7e638a4cbf2f02089,689d05d04d8b039383a61d15,,,,,,,,,,,,,73,0,,./stim/wavs/castilian_mismatch_declarative-broad-focus_Mi-tia-odia-la-lluvia.wav,,,,,,,,,,,,,,,,,,,,,,239.8334,242.188,0,1,1.8365,,0,8,8,72,1,0,castilian,,,,,,,,,,,,,,,,,,,,,,,,,,,,,,,,,,,,,,,,,,,,,,,,,,,,,,,,
,,,,,,,,,,mexican,13 or older,"no, only English or Spanish",no,2025-08-13_17h38.58.880,empathy_intonation_perc,2024.2.4,Win32,60.24096386,65c11c7e9a7978508604477f,687ed1b7e638a4cbf2f02089,689d05d04d8b039383a61d15,,,,,,,,,,,,,80,0,,./stim/wavs/mexican_mismatch_declarative-broad-focus_El-hombre-mira-la-luna.wav,,,,,,,,,,,,,,,,,,,,,,242.1889,244.2917,0,1,1.5916,,0,9,9,79,1,0,mexican,,,,,,,,,,,,,,,,,,,,,,,,,,,,,,,,,,,,,,,,,,,,,,,,,,,,,,,,
,,,,,,,,,,mexican,13 or older,"no, only English or Spanish",no,2025-08-13_17h38.58.880,empathy_intonation_perc,2024.2.4,Win32,60.24096386,65c11c7e9a7978508604477f,687ed1b7e638a4cbf2f02089,689d05d04d8b039383a61d15,,,,,,,,,,,,,24,1,,./stim/wavs/puertorican_match_interrogative-total-yn_Maria-bebe-el-vino.wav,,,,,,,,,,,,,,,,,,,,,,244.292,246.5791,1,1,1.7692,,0,10,10,23,1,1,puertorican,,,,,,,,,,,,,,,,,,,,,,,,,,,,,,,,,,,,,,,,,,,,,,,,,,,,,,,,
,,,,,,,,,,mexican,13 or older,"no, only English or Spanish",no,2025-08-13_17h38.58.880,empathy_intonation_perc,2024.2.4,Win32,60.24096386,65c11c7e9a7978508604477f,687ed1b7e638a4cbf2f02089,689d05d04d8b039383a61d15,,,,,,,,,,,,,76,0,,./stim/wavs/cuban_mismatch_declarative-broad-focus_La-nina-lava-el-plato.wav,,,,,,,,,,,,,,,,,,,,,,246.5794,248.7999,0,1,1.7047,,0,11,11,75,1,0,cuban,,,,,,,,,,,,,,,,,,,,,,,,,,,,,,,,,,,,,,,,,,,,,,,,,,,,,,,,
,,,,,,,,,,mexican,13 or older,"no, only English or Spanish",no,2025-08-13_17h38.58.880,empathy_intonation_perc,2024.2.4,Win32,60.24096386,65c11c7e9a7978508604477f,687ed1b7e638a4cbf2f02089,689d05d04d8b039383a61d15,,,,,,,,,,,,,28,1,,./stim/wavs/castilian_mismatch_interrogative-total-yn_Mi-novio-viene-del-lago.wav,,,,,,,,,,,,,,,,,,,,,,248.8004,251.3718,1,1,2.0545,,0,12,12,27,1,0,castilian,,,,,,,,,,,,,,,,,,,,,,,,,,,,,,,,,,,,,,,,,,,,,,,,,,,,,,,,
,,,,,,,,,,mexican,13 or older,"no, only English or Spanish",no,2025-08-13_17h38.58.880,empathy_intonation_perc,2024.2.4,Win32,60.24096386,65c11c7e9a7978508604477f,687ed1b7e638a4cbf2f02089,689d05d04d8b039383a61d15,,,,,,,,,,,,,50,0,,./stim/wavs/castilian_match_declarative-broad-focus_Marta-abre-el-regalo.wav,,,,,,,,,,,,,,,,,,,,,,251.3722,253.7594,0,1,1.871,,0,13,13,49,1,0,castilian,,,,,,,,,,,,,,,,,,,,,,,,,,,,,,,,,,,,,,,,,,,,,,,,,,,,,,,,
,,,,,,,,,,mexican,13 or older,"no, only English or Spanish",no,2025-08-13_17h38.58.880,empathy_intonation_perc,2024.2.4,Win32,60.24096386,65c11c7e9a7978508604477f,687ed1b7e638a4cbf2f02089,689d05d04d8b039383a61d15,,,,,,,,,,,,,59,0,,./stim/wavs/mexican_match_declarative-broad-focus_David-leia-el-libro.wav,,,,,,,,,,,,,,,,,,,,,,253.7598,255.9133,0,1,1.6365,,0,14,14,58,1,0,mexican,,,,,,,,,,,,,,,,,,,,,,,,,,,,,,,,,,,,,,,,,,,,,,,,,,,,,,,,
,,,,,,,,,,mexican,13 or older,"no, only English or Spanish",no,2025-08-13_17h38.58.880,empathy_intonation_perc,2024.2.4,Win32,60.24096386,65c11c7e9a7978508604477f,687ed1b7e638a4cbf2f02089,689d05d04d8b039383a61d15,,,,,,,,,,,,,9,1,,./stim/wavs/cuban_match_interrogative-total-yn_Manuela-vende-el-carro.wav,,,,,,,,,,,,,,,,,,,,,,255.9138,258.1676,0,0,1.7457,,0,15,15,8,1,1,cuban,,,,,,,,,,,,,,,,,,,,,,,,,,,,,,,,,,,,,,,,,,,,,,,,,,,,,,,,
,,,,,,,,,,mexican,13 or older,"no, only English or Spanish",no,2025-08-13_17h38.58.880,empathy_intonation_perc,2024.2.4,Win32,60.24096386,65c11c7e9a7978508604477f,687ed1b7e638a4cbf2f02089,689d05d04d8b039383a61d15,,,,,,,,,,,,,2,1,,./stim/wavs/castilian_match_interrogative-total-yn_Emilio-ama-la-marcha.wav,,,,,,,,,,,,,,,,,,,,,,258.1679,260.5554,1,1,1.8762,,0,16,16,1,1,0,castilian,,,,,,,,,,,,,,,,,,,,,,,,,,,,,,,,,,,,,,,,,,,,,,,,,,,,,,,,
,,,,,,,,,,mexican,13 or older,"no, only English or Spanish",no,2025-08-13_17h38.58.880,empathy_intonation_perc,2024.2.4,Win32,60.24096386,65c11c7e9a7978508604477f,687ed1b7e638a4cbf2f02089,689d05d04d8b039383a61d15,,,,,,,,,,,,,74,0,,./stim/wavs/cuban_mismatch_declarative-broad-focus_El-bebe-comia-muy-bien.wav,,,,,,,,,,,,,,,,,,,,,,260.5558,262.7425,0,1,1.6795,,0,17,17,73,1,0,cuban,,,,,,,,,,,,,,,,,,,,,,,,,,,,,,,,,,,,,,,,,,,,,,,,,,,,,,,,
,,,,,,,,,,mexican,13 or older,"no, only English or Spanish",no,2025-08-13_17h38.58.880,empathy_intonation_perc,2024.2.4,Win32,60.24096386,65c11c7e9a7978508604477f,687ed1b7e638a4cbf2f02089,689d05d04d8b039383a61d15,,,,,,,,,,,,,78,0,,./stim/wavs/cuban_mismatch_declarative-broad-focus_Mi-tia-odia-la-lluvia.wav,,,,,,,,,,,,,,,,,,,,,,262.7429,265.1641,0,1,1.9084,,0,18,18,77,1,0,cuban,,,,,,,,,,,,,,,,,,,,,,,,,,,,,,,,,,,,,,,,,,,,,,,,,,,,,,,,
,,,,,,,,,,mexican,13 or older,"no, only English or Spanish",no,2025-08-13_17h38.58.880,empathy_intonation_perc,2024.2.4,Win32,60.24096386,65c11c7e9a7978508604477f,687ed1b7e638a4cbf2f02089,689d05d04d8b039383a61d15,,,,,,,,,,,,,47,0,,./stim/wavs/castilian_match_declarative-broad-focus_Manuela-vende-el-carro.wav,,,,,,,,,,,,,,,,,,,,,,265.1645,267.5015,0,1,1.8231,,0,19,19,46,1,0,castilian,,,,,,,,,,,,,,,,,,,,,,,,,,,,,,,,,,,,,,,,,,,,,,,,,,,,,,,,
,,,,,,,,,,mexican,13 or older,"no, only English or Spanish",no,2025-08-13_17h38.58.880,empathy_intonation_perc,2024.2.4,Win32,60.24096386,65c11c7e9a7978508604477f,687ed1b7e638a4cbf2f02089,689d05d04d8b039383a61d15,,,,,,,,,,,,,29,1,,./stim/wavs/castilian_mismatch_interrogative-total-yn_Mi-tia-odia-la-lluvia.wav,,,,,,,,,,,,,,,,,,,,,,267.5019,269.8226,1,1,1.8058,,0,20,20,28,1,0,castilian,,,,,,,,,,,,,,,,,,,,,,,,,,,,,,,,,,,,,,,,,,,,,,,,,,,,,,,,
,,,,,,,,,,mexican,13 or older,"no, only English or Spanish",no,2025-08-13_17h38.58.880,empathy_intonation_perc,2024.2.4,Win32,60.24096386,65c11c7e9a7978508604477f,687ed1b7e638a4cbf2f02089,689d05d04d8b039383a61d15,,,,,,,,,,,,,56,0,,./stim/wavs/cuban_match_declarative-broad-focus_Marta-abre-el-regalo.wav,,,,,,,,,,,,,,,,,,,,,,269.823,272.1273,0,1,1.7885,,0,21,21,55,1,0,cuban,,,,,,,,,,,,,,,,,,,,,,,,,,,,,,,,,,,,,,,,,,,,,,,,,,,,,,,,
,,,,,,,,,,mexican,13 or older,"no, only English or Spanish",no,2025-08-13_17h38.58.880,empathy_intonation_perc,2024.2.4,Win32,60.24096386,65c11c7e9a7978508604477f,687ed1b7e638a4cbf2f02089,689d05d04d8b039383a61d15,,,,,,,,,,,,,34,1,,./stim/wavs/cuban_mismatch_interrogative-total-yn_Mi-tia-odia-la-lluvia.wav,,,,,,,,,,,,,,,,,,,,,,272.1278,274.7986,1,1,2.1645,,0,22,22,33,1,1,cuban,,,,,,,,,,,,,,,,,,,,,,,,,,,,,,,,,,,,,,,,,,,,,,,,,,,,,,,,
,,,,,,,,,,mexican,13 or older,"no, only English or Spanish",no,2025-08-13_17h38.58.880,empathy_intonation_perc,2024.2.4,Win32,60.24096386,65c11c7e9a7978508604477f,687ed1b7e638a4cbf2f02089,689d05d04d8b039383a61d15,,,,,,,,,,,,,85,0,,./stim/wavs/puertorican_mismatch_declarative-broad-focus_El-hombre-mira-la-luna.wav,,,,,,,,,,,,,,,,,,,,,,274.799,277.1193,0,1,1.8137,,0,23,23,84,1,0,puertorican,,,,,,,,,,,,,,,,,,,,,,,,,,,,,,,,,,,,,,,,,,,,,,,,,,,,,,,,
,,,,,,,,,,mexican,13 or older,"no, only English or Spanish",no,2025-08-13_17h38.58.880,empathy_intonation_perc,2024.2.4,Win32,60.24096386,65c11c7e9a7978508604477f,687ed1b7e638a4cbf2f02089,689d05d04d8b039383a61d15,,,,,,,,,,,,,46,0,,./stim/wavs/castilian_match_declarative-broad-focus_Emilio-ama-la-marcha.wav,,,,,,,,,,,,,,,,,,,,,,277.1198,279.5078,0,1,1.8698,,0,24,24,45,1,0,castilian,,,,,,,,,,,,,,,,,,,,,,,,,,,,,,,,,,,,,,,,,,,,,,,,,,,,,,,,
,,,,,,,,,,mexican,13 or older,"no, only English or Spanish",no,2025-08-13_17h38.58.880,empathy_intonation_perc,2024.2.4,Win32,60.24096386,65c11c7e9a7978508604477f,687ed1b7e638a4cbf2f02089,689d05d04d8b039383a61d15,,,,,,,,,,,,,54,0,,./stim/wavs/cuban_match_declarative-broad-focus_Maria-bebe-el-vino.wav,,,,,,,,,,,,,,,,,,,,,,279.5083,281.9288,0,1,1.9115,,0,25,25,53,1,0,cuban,,,,,,,,,,,,,,,,,,,,,,,,,,,,,,,,,,,,,,,,,,,,,,,,,,,,,,,,
,,,,,,,,,,mexican,13 or older,"no, only English or Spanish",no,2025-08-13_17h38.58.880,empathy_intonation_perc,2024.2.4,Win32,60.24096386,65c11c7e9a7978508604477f,687ed1b7e638a4cbf2f02089,689d05d04d8b039383a61d15,,,,,,,,,,,,,62,0,,./stim/wavs/mexican_match_declarative-broad-focus_Marta-abre-el-regalo.wav,,,,,,,,,,,,,,,,,,,,,,281.9292,284.2998,0,1,1.8537,,0,26,26,61,1,0,mexican,,,,,,,,,,,,,,,,,,,,,,,,,,,,,,,,,,,,,,,,,,,,,,,,,,,,,,,,
,,,,,,,,,,mexican,13 or older,"no, only English or Spanish",no,2025-08-13_17h38.58.880,empathy_intonation_perc,2024.2.4,Win32,60.24096386,65c11c7e9a7978508604477f,687ed1b7e638a4cbf2f02089,689d05d04d8b039383a61d15,,,,,,,,,,,,,10,1,,./stim/wavs/cuban_match_interrogative-total-yn_Maria-bebe-el-vino.wav,,,,,,,,,,,,,,,,,,,,,,284.3002,286.7545,0,0,1.9377,,0,27,27,9,1,1,cuban,,,,,,,,,,,,,,,,,,,,,,,,,,,,,,,,,,,,,,,,,,,,,,,,,,,,,,,,
,,,,,,,,,,mexican,13 or older,"no, only English or Spanish",no,2025-08-13_17h38.58.880,empathy_intonation_perc,2024.2.4,Win32,60.24096386,65c11c7e9a7978508604477f,687ed1b7e638a4cbf2f02089,689d05d04d8b039383a61d15,,,,,,,,,,,,,63,0,,./stim/wavs/puertorican_match_declarative-broad-focus_Ana-lleva-el-abrigo.wav,,,,,,,,,,,,,,,,,,,,,,286.755,288.9418,0,1,1.681,,0,28,28,62,1,0,puertorican,,,,,,,,,,,,,,,,,,,,,,,,,,,,,,,,,,,,,,,,,,,,,,,,,,,,,,,,
,,,,,,,,,,mexican,13 or older,"no, only English or Spanish",no,2025-08-13_17h38.58.880,empathy_intonation_perc,2024.2.4,Win32,60.24096386,65c11c7e9a7978508604477f,687ed1b7e638a4cbf2f02089,689d05d04d8b039383a61d15,,,,,,,,,,,,,8,1,,./stim/wavs/cuban_match_interrogative-total-yn_Daniel-iba-a-Bolivia.wav,,,,,,,,,,,,,,,,,,,,,,288.9424,291.1792,1,1,1.7251,,0,29,29,7,1,1,cuban,,,,,,,,,,,,,,,,,,,,,,,,,,,,,,,,,,,,,,,,,,,,,,,,,,,,,,,,
,,,,,,,,,,mexican,13 or older,"no, only English or Spanish",no,2025-08-13_17h38.58.880,empathy_intonation_perc,2024.2.4,Win32,60.24096386,65c11c7e9a7978508604477f,687ed1b7e638a4cbf2f02089,689d05d04d8b039383a61d15,,,,,,,,,,,,,61,0,,./stim/wavs/mexican_match_declarative-broad-focus_Mariano-habla-del-tiempo.wav,,,,,,,,,,,,,,,,,,,,,,291.1796,293.3833,0,1,1.6963,,0,30,30,60,1,0,mexican,,,,,,,,,,,,,,,,,,,,,,,,,,,,,,,,,,,,,,,,,,,,,,,,,,,,,,,,
,,,,,,,,,,mexican,13 or older,"no, only English or Spanish",no,2025-08-13_17h38.58.880,empathy_intonation_perc,2024.2.4,Win32,60.24096386,65c11c7e9a7978508604477f,687ed1b7e638a4cbf2f02089,689d05d04d8b039383a61d15,,,,,,,,,,,,,58,0,,./stim/wavs/mexican_match_declarative-broad-focus_Daniel-iba-a-Bolivia.wav,,,,,,,,,,,,,,,,,,,,,,293.3836,295.621,0,1,1.7316,,0,31,31,57,1,0,mexican,,,,,,,,,,,,,,,,,,,,,,,,,,,,,,,,,,,,,,,,,,,,,,,,,,,,,,,,
,,,,,,,,,,mexican,13 or older,"no, only English or Spanish",no,2025-08-13_17h38.58.880,empathy_intonation_perc,2024.2.4,Win32,60.24096386,65c11c7e9a7978508604477f,687ed1b7e638a4cbf2f02089,689d05d04d8b039383a61d15,,,,,,,,,,,,,26,1,,./stim/wavs/castilian_mismatch_interrogative-total-yn_La-nina-lava-el-plato.wav,,,,,,,,,,,,,,,,,,,,,,295.6215,297.859,1,1,1.7196,,0,32,32,25,1,0,castilian,,,,,,,,,,,,,,,,,,,,,,,,,,,,,,,,,,,,,,,,,,,,,,,,,,,,,,,,
,,,,,,,,,,mexican,13 or older,"no, only English or Spanish",no,2025-08-13_17h38.58.880,empathy_intonation_perc,2024.2.4,Win32,60.24096386,65c11c7e9a7978508604477f,687ed1b7e638a4cbf2f02089,689d05d04d8b039383a61d15,,,,,,,,,,,,,12,1,,./stim/wavs/cuban_match_interrogative-total-yn_Marta-abre-el-regalo.wav,,,,,,,,,,,,,,,,,,,,,,297.8595,300.1129,1,1,1.7378,,0,33,33,11,1,1,cuban,,,,,,,,,,,,,,,,,,,,,,,,,,,,,,,,,,,,,,,,,,,,,,,,,,,,,,,,
,,,,,,,,,,mexican,13 or older,"no, only English or Spanish",no,2025-08-13_17h38.58.880,empathy_intonation_perc,2024.2.4,Win32,60.24096386,65c11c7e9a7978508604477f,687ed1b7e638a4cbf2f02089,689d05d04d8b039383a61d15,,,,,,,,,,,,,38,1,,./stim/wavs/mexican_mismatch_interrogative-total-yn_Mi-novio-viene-del-lago.wav,,,,,,,,,,,,,,,,,,,,,,300.1136,302.3333,1,1,1.7143,,0,34,34,37,1,0,mexican,,,,,,,,,,,,,,,,,,,,,,,,,,,,,,,,,,,,,,,,,,,,,,,,,,,,,,,,
,,,,,,,,,,mexican,13 or older,"no, only English or Spanish",no,2025-08-13_17h38.58.880,empathy_intonation_perc,2024.2.4,Win32,60.24096386,65c11c7e9a7978508604477f,687ed1b7e638a4cbf2f02089,689d05d04d8b039383a61d15,,,,,,,,,,,,,15,1,,./stim/wavs/mexican_match_interrogative-total-yn_David-leia-el-libro.wav,,,,,,,,,,,,,,,,,,,,,,302.3337,304.4372,1,1,1.5974,,0,35,35,14,1,0,mexican,,,,,,,,,,,,,,,,,,,,,,,,,,,,,,,,,,,,,,,,,,,,,,,,,,,,,,,,
,,,,,,,,,,mexican,13 or older,"no, only English or Spanish",no,2025-08-13_17h38.58.880,empathy_intonation_perc,2024.2.4,Win32,60.24096386,65c11c7e9a7978508604477f,687ed1b7e638a4cbf2f02089,689d05d04d8b039383a61d15,,,,,,,,,,,,,72,0,,./stim/wavs/castilian_mismatch_declarative-broad-focus_Mi-novio-viene-del-lago.wav,,,,,,,,,,,,,,,,,,,,,,304.4374,307.0091,0,1,2.0543,,0,36,36,71,1,0,castilian,,,,,,,,,,,,,,,,,,,,,,,,,,,,,,,,,,,,,,,,,,,,,,,,,,,,,,,,
,,,,,,,,,,mexican,13 or older,"no, only English or Spanish",no,2025-08-13_17h38.58.880,empathy_intonation_perc,2024.2.4,Win32,60.24096386,65c11c7e9a7978508604477f,687ed1b7e638a4cbf2f02089,689d05d04d8b039383a61d15,,,,,,,,,,,,,7,1,,./stim/wavs/cuban_match_interrogative-total-yn_Ana-lleva-el-abrigo.wav,,,,,,,,,,,,,,,,,,,,,,307.0098,309.0963,0,0,1.5713,,0,37,37,6,1,1,cuban,,,,,,,,,,,,,,,,,,,,,,,,,,,,,,,,,,,,,,,,,,,,,,,,,,,,,,,,
,,,,,,,,,,mexican,13 or older,"no, only English or Spanish",no,2025-08-13_17h38.58.880,empathy_intonation_perc,2024.2.4,Win32,60.24096386,65c11c7e9a7978508604477f,687ed1b7e638a4cbf2f02089,689d05d04d8b039383a61d15,,,,,,,,,,,,,11,1,,./stim/wavs/cuban_match_interrogative-total-yn_Mariano-habla-del-tiempo.wav,,,,,,,,,,,,,,,,,,,,,,309.0968,311.367,1,1,1.763,,0,38,38,10,1,1,cuban,,,,,,,,,,,,,,,,,,,,,,,,,,,,,,,,,,,,,,,,,,,,,,,,,,,,,,,,
,,,,,,,,,,mexican,13 or older,"no, only English or Spanish",no,2025-08-13_17h38.58.880,empathy_intonation_perc,2024.2.4,Win32,60.24096386,65c11c7e9a7978508604477f,687ed1b7e638a4cbf2f02089,689d05d04d8b039383a61d15,,,,,,,,,,,,,75,0,,./stim/wavs/cuban_mismatch_declarative-broad-focus_El-hombre-mira-la-luna.wav,,,,,,,,,,,,,,,,,,,,,,311.3674,313.4207,0,1,1.548,,0,39,39,74,1,0,cuban,,,,,,,,,,,,,,,,,,,,,,,,,,,,,,,,,,,,,,,,,,,,,,,,,,,,,,,,
,,,,,,,,,,mexican,13 or older,"no, only English or Spanish",no,2025-08-13_17h38.58.880,empathy_intonation_perc,2024.2.4,Win32,60.24096386,65c11c7e9a7978508604477f,687ed1b7e638a4cbf2f02089,689d05d04d8b039383a61d15,,,,,,,,,,,,,19,1,,./stim/wavs/puertorican_match_interrogative-total-yn_Ana-lleva-el-abrigo.wav,,,,,,,,,,,,,,,,,,,,,,313.4213,315.3578,1,1,1.4297,,0,40,40,18,1,1,puertorican,,,,,,,,,,,,,,,,,,,,,,,,,,,,,,,,,,,,,,,,,,,,,,,,,,,,,,,,
,,,,,,,,,,mexican,13 or older,"no, only English or Spanish",no,2025-08-13_17h38.58.880,empathy_intonation_perc,2024.2.4,Win32,60.24096386,65c11c7e9a7978508604477f,687ed1b7e638a4cbf2f02089,689d05d04d8b039383a61d15,,,,,,,,,,,,,41,1,,./stim/wavs/puertorican_mismatch_interrogative-total-yn_El-nino-oye-el-rio.wav,,,,,,,,,,,,,,,,,,,,,,315.3581,317.7625,1,1,1.8875,,0,41,41,40,1,1,puertorican,,,,,,,,,,,,,,,,,,,,,,,,,,,,,,,,,,,,,,,,,,,,,,,,,,,,,,,,
,,,,,,,,,,mexican,13 or older,"no, only English or Spanish",no,2025-08-13_17h38.58.880,empathy_intonation_perc,2024.2.4,Win32,60.24096386,65c11c7e9a7978508604477f,687ed1b7e638a4cbf2f02089,689d05d04d8b039383a61d15,,,,,,,,,,,,,53,0,,./stim/wavs/cuban_match_declarative-broad-focus_Manuela-vende-el-carro.wav,,,,,,,,,,,,,,,,,,,,,,317.763,320.0836,0,1,1.8084,,0,42,42,52,1,0,cuban,,,,,,,,,,,,,,,,,,,,,,,,,,,,,,,,,,,,,,,,,,,,,,,,,,,,,,,,
,,,,,,,,,,mexican,13 or older,"no, only English or Spanish",no,2025-08-13_17h38.58.880,empathy_intonation_perc,2024.2.4,Win32,60.24096386,65c11c7e9a7978508604477f,687ed1b7e638a4cbf2f02089,689d05d04d8b039383a61d15,,,,,,,,,,,,,45,0,,./stim/wavs/castilian_match_declarative-broad-focus_David-leia-el-libro.wav,,,,,,,,,,,,,,,,,,,,,,320.0842,322.4044,0,1,1.8161,,0,43,43,44,1,0,castilian,,,,,,,,,,,,,,,,,,,,,,,,,,,,,,,,,,,,,,,,,,,,,,,,,,,,,,,,
,,,,,,,,,,mexican,13 or older,"no, only English or Spanish",no,2025-08-13_17h38.58.880,empathy_intonation_perc,2024.2.4,Win32,60.24096386,65c11c7e9a7978508604477f,687ed1b7e638a4cbf2f02089,689d05d04d8b039383a61d15,,,,,,,,,,,,,1,1,,./stim/wavs/castilian_match_interrogative-total-yn_David-leia-el-libro.wav,,,,,,,,,,,,,,,,,,,,,,322.4049,324.6253,1,1,1.7109,,0,44,44,0,1,0,castilian,,,,,,,,,,,,,,,,,,,,,,,,,,,,,,,,,,,,,,,,,,,,,,,,,,,,,,,,
,,,,,,,,,,mexican,13 or older,"no, only English or Spanish",no,2025-08-13_17h38.58.880,empathy_intonation_perc,2024.2.4,Win32,60.24096386,65c11c7e9a7978508604477f,687ed1b7e638a4cbf2f02089,689d05d04d8b039383a61d15,,,,,,,,,,,,,49,0,,./stim/wavs/castilian_match_declarative-broad-focus_Mariano-habla-del-tiempo.wav,,,,,,,,,,,,,,,,,,,,,,324.6256,326.9966,0,1,1.8572,,0,45,45,48,1,0,castilian,,,,,,,,,,,,,,,,,,,,,,,,,,,,,,,,,,,,,,,,,,,,,,,,,,,,,,,,
,,,,,,,,,,mexican,13 or older,"no, only English or Spanish",no,2025-08-13_17h38.58.880,empathy_intonation_perc,2024.2.4,Win32,60.24096386,65c11c7e9a7978508604477f,687ed1b7e638a4cbf2f02089,689d05d04d8b039383a61d15,,,,,,,,,,,,,23,1,,./stim/wavs/puertorican_match_interrogative-total-yn_Manuela-vende-el-carro.wav,,,,,,,,,,,,,,,,,,,,,,326.997,329.167,1,1,1.6544,,0,46,46,22,1,1,puertorican,,,,,,,,,,,,,,,,,,,,,,,,,,,,,,,,,,,,,,,,,,,,,,,,,,,,,,,,
,,,,,,,,,,mexican,13 or older,"no, only English or Spanish",no,2025-08-13_17h38.58.880,empathy_intonation_perc,2024.2.4,Win32,60.24096386,65c11c7e9a7978508604477f,687ed1b7e638a4cbf2f02089,689d05d04d8b039383a61d15,,,,,,,,,,,,,35,1,,./stim/wavs/mexican_mismatch_interrogative-total-yn_El-hombre-mira-la-luna.wav,,,,,,,,,,,,,,,,,,,,,,329.1674,331.1709,1,1,1.4923,,0,47,47,34,1,0,mexican,,,,,,,,,,,,,,,,,,,,,,,,,,,,,,,,,,,,,,,,,,,,,,,,,,,,,,,,
,,,,,,,,,,mexican,13 or older,"no, only English or Spanish",no,2025-08-13_17h38.58.880,empathy_intonation_perc,2024.2.4,Win32,60.24096386,65c11c7e9a7978508604477f,687ed1b7e638a4cbf2f02089,689d05d04d8b039383a61d15,,,,,,,,,,,,,31,1,,./stim/wavs/cuban_mismatch_interrogative-total-yn_El-nino-oye-el-rio.wav,,,,,,,,,,,,,,,,,,,,,,331.1713,333.3749,1,1,1.689,,0,48,48,30,1,1,cuban,,,,,,,,,,,,,,,,,,,,,,,,,,,,,,,,,,,,,,,,,,,,,,,,,,,,,,,,
,,,,,,,,,,mexican,13 or older,"no, only English or Spanish",no,2025-08-13_17h38.58.880,empathy_intonation_perc,2024.2.4,Win32,60.24096386,65c11c7e9a7978508604477f,687ed1b7e638a4cbf2f02089,689d05d04d8b039383a61d15,,,,,,,,,,,,,79,0,,./stim/wavs/mexican_mismatch_declarative-broad-focus_El-bebe-comia-muy-bien.wav,,,,,,,,,,,,,,,,,,,,,,333.3755,335.5627,0,1,1.6698,,0,49,49,78,1,0,mexican,,,,,,,,,,,,,,,,,,,,,,,,,,,,,,,,,,,,,,,,,,,,,,,,,,,,,,,,
,,,,,,,,,,mexican,13 or older,"no, only English or Spanish",no,2025-08-13_17h38.58.880,empathy_intonation_perc,2024.2.4,Win32,60.24096386,65c11c7e9a7978508604477f,687ed1b7e638a4cbf2f02089,689d05d04d8b039383a61d15,,,,,,,,,,,,,84,0,,./stim/wavs/puertorican_mismatch_declarative-broad-focus_El-bebe-comia-muy-bien.wav,,,,,,,,,,,,,,,,,,,,,,335.5631,337.683,0,1,1.6023,,0,50,50,83,1,0,puertorican,,,,,,,,,,,,,,,,,,,,,,,,,,,,,,,,,,,,,,,,,,,,,,,,,,,,,,,,
,,,,,,,,,,mexican,13 or older,"no, only English or Spanish",no,2025-08-13_17h38.58.880,empathy_intonation_perc,2024.2.4,Win32,60.24096386,65c11c7e9a7978508604477f,687ed1b7e638a4cbf2f02089,689d05d04d8b039383a61d15,,,,,,,,,,,,,36,1,,./stim/wavs/mexican_mismatch_interrogative-total-yn_El-nino-oye-el-rio.wav,,,,,,,,,,,,,,,,,,,,,,337.6834,339.7706,1,1,1.5701,,0,51,51,35,1,0,mexican,,,,,,,,,,,,,,,,,,,,,,,,,,,,,,,,,,,,,,,,,,,,,,,,,,,,,,,,
,,,,,,,,,,mexican,13 or older,"no, only English or Spanish",no,2025-08-13_17h38.58.880,empathy_intonation_perc,2024.2.4,Win32,60.24096386,65c11c7e9a7978508604477f,687ed1b7e638a4cbf2f02089,689d05d04d8b039383a61d15,,,,,,,,,,,,,82,0,,./stim/wavs/mexican_mismatch_declarative-broad-focus_Mi-novio-viene-del-lago.wav,,,,,,,,,,,,,,,,,,,,,,339.7708,341.9574,0,1,1.6815,,0,52,52,81,1,0,mexican,,,,,,,,,,,,,,,,,,,,,,,,,,,,,,,,,,,,,,,,,,,,,,,,,,,,,,,,
,,,,,,,,,,mexican,13 or older,"no, only English or Spanish",no,2025-08-13_17h38.58.880,empathy_intonation_perc,2024.2.4,Win32,60.24096386,65c11c7e9a7978508604477f,687ed1b7e638a4cbf2f02089,689d05d04d8b039383a61d15,,,,,,,,,,,,,5,1,,./stim/wavs/castilian_match_interrogative-total-yn_Mariano-habla-del-tiempo.wav,,,,,,,,,,,,,,,,,,,,,,341.9577,344.4789,1,1,2.0055,,0,53,53,4,1,0,castilian,,,,,,,,,,,,,,,,,,,,,,,,,,,,,,,,,,,,,,,,,,,,,,,,,,,,,,,,
,,,,,,,,,,mexican,13 or older,"no, only English or Spanish",no,2025-08-13_17h38.58.880,empathy_intonation_perc,2024.2.4,Win32,60.24096386,65c11c7e9a7978508604477f,687ed1b7e638a4cbf2f02089,689d05d04d8b039383a61d15,,,,,,,,,,,,,83,0,,./stim/wavs/mexican_mismatch_declarative-broad-focus_Mi-tia-odia-la-lluvia.wav,,,,,,,,,,,,,,,,,,,,,,344.4792,346.5662,0,1,1.5801,,0,54,54,82,1,0,mexican,,,,,,,,,,,,,,,,,,,,,,,,,,,,,,,,,,,,,,,,,,,,,,,,,,,,,,,,
,,,,,,,,,,mexican,13 or older,"no, only English or Spanish",no,2025-08-13_17h38.58.880,empathy_intonation_perc,2024.2.4,Win32,60.24096386,65c11c7e9a7978508604477f,687ed1b7e638a4cbf2f02089,689d05d04d8b039383a61d15,,,,,,,,,,,,,37,1,,./stim/wavs/mexican_mismatch_interrogative-total-yn_La-maestra-vive-en-Paris.wav,,,,,,,,,,,,,,,,,,,,,,346.5665,348.854,1,1,1.7728,,0,55,55,36,1,0,mexican,,,,,,,,,,,,,,,,,,,,,,,,,,,,,,,,,,,,,,,,,,,,,,,,,,,,,,,,
,,,,,,,,,,mexican,13 or older,"no, only English or Spanish",no,2025-08-13_17h38.58.880,empathy_intonation_perc,2024.2.4,Win32,60.24096386,65c11c7e9a7978508604477f,687ed1b7e638a4cbf2f02089,689d05d04d8b039383a61d15,,,,,,,,,,,,,86,0,,./stim/wavs/puertorican_mismatch_declarative-broad-focus_El-nino-oye-el-rio.wav,,,,,,,,,,,,,,,,,,,,,,348.8543,351.0246,0,1,1.6606,,0,56,56,85,1,0,puertorican,,,,,,,,,,,,,,,,,,,,,,,,,,,,,,,,,,,,,,,,,,,,,,,,,,,,,,,,
,,,,,,,,,,mexican,13 or older,"no, only English or Spanish",no,2025-08-13_17h38.58.880,empathy_intonation_perc,2024.2.4,Win32,60.24096386,65c11c7e9a7978508604477f,687ed1b7e638a4cbf2f02089,689d05d04d8b039383a61d15,,,,,,,,,,,,,17,1,,./stim/wavs/mexican_match_interrogative-total-yn_Mariano-habla-del-tiempo.wav,,,,,,,,,,,,,,,,,,,,,,351.025,353.3624,0,0,1.8265,,0,57,57,16,1,0,mexican,,,,,,,,,,,,,,,,,,,,,,,,,,,,,,,,,,,,,,,,,,,,,,,,,,,,,,,,
,,,,,,,,,,mexican,13 or older,"no, only English or Spanish",no,2025-08-13_17h38.58.880,empathy_intonation_perc,2024.2.4,Win32,60.24096386,65c11c7e9a7978508604477f,687ed1b7e638a4cbf2f02089,689d05d04d8b039383a61d15,,,,,,,,,,,,,64,0,,./stim/wavs/puertorican_match_declarative-broad-focus_Daniel-iba-a-Bolivia.wav,,,,,,,,,,,,,,,,,,,,,,353.3629,355.6834,0,1,1.8084,,0,58,58,63,1,0,puertorican,,,,,,,,,,,,,,,,,,,,,,,,,,,,,,,,,,,,,,,,,,,,,,,,,,,,,,,,
,,,,,,,,,,mexican,13 or older,"no, only English or Spanish",no,2025-08-13_17h38.58.880,empathy_intonation_perc,2024.2.4,Win32,60.24096386,65c11c7e9a7978508604477f,687ed1b7e638a4cbf2f02089,689d05d04d8b039383a61d15,,,,,,,,,,,,,42,1,,./stim/wavs/puertorican_mismatch_interrogative-total-yn_La-maestra-vive-en-Paris.wav,,,,,,,,,,,,,,,,,,,,,,355.6838,357.9381,1,1,1.7364,,0,59,59,41,1,1,puertorican,,,,,,,,,,,,,,,,,,,,,,,,,,,,,,,,,,,,,,,,,,,,,,,,,,,,,,,,
,,,,,,,,,,mexican,13 or older,"no, only English or Spanish",no,2025-08-13_17h38.58.880,empathy_intonation_perc,2024.2.4,Win32,60.24096386,65c11c7e9a7978508604477f,687ed1b7e638a4cbf2f02089,689d05d04d8b039383a61d15,,,,,,,,,,,,,32,1,,./stim/wavs/cuban_mismatch_interrogative-total-yn_Mi-madre-come-la-fruta.wav,,,,,,,,,,,,,,,,,,,,,,357.9385,360.3254,1,1,1.8816,,0,60,60,31,1,1,cuban,,,,,,,,,,,,,,,,,,,,,,,,,,,,,,,,,,,,,,,,,,,,,,,,,,,,,,,,
,,,,,,,,,,mexican,13 or older,"no, only English or Spanish",no,2025-08-13_17h38.58.880,empathy_intonation_perc,2024.2.4,Win32,60.24096386,65c11c7e9a7978508604477f,687ed1b7e638a4cbf2f02089,689d05d04d8b039383a61d15,,,,,,,,,,,,,39,1,,./stim/wavs/mexican_mismatch_interrogative-total-yn_Mi-tia-odia-la-lluvia.wav,,,,,,,,,,,,,,,,,,,,,,360.3259,362.4292,1,1,1.5888,,0,61,61,38,1,0,mexican,,,,,,,,,,,,,,,,,,,,,,,,,,,,,,,,,,,,,,,,,,,,,,,,,,,,,,,,
,,,,,,,,,,mexican,13 or older,"no, only English or Spanish",no,2025-08-13_17h38.58.880,empathy_intonation_perc,2024.2.4,Win32,60.24096386,65c11c7e9a7978508604477f,687ed1b7e638a4cbf2f02089,689d05d04d8b039383a61d15,,,,,,,,,,,,,13,1,,./stim/wavs/mexican_match_interrogative-total-yn_Ana-lleva-el-abrigo.wav,,,,,,,,,,,,,,,,,,,,,,362.4295,364.4331,1,1,1.4937,,0,62,62,12,1,0,mexican,,,,,,,,,,,,,,,,,,,,,,,,,,,,,,,,,,,,,,,,,,,,,,,,,,,,,,,,
,,,,,,,,,,mexican,13 or older,"no, only English or Spanish",no,2025-08-13_17h38.58.880,empathy_intonation_perc,2024.2.4,Win32,60.24096386,65c11c7e9a7978508604477f,687ed1b7e638a4cbf2f02089,689d05d04d8b039383a61d15,,,,,,,,,,,,,48,0,,./stim/wavs/castilian_match_declarative-broad-focus_Maria-bebe-el-vino.wav,,,,,,,,,,,,,,,,,,,,,,364.4336,366.6538,0,1,1.7142,,0,63,63,47,1,0,castilian,,,,,,,,,,,,,,,,,,,,,,,,,,,,,,,,,,,,,,,,,,,,,,,,,,,,,,,,
,,,,,,,,,,mexican,13 or older,"no, only English or Spanish",no,2025-08-13_17h38.58.880,empathy_intonation_perc,2024.2.4,Win32,60.24096386,65c11c7e9a7978508604477f,687ed1b7e638a4cbf2f02089,689d05d04d8b039383a61d15,,,,,,,,,,,,,70,0,,./stim/wavs/castilian_mismatch_declarative-broad-focus_La-maestra-vive-en-Paris.wav,,,,,,,,,,,,,,,,,,,,,,366.6543,369.125,0,1,1.9652,,0,64,64,69,1,0,castilian,,,,,,,,,,,,,,,,,,,,,,,,,,,,,,,,,,,,,,,,,,,,,,,,,,,,,,,,
,,,,,,,,,,mexican,13 or older,"no, only English or Spanish",no,2025-08-13_17h38.58.880,empathy_intonation_perc,2024.2.4,Win32,60.24096386,65c11c7e9a7978508604477f,687ed1b7e638a4cbf2f02089,689d05d04d8b039383a61d15,,,,,,,,,,,,,57,0,,./stim/wavs/mexican_match_declarative-broad-focus_Ana-lleva-el-abrigo.wav,,,,,,,,,,,,,,,,,,,,,,369.1254,371.0957,0,1,1.4622,,0,65,65,56,1,0,mexican,,,,,,,,,,,,,,,,,,,,,,,,,,,,,,,,,,,,,,,,,,,,,,,,,,,,,,,,
,,,,,,,,,,mexican,13 or older,"no, only English or Spanish",no,2025-08-13_17h38.58.880,empathy_intonation_perc,2024.2.4,Win32,60.24096386,65c11c7e9a7978508604477f,687ed1b7e638a4cbf2f02089,689d05d04d8b039383a61d15,,,,,,,,,,,,,3,1,,./stim/wavs/castilian_match_interrogative-total-yn_Manuela-vende-el-carro.wav,,,,,,,,,,,,,,,,,,,,,,371.0961,373.3497,0,0,1.7472,,0,66,66,2,1,0,castilian,,,,,,,,,,,,,,,,,,,,,,,,,,,,,,,,,,,,,,,,,,,,,,,,,,,,,,,,
,,,,,,,,,,mexican,13 or older,"no, only English or Spanish",no,2025-08-13_17h38.58.880,empathy_intonation_perc,2024.2.4,Win32,60.24096386,65c11c7e9a7978508604477f,687ed1b7e638a4cbf2f02089,689d05d04d8b039383a61d15,,,,,,,,,,,,,87,0,,./stim/wavs/puertorican_mismatch_declarative-broad-focus_La-maestra-vive-en-Paris.wav,,,,,,,,,,,,,,,,,,,,,,373.3502,375.5705,0,1,1.7093,,0,67,67,86,1,0,puertorican,,,,,,,,,,,,,,,,,,,,,,,,,,,,,,,,,,,,,,,,,,,,,,,,,,,,,,,,
,,,,,,,,,,mexican,13 or older,"no, only English or Spanish",no,2025-08-13_17h38.58.880,empathy_intonation_perc,2024.2.4,Win32,60.24096386,65c11c7e9a7978508604477f,687ed1b7e638a4cbf2f02089,689d05d04d8b039383a61d15,,,,,,,,,,,,,88,0,,./stim/wavs/puertorican_mismatch_declarative-broad-focus_La-nina-lava-el-plato.wav,,,,,,,,,,,,,,,,,,,,,,375.5711,377.6577,0,1,1.5691,,0,68,68,87,1,0,puertorican,,,,,,,,,,,,,,,,,,,,,,,,,,,,,,,,,,,,,,,,,,,,,,,,,,,,,,,,
,,,,,,,,,,mexican,13 or older,"no, only English or Spanish",no,2025-08-13_17h38.58.880,empathy_intonation_perc,2024.2.4,Win32,60.24096386,65c11c7e9a7978508604477f,687ed1b7e638a4cbf2f02089,689d05d04d8b039383a61d15,,,,,,,,,,,,,68,0,,./stim/wavs/puertorican_match_declarative-broad-focus_Maria-bebe-el-vino.wav,,,,,,,,,,,,,,,,,,,,,,377.658,379.8118,1,0,1.6495,,0,69,69,67,1,0,puertorican,,,,,,,,,,,,,,,,,,,,,,,,,,,,,,,,,,,,,,,,,,,,,,,,,,,,,,,,
,,,,,,,,,,mexican,13 or older,"no, only English or Spanish",no,2025-08-13_17h38.58.880,empathy_intonation_perc,2024.2.4,Win32,60.24096386,65c11c7e9a7978508604477f,687ed1b7e638a4cbf2f02089,689d05d04d8b039383a61d15,,,,,,,,,,,,,30,1,,./stim/wavs/cuban_mismatch_interrogative-total-yn_El-hombre-mira-la-luna.wav,,,,,,,,,,,,,,,,,,,,,,379.8124,381.7655,1,1,1.4387,,0,70,70,29,1,1,cuban,,,,,,,,,,,,,,,,,,,,,,,,,,,,,,,,,,,,,,,,,,,,,,,,,,,,,,,,
,,,,,,,,,,mexican,13 or older,"no, only English or Spanish",no,2025-08-13_17h38.58.880,empathy_intonation_perc,2024.2.4,Win32,60.24096386,65c11c7e9a7978508604477f,687ed1b7e638a4cbf2f02089,689d05d04d8b039383a61d15,,,,,,,,,,,,,77,0,,./stim/wavs/cuban_mismatch_declarative-broad-focus_Mi-novio-viene-del-lago.wav,,,,,,,,,,,,,,,,,,,,,,381.766,383.9026,0,1,1.6298,,0,71,71,76,1,0,cuban,,,,,,,,,,,,,,,,,,,,,,,,,,,,,,,,,,,,,,,,,,,,,,,,,,,,,,,,
,,,,,,,,,,mexican,13 or older,"no, only English or Spanish",no,2025-08-13_17h38.58.880,empathy_intonation_perc,2024.2.4,Win32,60.24096386,65c11c7e9a7978508604477f,687ed1b7e638a4cbf2f02089,689d05d04d8b039383a61d15,,,,,,,,,,,,,40,1,,./stim/wavs/puertorican_mismatch_interrogative-total-yn_El-hombre-mira-la-luna.wav,,,,,,,,,,,,,,,,,,,,,,383.9031,385.8566,1,1,1.436,,0,72,72,39,1,1,puertorican,,,,,,,,,,,,,,,,,,,,,,,,,,,,,,,,,,,,,,,,,,,,,,,,,,,,,,,,
,,,,,,,,,,mexican,13 or older,"no, only English or Spanish",no,2025-08-13_17h38.58.880,empathy_intonation_perc,2024.2.4,Win32,60.24096386,65c11c7e9a7978508604477f,687ed1b7e638a4cbf2f02089,689d05d04d8b039383a61d15,,,,,,,,,,,,,43,1,,./stim/wavs/puertorican_mismatch_interrogative-total-yn_La-nina-lava-el-plato.wav,,,,,,,,,,,,,,,,,,,,,,385.8572,387.7768,1,1,1.41,,0,73,73,42,1,1,puertorican,,,,,,,,,,,,,,,,,,,,,,,,,,,,,,,,,,,,,,,,,,,,,,,,,,,,,,,,
,,,,,,,,,,mexican,13 or older,"no, only English or Spanish",no,2025-08-13_17h38.58.880,empathy_intonation_perc,2024.2.4,Win32,60.24096386,65c11c7e9a7978508604477f,687ed1b7e638a4cbf2f02089,689d05d04d8b039383a61d15,,,,,,,,,,,,,81,0,,./stim/wavs/mexican_mismatch_declarative-broad-focus_La-maestra-vive-en-Paris.wav,,,,,,,,,,,,,,,,,,,,,,387.7771,389.998,0,1,1.7059,,0,74,74,80,1,0,mexican,,,,,,,,,,,,,,,,,,,,,,,,,,,,,,,,,,,,,,,,,,,,,,,,,,,,,,,,
,,,,,,,,,,mexican,13 or older,"no, only English or Spanish",no,2025-08-13_17h38.58.880,empathy_intonation_perc,2024.2.4,Win32,60.24096386,65c11c7e9a7978508604477f,687ed1b7e638a4cbf2f02089,689d05d04d8b039383a61d15,,,,,,,,,,,,,55,0,,./stim/wavs/cuban_match_declarative-broad-focus_Mariano-habla-del-tiempo.wav,,,,,,,,,,,,,,,,,,,,,,389.9984,392.2684,0,1,1.765,,0,75,75,54,1,0,cuban,,,,,,,,,,,,,,,,,,,,,,,,,,,,,,,,,,,,,,,,,,,,,,,,,,,,,,,,
,,,,,,,,,,mexican,13 or older,"no, only English or Spanish",no,2025-08-13_17h38.58.880,empathy_intonation_perc,2024.2.4,Win32,60.24096386,65c11c7e9a7978508604477f,687ed1b7e638a4cbf2f02089,689d05d04d8b039383a61d15,,,,,,,,,,,,,18,1,,./stim/wavs/mexican_match_interrogative-total-yn_Marta-abre-el-regalo.wav,,,,,,,,,,,,,,,,,,,,,,392.2688,394.3558,1,1,1.5739,,0,76,76,17,1,0,mexican,,,,,,,,,,,,,,,,,,,,,,,,,,,,,,,,,,,,,,,,,,,,,,,,,,,,,,,,
,,,,,,,,,,mexican,13 or older,"no, only English or Spanish",no,2025-08-13_17h38.58.880,empathy_intonation_perc,2024.2.4,Win32,60.24096386,65c11c7e9a7978508604477f,687ed1b7e638a4cbf2f02089,689d05d04d8b039383a61d15,,,,,,,,,,,,,60,0,,./stim/wavs/mexican_match_declarative-broad-focus_Emilio-ama-la-marcha.wav,,,,,,,,,,,,,,,,,,,,,,394.3562,396.6603,1,0,1.7907,,0,77,77,59,1,0,mexican,,,,,,,,,,,,,,,,,,,,,,,,,,,,,,,,,,,,,,,,,,,,,,,,,,,,,,,,
,,,,,,,,,,mexican,13 or older,"no, only English or Spanish",no,2025-08-13_17h38.58.880,empathy_intonation_perc,2024.2.4,Win32,60.24096386,65c11c7e9a7978508604477f,687ed1b7e638a4cbf2f02089,689d05d04d8b039383a61d15,,,,,,,,,,,,,27,1,,./stim/wavs/castilian_mismatch_interrogative-total-yn_Mi-madre-come-la-fruta.wav,,,,,,,,,,,,,,,,,,,,,,396.6608,399.0479,1,1,1.871,,0,78,78,26,1,0,castilian,,,,,,,,,,,,,,,,,,,,,,,,,,,,,,,,,,,,,,,,,,,,,,,,,,,,,,,,
,,,,,,,,,,mexican,13 or older,"no, only English or Spanish",no,2025-08-13_17h38.58.880,empathy_intonation_perc,2024.2.4,Win32,60.24096386,65c11c7e9a7978508604477f,687ed1b7e638a4cbf2f02089,689d05d04d8b039383a61d15,,,,,,,,,,,,,6,1,,./stim/wavs/castilian_match_interrogative-total-yn_Marta-abre-el-regalo.wav,,,,,,,,,,,,,,,,,,,,,,399.0482,401.3688,1,1,1.811,,0,79,79,5,1,0,castilian,,,,,,,,,,,,,,,,,,,,,,,,,,,,,,,,,,,,,,,,,,,,,,,,,,,,,,,,
,,,,,,,,,,mexican,13 or older,"no, only English or Spanish",no,2025-08-13_17h38.58.880,empathy_intonation_perc,2024.2.4,Win32,60.24096386,65c11c7e9a7978508604477f,687ed1b7e638a4cbf2f02089,689d05d04d8b039383a61d15,,,,,,,,,,,,,65,0,,./stim/wavs/puertorican_match_declarative-broad-focus_David-leia-el-libro.wav,,,,,,,,,,,,,,,,,,,,,,401.3692,403.4562,0,1,1.5695,,0,80,80,64,1,0,puertorican,,,,,,,,,,,,,,,,,,,,,,,,,,,,,,,,,,,,,,,,,,,,,,,,,,,,,,,,
,,,,,,,,,,mexican,13 or older,"no, only English or Spanish",no,2025-08-13_17h38.58.880,empathy_intonation_perc,2024.2.4,Win32,60.24096386,65c11c7e9a7978508604477f,687ed1b7e638a4cbf2f02089,689d05d04d8b039383a61d15,,,,,,,,,,,,,21,1,,./stim/wavs/puertorican_match_interrogative-total-yn_David-leia-el-libro.wav,,,,,,,,,,,,,,,,,,,,,,403.4567,405.3764,1,1,1.4032,,0,81,81,20,1,1,puertorican,,,,,,,,,,,,,,,,,,,,,,,,,,,,,,,,,,,,,,,,,,,,,,,,,,,,,,,,
,,,,,,,,,,mexican,13 or older,"no, only English or Spanish",no,2025-08-13_17h38.58.880,empathy_intonation_perc,2024.2.4,Win32,60.24096386,65c11c7e9a7978508604477f,687ed1b7e638a4cbf2f02089,689d05d04d8b039383a61d15,,,,,,,,,,,,,20,1,,./stim/wavs/puertorican_match_interrogative-total-yn_Daniel-iba-a-Bolivia.wav,,,,,,,,,,,,,,,,,,,,,,405.3768,407.397,1,1,1.5056,,0,82,82,19,1,1,puertorican,,,,,,,,,,,,,,,,,,,,,,,,,,,,,,,,,,,,,,,,,,,,,,,,,,,,,,,,
,,,,,,,,,,mexican,13 or older,"no, only English or Spanish",no,2025-08-13_17h38.58.880,empathy_intonation_perc,2024.2.4,Win32,60.24096386,65c11c7e9a7978508604477f,687ed1b7e638a4cbf2f02089,689d05d04d8b039383a61d15,,,,,,,,,,,,,22,1,,./stim/wavs/puertorican_match_interrogative-total-yn_Emilio-ama-la-marcha.wav,,,,,,,,,,,,,,,,,,,,,,407.3976,409.7515,1,1,1.8374,,0,83,83,21,1,1,puertorican,,,,,,,,,,,,,,,,,,,,,,,,,,,,,,,,,,,,,,,,,,,,,,,,,,,,,,,,
,,,,,,,,,,mexican,13 or older,"no, only English or Spanish",no,2025-08-13_17h38.58.880,empathy_intonation_perc,2024.2.4,Win32,60.24096386,65c11c7e9a7978508604477f,687ed1b7e638a4cbf2f02089,689d05d04d8b039383a61d15,,,,,,,,,,,,,69,0,,./stim/wavs/castilian_mismatch_declarative-broad-focus_El-nino-oye-el-rio.wav,,,,,,,,,,,,,,,,,,,,,,409.7518,412.1057,0,1,1.8436,,0,84,84,68,1,0,castilian,,,,,,,,,,,,,,,,,,,,,,,,,,,,,,,,,,,,,,,,,,,,,,,,,,,,,,,,
,,,,,,,,,,mexican,13 or older,"no, only English or Spanish",no,2025-08-13_17h38.58.880,empathy_intonation_perc,2024.2.4,Win32,60.24096386,65c11c7e9a7978508604477f,687ed1b7e638a4cbf2f02089,689d05d04d8b039383a61d15,,,,,,,,,,,,,52,0,,./stim/wavs/cuban_match_declarative-broad-focus_Daniel-iba-a-Bolivia.wav,,,,,,,,,,,,,,,,,,,,,,412.106,414.4601,0,1,1.8413,,0,85,85,51,1,0,cuban,,,,,,,,,,,,,,,,,,,,,,,,,,,,,,,,,,,,,,,,,,,,,,,,,,,,,,,,
,,,,,,,,,,mexican,13 or older,"no, only English or Spanish",no,2025-08-13_17h38.58.880,empathy_intonation_perc,2024.2.4,Win32,60.24096386,65c11c7e9a7978508604477f,687ed1b7e638a4cbf2f02089,689d05d04d8b039383a61d15,,,,,,,,,,,,,66,0,,./stim/wavs/puertorican_match_declarative-broad-focus_Emilio-ama-la-marcha.wav,,,,,,,,,,,,,,,,,,,,,,414.4605,416.5639,0,1,1.5989,,0,86,86,65,1,0,puertorican,,,,,,,,,,,,,,,,,,,,,,,,,,,,,,,,,,,,,,,,,,,,,,,,,,,,,,,,
,,,,,,,,,,mexican,13 or older,"no, only English or Spanish",no,2025-08-13_17h38.58.880,empathy_intonation_perc,2024.2.4,Win32,60.24096386,65c11c7e9a7978508604477f,687ed1b7e638a4cbf2f02089,689d05d04d8b039383a61d15,,,,,,,,,,,,,4,1,,./stim/wavs/castilian_match_interrogative-total-yn_Maria-bebe-el-vino.wav,,,,,,,,,,,,,,,,,,,,,,416.5645,418.6516,1,1,1.5698,,0,87,87,3,1,0,castilian,,,,,,,,,,,,,,,,,,,,,,,,,,,,,,,,,,,,,,,,,,,,,,,,,,,,,,,,
,,,,,,,"Great! Now we will move on. The next task consists of about 60 trials, in each of which you will see a string of letters. 
  
  Your task is to decide whether this is a real Spanish word or not.", (press the spacebar to continue),,mexican,13 or older,"no, only English or Spanish",no,2025-08-13_17h38.58.880,empathy_intonation_perc,2024.2.4,Win32,60.24096386,65c11c7e9a7978508604477f,687ed1b7e638a4cbf2f02089,689d05d04d8b039383a61d15,,,,,,,,,,,,,,,,,,,,,,,,,,,,,,,,,,,,,,,,,,,,,,,,,,,418.6578,422.3084,0,0,0,0,1,,,,,,,,,,,,,,,,,,,,,,,,,,,,,,,,,,,,,,,,,,,,,,,,,
,,,,,,,"If you think it is an existing Spanish word, you type '1' (for 'REAL'), and if you think it is not an existing Spanish word, you type '0' (for 'FAKE').", (press the spacebar to continue),,mexican,13 or older,"no, only English or Spanish",no,2025-08-13_17h38.58.880,empathy_intonation_perc,2024.2.4,Win32,60.24096386,65c11c7e9a7978508604477f,687ed1b7e638a4cbf2f02089,689d05d04d8b039383a61d15,,,,,,,,,,,,,,,,,,,,,,,,,,,,,,,,,,,,,,,,,,,,,,,,,,,422.3106,424.1784,0,1,1,1,1,,,,,,,,,,,,,,,,,,,,,,,,,,,,,,,,,,,,,,,,,,,,,,,,,
,,,,,,,"If you are sure that the word exists, even though you don’t know its exact meaning, you may still respond '1' (REAL). 
  
  But if you are not sure if it is an existing word, you should respond '0' (FAKE).
  
  Let's do a practice round...", (press the spacebar to continue),,mexican,13 or older,"no, only English or Spanish",no,2025-08-13_17h38.58.880,empathy_intonation_perc,2024.2.4,Win32,60.24096386,65c11c7e9a7978508604477f,687ed1b7e638a4cbf2f02089,689d05d04d8b039383a61d15,,,,,,,,,,,,,,,,,,,,,,,,,,,,,,,,,,,,,,,,,,,,,,,,,,,424.1799,429.5554,0,2,2,2,1,,,,,,,,,,,,,,,,,,,,,,,,,,,,,,,,,,,,,,,,,,,,,,,,,
,,,,,,,,,,mexican,13 or older,"no, only English or Spanish",no,2025-08-13_17h38.58.880,empathy_intonation_perc,2024.2.4,Win32,60.24096386,65c11c7e9a7978508604477f,687ed1b7e638a4cbf2f02089,689d05d04d8b039383a61d15,,,,,,,,,,,,,,0,,,,,,,,,,,,,,,,,,,,,,,,,,,,,,,,,,,,,,,,,,,,429.5602,431.7591,1,0,1.6769,,431.7592,432.7616,0,0,0,0,1,0,depiste,REAL,FAKE,,,,,,,,,,,,,,,,,,,,,,,,,,,,,,,,
,,,,,,,,,,mexican,13 or older,"no, only English or Spanish",no,2025-08-13_17h38.58.880,empathy_intonation_perc,2024.2.4,Win32,60.24096386,65c11c7e9a7978508604477f,687ed1b7e638a4cbf2f02089,689d05d04d8b039383a61d15,,,,,,,,,,,,,,1,,,,,,,,,,,,,,,,,,,,,,,,,,,,,,,,,,,,,,,,,,,,432.7634,434.6646,1,1,1.3673,,434.6653,435.6667,0,1,1,1,1,0,sí,REAL,FAKE,,,,,,,,,,,,,,,,,,,,,,,,,,,,,,,,
,,,,,,,,,,mexican,13 or older,"no, only English or Spanish",no,2025-08-13_17h38.58.880,empathy_intonation_perc,2024.2.4,Win32,60.24096386,65c11c7e9a7978508604477f,687ed1b7e638a4cbf2f02089,689d05d04d8b039383a61d15,,,,,,,,,,,,,,0,,,,,,,,,,,,,,,,,,,,,,,,,,,,,,,,,,,,,,,,,,,,435.6681,437.1358,1,0,0.9576,,437.1363,438.1379,0,2,2,2,1,0,coné,REAL,FAKE,,,,,,,,,,,,,,,,,,,,,,,,,,,,,,,,
,,,,,,,,,,mexican,13 or older,"no, only English or Spanish",no,2025-08-13_17h38.58.880,empathy_intonation_perc,2024.2.4,Win32,60.24096386,65c11c7e9a7978508604477f,687ed1b7e638a4cbf2f02089,689d05d04d8b039383a61d15,,,,,,,,,,,,,,0,,,,,,,,,,,,,,,,,,,,,,,,,,,,,,,,,,,,,,,,,,,,438.1389,439.6904,1,0,1.0389,,439.6904,440.6927,0,3,3,3,1,0,calpar,REAL,FAKE,,,,,,,,,,,,,,,,,,,,,,,,,,,,,,,,
,,,,,,,,,,mexican,13 or older,"no, only English or Spanish",no,2025-08-13_17h38.58.880,empathy_intonation_perc,2024.2.4,Win32,60.24096386,65c11c7e9a7978508604477f,687ed1b7e638a4cbf2f02089,689d05d04d8b039383a61d15,,,,,,,,,,,,,,0,,,,,,,,,,,,,,,,,,,,,,,,,,,,,,,,,,,,,,,,,,,,440.6941,442.0449,0,1,0.8345,,442.0455,443.0466,0,4,4,4,1,0,joten,REAL,FAKE,,,,,,,,,,,,,,,,,,,,,,,,,,,,,,,,
,,,,,,,,,,mexican,13 or older,"no, only English or Spanish",no,2025-08-13_17h38.58.880,empathy_intonation_perc,2024.2.4,Win32,60.24096386,65c11c7e9a7978508604477f,687ed1b7e638a4cbf2f02089,689d05d04d8b039383a61d15,,,,,,,,,,,,,,1,,,,,,,,,,,,,,,,,,,,,,,,,,,,,,,,,,,,,,,,,,,,443.0472,444.3824,1,1,0.8166,,444.3826,445.3848,0,5,5,5,1,0,sacapuntas,REAL,FAKE,,,,,,,,,,,,,,,,,,,,,,,,,,,,,,,,
,,,,,,,,,,mexican,13 or older,"no, only English or Spanish",no,2025-08-13_17h38.58.880,empathy_intonation_perc,2024.2.4,Win32,60.24096386,65c11c7e9a7978508604477f,687ed1b7e638a4cbf2f02089,689d05d04d8b039383a61d15,,,,,,,,,,,,,,0,,,,,,,,,,,,,,,,,,,,,,,,,,,,,,,,,,,,,,,,,,,,445.3863,446.6535,0,1,0.7583,,446.6537,447.6559,0,6,6,6,1,0,priba,REAL,FAKE,,,,,,,,,,,,,,,,,,,,,,,,,,,,,,,,
,,,,,,,,,,mexican,13 or older,"no, only English or Spanish",no,2025-08-13_17h38.58.880,empathy_intonation_perc,2024.2.4,Win32,60.24096386,65c11c7e9a7978508604477f,687ed1b7e638a4cbf2f02089,689d05d04d8b039383a61d15,,,,,,,,,,,,,,0,,,,,,,,,,,,,,,,,,,,,,,,,,,,,,,,,,,,,,,,,,,,447.6567,449.0418,0,1,0.8665,,449.0419,450.0437,0,7,7,7,1,0,pelasula,REAL,FAKE,,,,,,,,,,,,,,,,,,,,,,,,,,,,,,,,
,,,,,,,,,,mexican,13 or older,"no, only English or Spanish",no,2025-08-13_17h38.58.880,empathy_intonation_perc,2024.2.4,Win32,60.24096386,65c11c7e9a7978508604477f,687ed1b7e638a4cbf2f02089,689d05d04d8b039383a61d15,,,,,,,,,,,,,,1,,,,,,,,,,,,,,,,,,,,,,,,,,,,,,,,,,,,,,,,,,,,450.0447,451.296,1,1,0.733,,451.2961,452.2978,0,8,8,8,1,0,bien,REAL,FAKE,,,,,,,,,,,,,,,,,,,,,,,,,,,,,,,,
,,,,,,,,,,mexican,13 or older,"no, only English or Spanish",no,2025-08-13_17h38.58.880,empathy_intonation_perc,2024.2.4,Win32,60.24096386,65c11c7e9a7978508604477f,687ed1b7e638a4cbf2f02089,689d05d04d8b039383a61d15,,,,,,,,,,,,,,1,,,,,,,,,,,,,,,,,,,,,,,,,,,,,,,,,,,,,,,,,,,,452.2989,453.4665,1,1,0.6471,,453.4666,454.4685,0,9,9,9,1,0,casa,REAL,FAKE,,,,,,,,,,,,,,,,,,,,,,,,,,,,,,,,
,,,,,,,,,,mexican,13 or older,"no, only English or Spanish",no,2025-08-13_17h38.58.880,empathy_intonation_perc,2024.2.4,Win32,60.24096386,65c11c7e9a7978508604477f,687ed1b7e638a4cbf2f02089,689d05d04d8b039383a61d15,,,,,,,,,,,,,,0,,,,,,,,,,,,,,,,,,,,,,,,,,,,,,,,,,,,,,,,,,,,454.4695,455.7543,0,1,0.7648,,455.7543,456.756,0,10,10,10,1,0,lejo,REAL,FAKE,,,,,,,,,,,,,,,,,,,,,,,,,,,,,,,,
,,,,,,,,,,mexican,13 or older,"no, only English or Spanish",no,2025-08-13_17h38.58.880,empathy_intonation_perc,2024.2.4,Win32,60.24096386,65c11c7e9a7978508604477f,687ed1b7e638a4cbf2f02089,689d05d04d8b039383a61d15,,,,,,,,,,,,,,0,,,,,,,,,,,,,,,,,,,,,,,,,,,,,,,,,,,,,,,,,,,,456.7573,458.192,0,1,0.9159,,458.1921,459.1942,0,11,11,11,1,0,pretantas,REAL,FAKE,,,,,,,,,,,,,,,,,,,,,,,,,,,,,,,,
,,,,,,,,,,mexican,13 or older,"no, only English or Spanish",no,2025-08-13_17h38.58.880,empathy_intonation_perc,2024.2.4,Win32,60.24096386,65c11c7e9a7978508604477f,687ed1b7e638a4cbf2f02089,689d05d04d8b039383a61d15,,,,,,,,,,,,,,,,,,,,,,,,,,,,,,,,,,,,,,,,,,,,,,,,,,,,,,,,,,,,,,,,,,,,,,,,,,,459.1946,460.0126,,,,,,,,,,,,,,,,,,,,,,,,,,,,,,
,,,,,,,,,,mexican,13 or older,"no, only English or Spanish",no,2025-08-13_17h38.58.880,empathy_intonation_perc,2024.2.4,Win32,60.24096386,65c11c7e9a7978508604477f,687ed1b7e638a4cbf2f02089,689d05d04d8b039383a61d15,,,,,,,,,,,,,,1,,,,,,,,,,,,,,,,,,,,,,,,,,,,,,,,,,,,,,,,,,,,,,,,,,,,,,,,,56,musgo,,,,,460.0204,461.3317,0,0,0.782,,0,0,0,55,1,REAL,FAKE,,,,,,,,,,,,,,,,,
,,,,,,,,,,mexican,13 or older,"no, only English or Spanish",no,2025-08-13_17h38.58.880,empathy_intonation_perc,2024.2.4,Win32,60.24096386,65c11c7e9a7978508604477f,687ed1b7e638a4cbf2f02089,689d05d04d8b039383a61d15,,,,,,,,,,,,,,0,,,,,,,,,,,,,,,,,,,,,,,,,,,,,,,,,,,,,,,,,,,,,,,,,,,,,,,,,35,rompido,,,,,461.3326,462.9176,0,1,1.0683,,0,1,1,34,1,REAL,FAKE,,,,,,,,,,,,,,,,,
,,,,,,,,,,mexican,13 or older,"no, only English or Spanish",no,2025-08-13_17h38.58.880,empathy_intonation_perc,2024.2.4,Win32,60.24096386,65c11c7e9a7978508604477f,687ed1b7e638a4cbf2f02089,689d05d04d8b039383a61d15,,,,,,,,,,,,,,1,,,,,,,,,,,,,,,,,,,,,,,,,,,,,,,,,,,,,,,,,,,,,,,,,,,,,,,,,6,tergiversar,,,,,462.9187,464.6874,0,0,1.2513,,0,2,2,5,1,REAL,FAKE,,,,,,,,,,,,,,,,,
,,,,,,,,,,mexican,13 or older,"no, only English or Spanish",no,2025-08-13_17h38.58.880,empathy_intonation_perc,2024.2.4,Win32,60.24096386,65c11c7e9a7978508604477f,687ed1b7e638a4cbf2f02089,689d05d04d8b039383a61d15,,,,,,,,,,,,,,1,,,,,,,,,,,,,,,,,,,,,,,,,,,,,,,,,,,,,,,,,,,,,,,,,,,,,,,,,25,bisagra,,,,,464.6884,466.7745,0,0,1.5767,,0,3,3,24,1,REAL,FAKE,,,,,,,,,,,,,,,,,
,,,,,,,,,,mexican,13 or older,"no, only English or Spanish",no,2025-08-13_17h38.58.880,empathy_intonation_perc,2024.2.4,Win32,60.24096386,65c11c7e9a7978508604477f,687ed1b7e638a4cbf2f02089,689d05d04d8b039383a61d15,,,,,,,,,,,,,,0,,,,,,,,,,,,,,,,,,,,,,,,,,,,,,,,,,,,,,,,,,,,,,,,,,,,,,,,,74,cintro,,,,,466.7754,468.1772,1,0,0.8809,,0,4,4,73,1,REAL,FAKE,,,,,,,,,,,,,,,,,
,,,,,,,,,,mexican,13 or older,"no, only English or Spanish",no,2025-08-13_17h38.58.880,empathy_intonation_perc,2024.2.4,Win32,60.24096386,65c11c7e9a7978508604477f,687ed1b7e638a4cbf2f02089,689d05d04d8b039383a61d15,,,,,,,,,,,,,,1,,,,,,,,,,,,,,,,,,,,,,,,,,,,,,,,,,,,,,,,,,,,,,,,,,,,,,,,,34,aviso,,,,,468.1778,469.5297,1,1,0.8309,,0,5,5,33,1,REAL,FAKE,,,,,,,,,,,,,,,,,
,,,,,,,,,,mexican,13 or older,"no, only English or Spanish",no,2025-08-13_17h38.58.880,empathy_intonation_perc,2024.2.4,Win32,60.24096386,65c11c7e9a7978508604477f,687ed1b7e638a4cbf2f02089,689d05d04d8b039383a61d15,,,,,,,,,,,,,,0,,,,,,,,,,,,,,,,,,,,,,,,,,,,,,,,,,,,,,,,,,,,,,,,,,,,,,,,,42,cadallo,,,,,469.5303,471.1661,0,1,1.1262,,0,6,6,41,1,REAL,FAKE,,,,,,,,,,,,,,,,,
,,,,,,,,,,mexican,13 or older,"no, only English or Spanish",no,2025-08-13_17h38.58.880,empathy_intonation_perc,2024.2.4,Win32,60.24096386,65c11c7e9a7978508604477f,687ed1b7e638a4cbf2f02089,689d05d04d8b039383a61d15,,,,,,,,,,,,,,1,,,,,,,,,,,,,,,,,,,,,,,,,,,,,,,,,,,,,,,,,,,,,,,,,,,,,,,,,81,pozo,,,,,471.167,473.0201,0,0,1.3349,,0,7,7,80,1,REAL,FAKE,,,,,,,,,,,,,,,,,
,,,,,,,,,,mexican,13 or older,"no, only English or Spanish",no,2025-08-13_17h38.58.880,empathy_intonation_perc,2024.2.4,Win32,60.24096386,65c11c7e9a7978508604477f,687ed1b7e638a4cbf2f02089,689d05d04d8b039383a61d15,,,,,,,,,,,,,,0,,,,,,,,,,,,,,,,,,,,,,,,,,,,,,,,,,,,,,,,,,,,,,,,,,,,,,,,,18,arsa,,,,,473.0209,475.1236,0,1,1.5967,,0,8,8,17,1,REAL,FAKE,,,,,,,,,,,,,,,,,
,,,,,,,,,,mexican,13 or older,"no, only English or Spanish",no,2025-08-13_17h38.58.880,empathy_intonation_perc,2024.2.4,Win32,60.24096386,65c11c7e9a7978508604477f,687ed1b7e638a4cbf2f02089,689d05d04d8b039383a61d15,,,,,,,,,,,,,,0,,,,,,,,,,,,,,,,,,,,,,,,,,,,,,,,,,,,,,,,,,,,,,,,,,,,,,,,,19,brecedad,,,,,475.1248,477.2782,1,0,1.6344,,0,9,9,18,1,REAL,FAKE,,,,,,,,,,,,,,,,,
,,,,,,,,,,mexican,13 or older,"no, only English or Spanish",no,2025-08-13_17h38.58.880,empathy_intonation_perc,2024.2.4,Win32,60.24096386,65c11c7e9a7978508604477f,687ed1b7e638a4cbf2f02089,689d05d04d8b039383a61d15,,,,,,,,,,,,,,1,,,,,,,,,,,,,,,,,,,,,,,,,,,,,,,,,,,,,,,,,,,,,,,,,,,,,,,,,39,torpe,,,,,477.2791,479.1312,1,1,1.3371,,0,10,10,38,1,REAL,FAKE,,,,,,,,,,,,,,,,,
,,,,,,,,,,mexican,13 or older,"no, only English or Spanish",no,2025-08-13_17h38.58.880,empathy_intonation_perc,2024.2.4,Win32,60.24096386,65c11c7e9a7978508604477f,687ed1b7e638a4cbf2f02089,689d05d04d8b039383a61d15,,,,,,,,,,,,,,1,,,,,,,,,,,,,,,,,,,,,,,,,,,,,,,,,,,,,,,,,,,,,,,,,,,,,,,,,68,alegre,,,,,479.1321,480.5339,1,1,0.8849,,0,11,11,67,1,REAL,FAKE,,,,,,,,,,,,,,,,,
,,,,,,,,,,mexican,13 or older,"no, only English or Spanish",no,2025-08-13_17h38.58.880,empathy_intonation_perc,2024.2.4,Win32,60.24096386,65c11c7e9a7978508604477f,687ed1b7e638a4cbf2f02089,689d05d04d8b039383a61d15,,,,,,,,,,,,,,0,,,,,,,,,,,,,,,,,,,,,,,,,,,,,,,,,,,,,,,,,,,,,,,,,,,,,,,,,70,temblo,,,,,480.5347,482.1537,0,1,1.0984,,0,12,12,69,1,REAL,FAKE,,,,,,,,,,,,,,,,,
,,,,,,,,,,mexican,13 or older,"no, only English or Spanish",no,2025-08-13_17h38.58.880,empathy_intonation_perc,2024.2.4,Win32,60.24096386,65c11c7e9a7978508604477f,687ed1b7e638a4cbf2f02089,689d05d04d8b039383a61d15,,,,,,,,,,,,,,1,,,,,,,,,,,,,,,,,,,,,,,,,,,,,,,,,,,,,,,,,,,,,,,,,,,,,,,,,90,clavel,,,,,482.1547,483.7393,0,0,1.0804,,0,13,13,89,1,REAL,FAKE,,,,,,,,,,,,,,,,,
,,,,,,,,,,mexican,13 or older,"no, only English or Spanish",no,2025-08-13_17h38.58.880,empathy_intonation_perc,2024.2.4,Win32,60.24096386,65c11c7e9a7978508604477f,687ed1b7e638a4cbf2f02089,689d05d04d8b039383a61d15,,,,,,,,,,,,,,0,,,,,,,,,,,,,,,,,,,,,,,,,,,,,,,,,,,,,,,,,,,,,,,,,,,,,,,,,53,vegada,,,,,483.7399,485.3592,0,1,1.1085,,0,14,14,52,1,REAL,FAKE,,,,,,,,,,,,,,,,,
,,,,,,,,,,mexican,13 or older,"no, only English or Spanish",no,2025-08-13_17h38.58.880,empathy_intonation_perc,2024.2.4,Win32,60.24096386,65c11c7e9a7978508604477f,687ed1b7e638a4cbf2f02089,689d05d04d8b039383a61d15,,,,,,,,,,,,,,1,,,,,,,,,,,,,,,,,,,,,,,,,,,,,,,,,,,,,,,,,,,,,,,,,,,,,,,,,26,secuestro,,,,,485.3598,487.0458,1,1,1.1765,,0,15,15,25,1,REAL,FAKE,,,,,,,,,,,,,,,,,
,,,,,,,,,,mexican,13 or older,"no, only English or Spanish",no,2025-08-13_17h38.58.880,empathy_intonation_perc,2024.2.4,Win32,60.24096386,65c11c7e9a7978508604477f,687ed1b7e638a4cbf2f02089,689d05d04d8b039383a61d15,,,,,,,,,,,,,,1,,,,,,,,,,,,,,,,,,,,,,,,,,,,,,,,,,,,,,,,,,,,,,,,,,,,,,,,,45,jilguero,,,,,487.047,488.6656,0,0,1.1047,,0,16,16,44,1,REAL,FAKE,,,,,,,,,,,,,,,,,
,,,,,,,,,,mexican,13 or older,"no, only English or Spanish",no,2025-08-13_17h38.58.880,empathy_intonation_perc,2024.2.4,Win32,60.24096386,65c11c7e9a7978508604477f,687ed1b7e638a4cbf2f02089,689d05d04d8b039383a61d15,,,,,,,,,,,,,,1,,,,,,,,,,,,,,,,,,,,,,,,,,,,,,,,,,,,,,,,,,,,,,,,,,,,,,,,,76,atar,,,,,488.6666,490.3189,1,1,1.1343,,0,17,17,75,1,REAL,FAKE,,,,,,,,,,,,,,,,,
,,,,,,,,,,mexican,13 or older,"no, only English or Spanish",no,2025-08-13_17h38.58.880,empathy_intonation_perc,2024.2.4,Win32,60.24096386,65c11c7e9a7978508604477f,687ed1b7e638a4cbf2f02089,689d05d04d8b039383a61d15,,,,,,,,,,,,,,1,,,,,,,,,,,,,,,,,,,,,,,,,,,,,,,,,,,,,,,,,,,,,,,,,,,,,,,,,78,frondoso,,,,,490.3199,492.2387,0,0,1.4074,,0,18,18,77,1,REAL,FAKE,,,,,,,,,,,,,,,,,
,,,,,,,,,,mexican,13 or older,"no, only English or Spanish",no,2025-08-13_17h38.58.880,empathy_intonation_perc,2024.2.4,Win32,60.24096386,65c11c7e9a7978508604477f,687ed1b7e638a4cbf2f02089,689d05d04d8b039383a61d15,,,,,,,,,,,,,,1,,,,,,,,,,,,,,,,,,,,,,,,,,,,,,,,,,,,,,,,,,,,,,,,,,,,,,,,,91,click the 1 key.,,,,,492.2397,494.2928,1,1,1.5459,,0,19,19,90,1,REAL,FAKE,,,,,,,,,,,,,,,,,
,,,,,,,,,,mexican,13 or older,"no, only English or Spanish",no,2025-08-13_17h38.58.880,empathy_intonation_perc,2024.2.4,Win32,60.24096386,65c11c7e9a7978508604477f,687ed1b7e638a4cbf2f02089,689d05d04d8b039383a61d15,,,,,,,,,,,,,,0,,,,,,,,,,,,,,,,,,,,,,,,,,,,,,,,,,,,,,,,,,,,,,,,,,,,,,,,,29,decar,,,,,494.294,496.7139,1,0,1.9065,,0,20,20,28,1,REAL,FAKE,,,,,,,,,,,,,,,,,
,,,,,,,,,,mexican,13 or older,"no, only English or Spanish",no,2025-08-13_17h38.58.880,empathy_intonation_perc,2024.2.4,Win32,60.24096386,65c11c7e9a7978508604477f,687ed1b7e638a4cbf2f02089,689d05d04d8b039383a61d15,,,,,,,,,,,,,,0,,,,,,,,,,,,,,,,,,,,,,,,,,,,,,,,,,,,,,,,,,,,,,,,,,,,,,,,,92,click the 0 key.,,,,,496.7147,498.1836,0,1,0.9498,,0,21,21,91,1,REAL,FAKE,,,,,,,,,,,,,,,,,
,,,,,,,,,,mexican,13 or older,"no, only English or Spanish",no,2025-08-13_17h38.58.880,empathy_intonation_perc,2024.2.4,Win32,60.24096386,65c11c7e9a7978508604477f,687ed1b7e638a4cbf2f02089,689d05d04d8b039383a61d15,,,,,,,,,,,,,,1,,,,,,,,,,,,,,,,,,,,,,,,,,,,,,,,,,,,,,,,,,,,,,,,,,,,,,,,,64,orgulloso,,,,,498.1845,499.8364,1,1,1.1365,,0,22,22,63,1,REAL,FAKE,,,,,,,,,,,,,,,,,
,,,,,,,,,,mexican,13 or older,"no, only English or Spanish",no,2025-08-13_17h38.58.880,empathy_intonation_perc,2024.2.4,Win32,60.24096386,65c11c7e9a7978508604477f,687ed1b7e638a4cbf2f02089,689d05d04d8b039383a61d15,,,,,,,,,,,,,,1,,,,,,,,,,,,,,,,,,,,,,,,,,,,,,,,,,,,,,,,,,,,,,,,,,,,,,,,,67,cabello,,,,,499.8372,501.2226,1,1,0.868,,0,23,23,66,1,REAL,FAKE,,,,,,,,,,,,,,,,,
,,,,,,,,,,mexican,13 or older,"no, only English or Spanish",no,2025-08-13_17h38.58.880,empathy_intonation_perc,2024.2.4,Win32,60.24096386,65c11c7e9a7978508604477f,687ed1b7e638a4cbf2f02089,689d05d04d8b039383a61d15,,,,,,,,,,,,,,1,,,,,,,,,,,,,,,,,,,,,,,,,,,,,,,,,,,,,,,,,,,,,,,,,,,,,,,,,7,pésimo,,,,,501.2237,502.6419,0,0,0.9015,,0,24,24,6,1,REAL,FAKE,,,,,,,,,,,,,,,,,
,,,,,,,,,,mexican,13 or older,"no, only English or Spanish",no,2025-08-13_17h38.58.880,empathy_intonation_perc,2024.2.4,Win32,60.24096386,65c11c7e9a7978508604477f,687ed1b7e638a4cbf2f02089,689d05d04d8b039383a61d15,,,,,,,,,,,,,,1,,,,,,,,,,,,,,,,,,,,,,,,,,,,,,,,,,,,,,,,,,,,,,,,,,,,,,,,,28,merodear,,,,,502.643,504.2283,0,0,1.0695,,0,25,25,27,1,REAL,FAKE,,,,,,,,,,,,,,,,,
,,,,,,,,,,mexican,13 or older,"no, only English or Spanish",no,2025-08-13_17h38.58.880,empathy_intonation_perc,2024.2.4,Win32,60.24096386,65c11c7e9a7978508604477f,687ed1b7e638a4cbf2f02089,689d05d04d8b039383a61d15,,,,,,,,,,,,,,0,,,,,,,,,,,,,,,,,,,,,,,,,,,,,,,,,,,,,,,,,,,,,,,,,,,,,,,,,4,batillón,,,,,504.2299,505.9815,0,1,1.2343,,0,26,26,3,1,REAL,FAKE,,,,,,,,,,,,,,,,,
,,,,,,,,,,mexican,13 or older,"no, only English or Spanish",no,2025-08-13_17h38.58.880,empathy_intonation_perc,2024.2.4,Win32,60.24096386,65c11c7e9a7978508604477f,687ed1b7e638a4cbf2f02089,689d05d04d8b039383a61d15,,,,,,,,,,,,,,1,,,,,,,,,,,,,,,,,,,,,,,,,,,,,,,,,,,,,,,,,,,,,,,,,,,,,,,,,14,yunque,,,,,505.9825,508.2521,0,0,1.7641,,0,27,27,13,1,REAL,FAKE,,,,,,,,,,,,,,,,,
,,,,,,,,,,mexican,13 or older,"no, only English or Spanish",no,2025-08-13_17h38.58.880,empathy_intonation_perc,2024.2.4,Win32,60.24096386,65c11c7e9a7978508604477f,687ed1b7e638a4cbf2f02089,689d05d04d8b039383a61d15,,,,,,,,,,,,,,0,,,,,,,,,,,,,,,,,,,,,,,,,,,,,,,,,,,,,,,,,,,,,,,,,,,,,,,,,30,alardio,,,,,508.2531,510.0391,0,1,1.2695,,0,28,28,29,1,REAL,FAKE,,,,,,,,,,,,,,,,,
,,,,,,,,,,mexican,13 or older,"no, only English or Spanish",no,2025-08-13_17h38.58.880,empathy_intonation_perc,2024.2.4,Win32,60.24096386,65c11c7e9a7978508604477f,687ed1b7e638a4cbf2f02089,689d05d04d8b039383a61d15,,,,,,,,,,,,,,0,,,,,,,,,,,,,,,,,,,,,,,,,,,,,,,,,,,,,,,,,,,,,,,,,,,,,,,,,82,empirador,,,,,510.0402,512.2599,0,1,1.7041,,0,29,29,81,1,REAL,FAKE,,,,,,,,,,,,,,,,,
,,,,,,,,,,mexican,13 or older,"no, only English or Spanish",no,2025-08-13_17h38.58.880,empathy_intonation_perc,2024.2.4,Win32,60.24096386,65c11c7e9a7978508604477f,687ed1b7e638a4cbf2f02089,689d05d04d8b039383a61d15,,,,,,,,,,,,,,0,,,,,,,,,,,,,,,,,,,,,,,,,,,,,,,,,,,,,,,,,,,,,,,,,,,,,,,,,17,floroso,,,,,512.2608,514.3638,0,1,1.5871,,0,30,30,16,1,REAL,FAKE,,,,,,,,,,,,,,,,,
,,,,,,,,,,mexican,13 or older,"no, only English or Spanish",no,2025-08-13_17h38.58.880,empathy_intonation_perc,2024.2.4,Win32,60.24096386,65c11c7e9a7978508604477f,687ed1b7e638a4cbf2f02089,689d05d04d8b039383a61d15,,,,,,,,,,,,,,0,,,,,,,,,,,,,,,,,,,,,,,,,,,,,,,,,,,,,,,,,,,,,,,,,,,,,,,,,79,tropaje,,,,,514.3648,516.4011,0,1,1.5165,,0,31,31,78,1,REAL,FAKE,,,,,,,,,,,,,,,,,
,,,,,,,,,,mexican,13 or older,"no, only English or Spanish",no,2025-08-13_17h38.58.880,empathy_intonation_perc,2024.2.4,Win32,60.24096386,65c11c7e9a7978508604477f,687ed1b7e638a4cbf2f02089,689d05d04d8b039383a61d15,,,,,,,,,,,,,,1,,,,,,,,,,,,,,,,,,,,,,,,,,,,,,,,,,,,,,,,,,,,,,,,,,,,,,,,,15,regar,,,,,516.4022,517.887,1,1,0.9666,,0,32,32,14,1,REAL,FAKE,,,,,,,,,,,,,,,,,
,,,,,,,,,,mexican,13 or older,"no, only English or Spanish",no,2025-08-13_17h38.58.880,empathy_intonation_perc,2024.2.4,Win32,60.24096386,65c11c7e9a7978508604477f,687ed1b7e638a4cbf2f02089,689d05d04d8b039383a61d15,,,,,,,,,,,,,,1,,,,,,,,,,,,,,,,,,,,,,,,,,,,,,,,,,,,,,,,,,,,,,,,,,,,,,,,,38,estornudar,,,,,517.888,519.5232,0,0,1.1285,,0,33,33,37,1,REAL,FAKE,,,,,,,,,,,,,,,,,
,,,,,,,,,,mexican,13 or older,"no, only English or Spanish",no,2025-08-13_17h38.58.880,empathy_intonation_perc,2024.2.4,Win32,60.24096386,65c11c7e9a7978508604477f,687ed1b7e638a4cbf2f02089,689d05d04d8b039383a61d15,,,,,,,,,,,,,,1,,,,,,,,,,,,,,,,,,,,,,,,,,,,,,,,,,,,,,,,,,,,,,,,,,,,,,,,,55,nevar,,,,,519.5243,521.0432,1,1,1.0121,,0,34,34,54,1,REAL,FAKE,,,,,,,,,,,,,,,,,
,,,,,,,,,,mexican,13 or older,"no, only English or Spanish",no,2025-08-13_17h38.58.880,empathy_intonation_perc,2024.2.4,Win32,60.24096386,65c11c7e9a7978508604477f,687ed1b7e638a4cbf2f02089,689d05d04d8b039383a61d15,,,,,,,,,,,,,,1,,,,,,,,,,,,,,,,,,,,,,,,,,,,,,,,,,,,,,,,,,,,,,,,,,,,,,,,,61,seda,,,,,521.0445,522.7296,1,1,1.1662,,0,35,35,60,1,REAL,FAKE,,,,,,,,,,,,,,,,,
,,,,,,,,,,mexican,13 or older,"no, only English or Spanish",no,2025-08-13_17h38.58.880,empathy_intonation_perc,2024.2.4,Win32,60.24096386,65c11c7e9a7978508604477f,687ed1b7e638a4cbf2f02089,689d05d04d8b039383a61d15,,,,,,,,,,,,,,1,,,,,,,,,,,,,,,,,,,,,,,,,,,,,,,,,,,,,,,,,,,,,,,,,,,,,,,,,71,polvoriento,,,,,522.7306,524.499,0,0,1.2612,,0,36,36,70,1,REAL,FAKE,,,,,,,,,,,,,,,,,
,,,,,,,,,,mexican,13 or older,"no, only English or Spanish",no,2025-08-13_17h38.58.880,empathy_intonation_perc,2024.2.4,Win32,60.24096386,65c11c7e9a7978508604477f,687ed1b7e638a4cbf2f02089,689d05d04d8b039383a61d15,,,,,,,,,,,,,,1,,,,,,,,,,,,,,,,,,,,,,,,,,,,,,,,,,,,,,,,,,,,,,,,,,,,,,,,,22,lacayo,,,,,524.5,526.0523,0,0,1.0443,,0,37,37,21,1,REAL,FAKE,,,,,,,,,,,,,,,,,
,,,,,,,,,,mexican,13 or older,"no, only English or Spanish",no,2025-08-13_17h38.58.880,empathy_intonation_perc,2024.2.4,Win32,60.24096386,65c11c7e9a7978508604477f,687ed1b7e638a4cbf2f02089,689d05d04d8b039383a61d15,,,,,,,,,,,,,,0,,,,,,,,,,,,,,,,,,,,,,,,,,,,,,,,,,,,,,,,,,,,,,,,,,,,,,,,,33,pauca,,,,,526.0535,527.4384,0,1,0.8665,,0,38,38,32,1,REAL,FAKE,,,,,,,,,,,,,,,,,
,,,,,,,,,,mexican,13 or older,"no, only English or Spanish",no,2025-08-13_17h38.58.880,empathy_intonation_perc,2024.2.4,Win32,60.24096386,65c11c7e9a7978508604477f,687ed1b7e638a4cbf2f02089,689d05d04d8b039383a61d15,,,,,,,,,,,,,,1,,,,,,,,,,,,,,,,,,,,,,,,,,,,,,,,,,,,,,,,,,,,,,,,,,,,,,,,,85,laúd,,,,,527.4398,529.2416,0,0,1.2834,,0,39,39,84,1,REAL,FAKE,,,,,,,,,,,,,,,,,
,,,,,,,,,,mexican,13 or older,"no, only English or Spanish",no,2025-08-13_17h38.58.880,empathy_intonation_perc,2024.2.4,Win32,60.24096386,65c11c7e9a7978508604477f,687ed1b7e638a4cbf2f02089,689d05d04d8b039383a61d15,,,,,,,,,,,,,,0,,,,,,,,,,,,,,,,,,,,,,,,,,,,,,,,,,,,,,,,,,,,,,,,,,,,,,,,,47,cartinar,,,,,529.2425,530.7278,1,0,0.9655,,0,40,40,46,1,REAL,FAKE,,,,,,,,,,,,,,,,,
,,,,,,,,,,mexican,13 or older,"no, only English or Spanish",no,2025-08-13_17h38.58.880,empathy_intonation_perc,2024.2.4,Win32,60.24096386,65c11c7e9a7978508604477f,687ed1b7e638a4cbf2f02089,689d05d04d8b039383a61d15,,,,,,,,,,,,,,0,,,,,,,,,,,,,,,,,,,,,,,,,,,,,,,,,,,,,,,,,,,,,,,,,,,,,,,,,50,flamida,,,,,530.729,532.3639,1,0,1.1276,,0,41,41,49,1,REAL,FAKE,,,,,,,,,,,,,,,,,
,,,,,,,,,,mexican,13 or older,"no, only English or Spanish",no,2025-08-13_17h38.58.880,empathy_intonation_perc,2024.2.4,Win32,60.24096386,65c11c7e9a7978508604477f,687ed1b7e638a4cbf2f02089,689d05d04d8b039383a61d15,,,,,,,,,,,,,,0,,,,,,,,,,,,,,,,,,,,,,,,,,,,,,,,,,,,,,,,,,,,,,,,,,,,,,,,,10,antar,,,,,532.365,533.6666,1,0,0.7801,,0,42,42,9,1,REAL,FAKE,,,,,,,,,,,,,,,,,
,,,,,,,,,,mexican,13 or older,"no, only English or Spanish",no,2025-08-13_17h38.58.880,empathy_intonation_perc,2024.2.4,Win32,60.24096386,65c11c7e9a7978508604477f,687ed1b7e638a4cbf2f02089,689d05d04d8b039383a61d15,,,,,,,,,,,,,,1,,,,,,,,,,,,,,,,,,,,,,,,,,,,,,,,,,,,,,,,,,,,,,,,,,,,,,,,,75,yacer,,,,,533.6675,535.0024,0,0,0.818,,0,43,43,74,1,REAL,FAKE,,,,,,,,,,,,,,,,,
,,,,,,,,,,mexican,13 or older,"no, only English or Spanish",no,2025-08-13_17h38.58.880,empathy_intonation_perc,2024.2.4,Win32,60.24096386,65c11c7e9a7978508604477f,687ed1b7e638a4cbf2f02089,689d05d04d8b039383a61d15,,,,,,,,,,,,,,1,,,,,,,,,,,,,,,,,,,,,,,,,,,,,,,,,,,,,,,,,,,,,,,,,,,,,,,,,54,fomentar,,,,,535.0034,536.4719,0,0,0.9571,,0,44,44,53,1,REAL,FAKE,,,,,,,,,,,,,,,,,
,,,,,,,,,,mexican,13 or older,"no, only English or Spanish",no,2025-08-13_17h38.58.880,empathy_intonation_perc,2024.2.4,Win32,60.24096386,65c11c7e9a7978508604477f,687ed1b7e638a4cbf2f02089,689d05d04d8b039383a61d15,,,,,,,,,,,,,,1,,,,,,,,,,,,,,,,,,,,,,,,,,,,,,,,,,,,,,,,,,,,,,,,,,,,,,,,,13,helar,,,,,536.4728,538.1918,0,0,1.1985,,0,45,45,12,1,REAL,FAKE,,,,,,,,,,,,,,,,,
,,,,,,,,,,mexican,13 or older,"no, only English or Spanish",no,2025-08-13_17h38.58.880,empathy_intonation_perc,2024.2.4,Win32,60.24096386,65c11c7e9a7978508604477f,687ed1b7e638a4cbf2f02089,689d05d04d8b039383a61d15,,,,,,,,,,,,,,1,,,,,,,,,,,,,,,,,,,,,,,,,,,,,,,,,,,,,,,,,,,,,,,,,,,,,,,,,46,martillo,,,,,538.1927,539.6275,1,1,0.9195,,0,46,46,45,1,REAL,FAKE,,,,,,,,,,,,,,,,,
,,,,,,,,,,mexican,13 or older,"no, only English or Spanish",no,2025-08-13_17h38.58.880,empathy_intonation_perc,2024.2.4,Win32,60.24096386,65c11c7e9a7978508604477f,687ed1b7e638a4cbf2f02089,689d05d04d8b039383a61d15,,,,,,,,,,,,,,1,,,,,,,,,,,,,,,,,,,,,,,,,,,,,,,,,,,,,,,,,,,,,,,,,,,,,,,,,88,acantilado,,,,,539.6284,541.1139,0,0,0.9706,,0,47,47,87,1,REAL,FAKE,,,,,,,,,,,,,,,,,
,,,,,,,,,,mexican,13 or older,"no, only English or Spanish",no,2025-08-13_17h38.58.880,empathy_intonation_perc,2024.2.4,Win32,60.24096386,65c11c7e9a7978508604477f,687ed1b7e638a4cbf2f02089,689d05d04d8b039383a61d15,,,,,,,,,,,,,,1,,,,,,,,,,,,,,,,,,,,,,,,,,,,,,,,,,,,,,,,,,,,,,,,,,,,,,,,,48,ladrón,,,,,541.1149,542.4828,0,0,0.8534,,0,48,48,47,1,REAL,FAKE,,,,,,,,,,,,,,,,,
,,,,,,,,,,mexican,13 or older,"no, only English or Spanish",no,2025-08-13_17h38.58.880,empathy_intonation_perc,2024.2.4,Win32,60.24096386,65c11c7e9a7978508604477f,687ed1b7e638a4cbf2f02089,689d05d04d8b039383a61d15,,,,,,,,,,,,,,0,,,,,,,,,,,,,,,,,,,,,,,,,,,,,,,,,,,,,,,,,,,,,,,,,,,,,,,,,32,fatacidad,,,,,542.4837,543.8019,0,1,0.8067,,0,49,49,31,1,REAL,FAKE,,,,,,,,,,,,,,,,,
,,,,,,,,,,mexican,13 or older,"no, only English or Spanish",no,2025-08-13_17h38.58.880,empathy_intonation_perc,2024.2.4,Win32,60.24096386,65c11c7e9a7978508604477f,687ed1b7e638a4cbf2f02089,689d05d04d8b039383a61d15,,,,,,,,,,,,,,1,,,,,,,,,,,,,,,,,,,,,,,,,,,,,,,,,,,,,,,,,,,,,,,,,,,,,,,,,60,matar,,,,,543.8026,545.4886,1,1,1.1722,,0,50,50,59,1,REAL,FAKE,,,,,,,,,,,,,,,,,
,,,,,,,,,,mexican,13 or older,"no, only English or Spanish",no,2025-08-13_17h38.58.880,empathy_intonation_perc,2024.2.4,Win32,60.24096386,65c11c7e9a7978508604477f,687ed1b7e638a4cbf2f02089,689d05d04d8b039383a61d15,,,,,,,,,,,,,,1,,,,,,,,,,,,,,,,,,,,,,,,,,,,,,,,,,,,,,,,,,,,,,,,,,,,,,,,,2,pellizcar,,,,,545.4893,546.8246,0,0,0.8227,,0,51,51,1,1,REAL,FAKE,,,,,,,,,,,,,,,,,
,,,,,,,,,,mexican,13 or older,"no, only English or Spanish",no,2025-08-13_17h38.58.880,empathy_intonation_perc,2024.2.4,Win32,60.24096386,65c11c7e9a7978508604477f,687ed1b7e638a4cbf2f02089,689d05d04d8b039383a61d15,,,,,,,,,,,,,,0,,,,,,,,,,,,,,,,,,,,,,,,,,,,,,,,,,,,,,,,,,,,,,,,,,,,,,,,,66,hacido,,,,,546.8255,548.3607,0,1,1.023,,0,52,52,65,1,REAL,FAKE,,,,,,,,,,,,,,,,,
,,,,,,,,,,mexican,13 or older,"no, only English or Spanish",no,2025-08-13_17h38.58.880,empathy_intonation_perc,2024.2.4,Win32,60.24096386,65c11c7e9a7978508604477f,687ed1b7e638a4cbf2f02089,689d05d04d8b039383a61d15,,,,,,,,,,,,,,1,,,,,,,,,,,,,,,,,,,,,,,,,,,,,,,,,,,,,,,,,,,,,,,,,,,,,,,,,62,flaco,,,,,548.3617,549.6798,1,1,0.8,,0,53,53,61,1,REAL,FAKE,,,,,,,,,,,,,,,,,
,,,,,,,,,,mexican,13 or older,"no, only English or Spanish",no,2025-08-13_17h38.58.880,empathy_intonation_perc,2024.2.4,Win32,60.24096386,65c11c7e9a7978508604477f,687ed1b7e638a4cbf2f02089,689d05d04d8b039383a61d15,,,,,,,,,,,,,,1,,,,,,,,,,,,,,,,,,,,,,,,,,,,,,,,,,,,,,,,,,,,,,,,,,,,,,,,,20,ávido,,,,,549.681,551.2495,0,0,1.0498,,0,54,54,19,1,REAL,FAKE,,,,,,,,,,,,,,,,,
,,,,,,,,,,mexican,13 or older,"no, only English or Spanish",no,2025-08-13_17h38.58.880,empathy_intonation_perc,2024.2.4,Win32,60.24096386,65c11c7e9a7978508604477f,687ed1b7e638a4cbf2f02089,689d05d04d8b039383a61d15,,,,,,,,,,,,,,0,,,,,,,,,,,,,,,,,,,,,,,,,,,,,,,,,,,,,,,,,,,,,,,,,,,,,,,,,8,cadeña,,,,,551.2512,553.0529,1,0,1.2937,,0,55,55,7,1,REAL,FAKE,,,,,,,,,,,,,,,,,
,,,,,,,,,,mexican,13 or older,"no, only English or Spanish",no,2025-08-13_17h38.58.880,empathy_intonation_perc,2024.2.4,Win32,60.24096386,65c11c7e9a7978508604477f,687ed1b7e638a4cbf2f02089,689d05d04d8b039383a61d15,,,,,,,,,,,,,,1,,,,,,,,,,,,,,,,,,,,,,,,,,,,,,,,,,,,,,,,,,,,,,,,,,,,,,,,,65,bizcocho,,,,,553.0541,554.5222,1,1,0.9481,,0,56,56,64,1,REAL,FAKE,,,,,,,,,,,,,,,,,
,,,,,,,,,,mexican,13 or older,"no, only English or Spanish",no,2025-08-13_17h38.58.880,empathy_intonation_perc,2024.2.4,Win32,60.24096386,65c11c7e9a7978508604477f,687ed1b7e638a4cbf2f02089,689d05d04d8b039383a61d15,,,,,,,,,,,,,,0,,,,,,,,,,,,,,,,,,,,,,,,,,,,,,,,,,,,,,,,,,,,,,,,,,,,,,,,,1,terzo,,,,,554.5229,555.8415,0,1,0.8045,,0,57,57,0,1,REAL,FAKE,,,,,,,,,,,,,,,,,
,,,,,,,,,,mexican,13 or older,"no, only English or Spanish",no,2025-08-13_17h38.58.880,empathy_intonation_perc,2024.2.4,Win32,60.24096386,65c11c7e9a7978508604477f,687ed1b7e638a4cbf2f02089,689d05d04d8b039383a61d15,,,,,,,,,,,,,,0,,,,,,,,,,,,,,,,,,,,,,,,,,,,,,,,,,,,,,,,,,,,,,,,,,,,,,,,,63,esposante,,,,,555.8424,557.3944,0,1,1.0378,,0,58,58,62,1,REAL,FAKE,,,,,,,,,,,,,,,,,
,,,,,,,,,,mexican,13 or older,"no, only English or Spanish",no,2025-08-13_17h38.58.880,empathy_intonation_perc,2024.2.4,Win32,60.24096386,65c11c7e9a7978508604477f,687ed1b7e638a4cbf2f02089,689d05d04d8b039383a61d15,,,,,,,,,,,,,,1,,,,,,,,,,,,,,,,,,,,,,,,,,,,,,,,,,,,,,,,,,,,,,,,,,,,,,,,,52,camisa,,,,,557.3952,558.6469,1,1,0.7336,,0,59,59,51,1,REAL,FAKE,,,,,,,,,,,,,,,,,
,,,,,,,,,,mexican,13 or older,"no, only English or Spanish",no,2025-08-13_17h38.58.880,empathy_intonation_perc,2024.2.4,Win32,60.24096386,65c11c7e9a7978508604477f,687ed1b7e638a4cbf2f02089,689d05d04d8b039383a61d15,,,,,,,,,,,,,,1,,,,,,,,,,,,,,,,,,,,,,,,,,,,,,,,,,,,,,,,,,,,,,,,,,,,,,,,,59,besar,,,,,558.6479,559.8324,1,1,0.6652,,0,60,60,58,1,REAL,FAKE,,,,,,,,,,,,,,,,,
,,,,,,,,,,mexican,13 or older,"no, only English or Spanish",no,2025-08-13_17h38.58.880,empathy_intonation_perc,2024.2.4,Win32,60.24096386,65c11c7e9a7978508604477f,687ed1b7e638a4cbf2f02089,689d05d04d8b039383a61d15,,,,,,,,,,,,,,1,,,,,,,,,,,,,,,,,,,,,,,,,,,,,,,,,,,,,,,,,,,,,,,,,,,,,,,,,49,ganar,,,,,559.8334,561.0347,1,1,0.6819,,0,61,61,48,1,REAL,FAKE,,,,,,,,,,,,,,,,,
,,,,,,,,,,mexican,13 or older,"no, only English or Spanish",no,2025-08-13_17h38.58.880,empathy_intonation_perc,2024.2.4,Win32,60.24096386,65c11c7e9a7978508604477f,687ed1b7e638a4cbf2f02089,689d05d04d8b039383a61d15,,,,,,,,,,,,,,1,,,,,,,,,,,,,,,,,,,,,,,,,,,,,,,,,,,,,,,,,,,,,,,,,,,,,,,,,57,tacaño,,,,,561.0358,562.3535,0,0,0.8049,,0,62,62,56,1,REAL,FAKE,,,,,,,,,,,,,,,,,
,,,,,,,,,,mexican,13 or older,"no, only English or Spanish",no,2025-08-13_17h38.58.880,empathy_intonation_perc,2024.2.4,Win32,60.24096386,65c11c7e9a7978508604477f,687ed1b7e638a4cbf2f02089,689d05d04d8b039383a61d15,,,,,,,,,,,,,,1,,,,,,,,,,,,,,,,,,,,,,,,,,,,,,,,,,,,,,,,,,,,,,,,,,,,,,,,,51,candado,,,,,562.3542,563.9736,0,0,1.1038,,0,63,63,50,1,REAL,FAKE,,,,,,,,,,,,,,,,,
,,,,,,,,,,mexican,13 or older,"no, only English or Spanish",no,2025-08-13_17h38.58.880,empathy_intonation_perc,2024.2.4,Win32,60.24096386,65c11c7e9a7978508604477f,687ed1b7e638a4cbf2f02089,689d05d04d8b039383a61d15,,,,,,,,,,,,,,0,,,,,,,,,,,,,,,,,,,,,,,,,,,,,,,,,,,,,,,,,,,,,,,,,,,,,,,,,16,abracer,,,,,563.9745,565.4758,0,1,0.9871,,0,64,64,15,1,REAL,FAKE,,,,,,,,,,,,,,,,,
,,,,,,,,,,mexican,13 or older,"no, only English or Spanish",no,2025-08-13_17h38.58.880,empathy_intonation_perc,2024.2.4,Win32,60.24096386,65c11c7e9a7978508604477f,687ed1b7e638a4cbf2f02089,689d05d04d8b039383a61d15,,,,,,,,,,,,,,1,,,,,,,,,,,,,,,,,,,,,,,,,,,,,,,,,,,,,,,,,,,,,,,,,,,,,,,,,86,barato,,,,,565.4763,566.7953,1,1,0.8032,,0,65,65,85,1,REAL,FAKE,,,,,,,,,,,,,,,,,
,,,,,,,,,,mexican,13 or older,"no, only English or Spanish",no,2025-08-13_17h38.58.880,empathy_intonation_perc,2024.2.4,Win32,60.24096386,65c11c7e9a7978508604477f,687ed1b7e638a4cbf2f02089,689d05d04d8b039383a61d15,,,,,,,,,,,,,,0,,,,,,,,,,,,,,,,,,,,,,,,,,,,,,,,,,,,,,,,,,,,,,,,,,,,,,,,,27,acutación,,,,,566.7961,568.0475,0,1,0.7409,,0,66,66,26,1,REAL,FAKE,,,,,,,,,,,,,,,,,
,,,,,,,,,,mexican,13 or older,"no, only English or Spanish",no,2025-08-13_17h38.58.880,empathy_intonation_perc,2024.2.4,Win32,60.24096386,65c11c7e9a7978508604477f,687ed1b7e638a4cbf2f02089,689d05d04d8b039383a61d15,,,,,,,,,,,,,,0,,,,,,,,,,,,,,,,,,,,,,,,,,,,,,,,,,,,,,,,,,,,,,,,,,,,,,,,,87,grodo,,,,,568.0483,569.6673,0,1,1.1032,,0,67,67,86,1,REAL,FAKE,,,,,,,,,,,,,,,,,
,,,,,,,,,,mexican,13 or older,"no, only English or Spanish",no,2025-08-13_17h38.58.880,empathy_intonation_perc,2024.2.4,Win32,60.24096386,65c11c7e9a7978508604477f,687ed1b7e638a4cbf2f02089,689d05d04d8b039383a61d15,,,,,,,,,,,,,,1,,,,,,,,,,,,,,,,,,,,,,,,,,,,,,,,,,,,,,,,,,,,,,,,,,,,,,,,,40,alfombra,,,,,569.6681,571.4541,1,1,1.2704,,0,68,68,39,1,REAL,FAKE,,,,,,,,,,,,,,,,,
,,,,,,,,,,mexican,13 or older,"no, only English or Spanish",no,2025-08-13_17h38.58.880,empathy_intonation_perc,2024.2.4,Win32,60.24096386,65c11c7e9a7978508604477f,687ed1b7e638a4cbf2f02089,689d05d04d8b039383a61d15,,,,,,,,,,,,,,0,,,,,,,,,,,,,,,,,,,,,,,,,,,,,,,,,,,,,,,,,,,,,,,,,,,,,,,,,23,lampera,,,,,571.4549,572.7731,0,1,0.8005,,0,69,69,22,1,REAL,FAKE,,,,,,,,,,,,,,,,,
,,,,,,,,,,mexican,13 or older,"no, only English or Spanish",no,2025-08-13_17h38.58.880,empathy_intonation_perc,2024.2.4,Win32,60.24096386,65c11c7e9a7978508604477f,687ed1b7e638a4cbf2f02089,689d05d04d8b039383a61d15,,,,,,,,,,,,,,1,,,,,,,,,,,,,,,,,,,,,,,,,,,,,,,,,,,,,,,,,,,,,,,,,,,,,,,,,80,hormiga,,,,,572.7742,574.1089,0,0,0.8266,,0,70,70,79,1,REAL,FAKE,,,,,,,,,,,,,,,,,
,,,,,,,,,,mexican,13 or older,"no, only English or Spanish",no,2025-08-13_17h38.58.880,empathy_intonation_perc,2024.2.4,Win32,60.24096386,65c11c7e9a7978508604477f,687ed1b7e638a4cbf2f02089,689d05d04d8b039383a61d15,,,,,,,,,,,,,,1,,,,,,,,,,,,,,,,,,,,,,,,,,,,,,,,,,,,,,,,,,,,,,,,,,,,,,,,,24,látigo,,,,,574.1098,575.3948,0,0,0.7646,,0,71,71,23,1,REAL,FAKE,,,,,,,,,,,,,,,,,
,,,,,,,,,,mexican,13 or older,"no, only English or Spanish",no,2025-08-13_17h38.58.880,empathy_intonation_perc,2024.2.4,Win32,60.24096386,65c11c7e9a7978508604477f,687ed1b7e638a4cbf2f02089,689d05d04d8b039383a61d15,,,,,,,,,,,,,,1,,,,,,,,,,,,,,,,,,,,,,,,,,,,,,,,,,,,,,,,,,,,,,,,,,,,,,,,,69,engatusar,,,,,575.3959,576.981,0,0,1.0776,,0,72,72,68,1,REAL,FAKE,,,,,,,,,,,,,,,,,
,,,,,,,,,,mexican,13 or older,"no, only English or Spanish",no,2025-08-13_17h38.58.880,empathy_intonation_perc,2024.2.4,Win32,60.24096386,65c11c7e9a7978508604477f,687ed1b7e638a4cbf2f02089,689d05d04d8b039383a61d15,,,,,,,,,,,,,,0,,,,,,,,,,,,,,,,,,,,,,,,,,,,,,,,,,,,,,,,,,,,,,,,,,,,,,,,,84,escuto,,,,,576.9819,578.7176,0,1,1.2194,,0,73,73,83,1,REAL,FAKE,,,,,,,,,,,,,,,,,
,,,,,,,,,,mexican,13 or older,"no, only English or Spanish",no,2025-08-13_17h38.58.880,empathy_intonation_perc,2024.2.4,Win32,60.24096386,65c11c7e9a7978508604477f,687ed1b7e638a4cbf2f02089,689d05d04d8b039383a61d15,,,,,,,,,,,,,,1,,,,,,,,,,,,,,,,,,,,,,,,,,,,,,,,,,,,,,,,,,,,,,,,,,,,,,,,,11,cenefa,,,,,578.7185,580.1368,0,0,0.9062,,0,74,74,10,1,REAL,FAKE,,,,,,,,,,,,,,,,,
,,,,,,,,,,mexican,13 or older,"no, only English or Spanish",no,2025-08-13_17h38.58.880,empathy_intonation_perc,2024.2.4,Win32,60.24096386,65c11c7e9a7978508604477f,687ed1b7e638a4cbf2f02089,689d05d04d8b039383a61d15,,,,,,,,,,,,,,0,,,,,,,,,,,,,,,,,,,,,,,,,,,,,,,,,,,,,,,,,,,,,,,,,,,,,,,,,58,plaudir,,,,,580.1374,581.6731,0,1,1.0224,,0,75,75,57,1,REAL,FAKE,,,,,,,,,,,,,,,,,
,,,,,,,,,,mexican,13 or older,"no, only English or Spanish",no,2025-08-13_17h38.58.880,empathy_intonation_perc,2024.2.4,Win32,60.24096386,65c11c7e9a7978508604477f,687ed1b7e638a4cbf2f02089,689d05d04d8b039383a61d15,,,,,,,,,,,,,,1,,,,,,,,,,,,,,,,,,,,,,,,,,,,,,,,,,,,,,,,,,,,,,,,,,,,,,,,,12,asesinato,,,,,581.6738,583.1425,1,1,0.9584,,0,76,76,11,1,REAL,FAKE,,,,,,,,,,,,,,,,,
,,,,,,,,,,mexican,13 or older,"no, only English or Spanish",no,2025-08-13_17h38.58.880,empathy_intonation_perc,2024.2.4,Win32,60.24096386,65c11c7e9a7978508604477f,687ed1b7e638a4cbf2f02089,689d05d04d8b039383a61d15,,,,,,,,,,,,,,1,,,,,,,,,,,,,,,,,,,,,,,,,,,,,,,,,,,,,,,,,,,,,,,,,,,,,,,,,37,granuja,,,,,583.1434,584.9791,0,0,1.3294,,0,77,77,36,1,REAL,FAKE,,,,,,,,,,,,,,,,,
,,,,,,,,,,mexican,13 or older,"no, only English or Spanish",no,2025-08-13_17h38.58.880,empathy_intonation_perc,2024.2.4,Win32,60.24096386,65c11c7e9a7978508604477f,687ed1b7e638a4cbf2f02089,689d05d04d8b039383a61d15,,,,,,,,,,,,,,1,,,,,,,,,,,,,,,,,,,,,,,,,,,,,,,,,,,,,,,,,,,,,,,,,,,,,,,,,44,cuchara,,,,,584.9801,586.2984,1,1,0.8053,,0,78,78,43,1,REAL,FAKE,,,,,,,,,,,,,,,,,
,,,,,,,,,,mexican,13 or older,"no, only English or Spanish",no,2025-08-13_17h38.58.880,empathy_intonation_perc,2024.2.4,Win32,60.24096386,65c11c7e9a7978508604477f,687ed1b7e638a4cbf2f02089,689d05d04d8b039383a61d15,,,,,,,,,,,,,,1,,,,,,,,,,,,,,,,,,,,,,,,,,,,,,,,,,,,,,,,,,,,,,,,,,,,,,,,,3,pulmones,,,,,586.2993,587.7009,1,1,0.8839,,0,79,79,2,1,REAL,FAKE,,,,,,,,,,,,,,,,,
,,,,,,,,,,mexican,13 or older,"no, only English or Spanish",no,2025-08-13_17h38.58.880,empathy_intonation_perc,2024.2.4,Win32,60.24096386,65c11c7e9a7978508604477f,687ed1b7e638a4cbf2f02089,689d05d04d8b039383a61d15,,,,,,,,,,,,,,1,,,,,,,,,,,,,,,,,,,,,,,,,,,,,,,,,,,,,,,,,,,,,,,,,,,,,,,,,9,hacha,,,,,587.7019,589.2542,0,0,1.034,,0,80,80,8,1,REAL,FAKE,,,,,,,,,,,,,,,,,
,,,,,,,,,,mexican,13 or older,"no, only English or Spanish",no,2025-08-13_17h38.58.880,empathy_intonation_perc,2024.2.4,Win32,60.24096386,65c11c7e9a7978508604477f,687ed1b7e638a4cbf2f02089,689d05d04d8b039383a61d15,,,,,,,,,,,,,,1,,,,,,,,,,,,,,,,,,,,,,,,,,,,,,,,,,,,,,,,,,,,,,,,,,,,,,,,,77,tiburón,,,,,589.255,590.6231,1,1,0.8577,,0,81,81,76,1,REAL,FAKE,,,,,,,,,,,,,,,,,
,,,,,,,,,,mexican,13 or older,"no, only English or Spanish",no,2025-08-13_17h38.58.880,empathy_intonation_perc,2024.2.4,Win32,60.24096386,65c11c7e9a7978508604477f,687ed1b7e638a4cbf2f02089,689d05d04d8b039383a61d15,,,,,,,,,,,,,,0,,,,,,,,,,,,,,,,,,,,,,,,,,,,,,,,,,,,,,,,,,,,,,,,,,,,,,,,,21,capillo,,,,,590.6237,592.0091,0,1,0.872,,0,82,82,20,1,REAL,FAKE,,,,,,,,,,,,,,,,,
,,,,,,,,,,mexican,13 or older,"no, only English or Spanish",no,2025-08-13_17h38.58.880,empathy_intonation_perc,2024.2.4,Win32,60.24096386,65c11c7e9a7978508604477f,687ed1b7e638a4cbf2f02089,689d05d04d8b039383a61d15,,,,,,,,,,,,,,1,,,,,,,,,,,,,,,,,,,,,,,,,,,,,,,,,,,,,,,,,,,,,,,,,,,,,,,,,5,zapato,,,,,592.0101,593.2111,1,1,0.6875,,0,83,83,4,1,REAL,FAKE,,,,,,,,,,,,,,,,,
,,,,,,,,,,mexican,13 or older,"no, only English or Spanish",no,2025-08-13_17h38.58.880,empathy_intonation_perc,2024.2.4,Win32,60.24096386,65c11c7e9a7978508604477f,687ed1b7e638a4cbf2f02089,689d05d04d8b039383a61d15,,,,,,,,,,,,,,0,,,,,,,,,,,,,,,,,,,,,,,,,,,,,,,,,,,,,,,,,,,,,,,,,,,,,,,,,72,pemición,,,,,593.2119,594.5137,0,1,0.7814,,0,84,84,71,1,REAL,FAKE,,,,,,,,,,,,,,,,,
,,,,,,,,,,mexican,13 or older,"no, only English or Spanish",no,2025-08-13_17h38.58.880,empathy_intonation_perc,2024.2.4,Win32,60.24096386,65c11c7e9a7978508604477f,687ed1b7e638a4cbf2f02089,689d05d04d8b039383a61d15,,,,,,,,,,,,,,1,,,,,,,,,,,,,,,,,,,,,,,,,,,,,,,,,,,,,,,,,,,,,,,,,,,,,,,,,31,pandilla,,,,,594.5144,595.8997,0,0,0.871,,0,85,85,30,1,REAL,FAKE,,,,,,,,,,,,,,,,,
,,,,,,,,,,mexican,13 or older,"no, only English or Spanish",no,2025-08-13_17h38.58.880,empathy_intonation_perc,2024.2.4,Win32,60.24096386,65c11c7e9a7978508604477f,687ed1b7e638a4cbf2f02089,689d05d04d8b039383a61d15,,,,,,,,,,,,,,1,,,,,,,,,,,,,,,,,,,,,,,,,,,,,,,,,,,,,,,,,,,,,,,,,,,,,,,,,41,rebuscar,,,,,595.9004,597.2857,1,1,0.8679,,0,86,86,40,1,REAL,FAKE,,,,,,,,,,,,,,,,,
,,,,,,,,,,mexican,13 or older,"no, only English or Spanish",no,2025-08-13_17h38.58.880,empathy_intonation_perc,2024.2.4,Win32,60.24096386,65c11c7e9a7978508604477f,687ed1b7e638a4cbf2f02089,689d05d04d8b039383a61d15,,,,,,,,,,,,,,1,,,,,,,,,,,,,,,,,,,,,,,,,,,,,,,,,,,,,,,,,,,,,,,,,,,,,,,,,73,hervidor,,,,,597.2866,599.089,0,0,1.2911,,0,87,87,72,1,REAL,FAKE,,,,,,,,,,,,,,,,,
,,,,,,,,,,mexican,13 or older,"no, only English or Spanish",no,2025-08-13_17h38.58.880,empathy_intonation_perc,2024.2.4,Win32,60.24096386,65c11c7e9a7978508604477f,687ed1b7e638a4cbf2f02089,689d05d04d8b039383a61d15,,,,,,,,,,,,,,1,,,,,,,,,,,,,,,,,,,,,,,,,,,,,,,,,,,,,,,,,,,,,,,,,,,,,,,,,36,loro,,,,,599.0895,601.9946,0,0,2.3849,,0,88,88,35,1,REAL,FAKE,,,,,,,,,,,,,,,,,
,,,,,,,,,,mexican,13 or older,"no, only English or Spanish",no,2025-08-13_17h38.58.880,empathy_intonation_perc,2024.2.4,Win32,60.24096386,65c11c7e9a7978508604477f,687ed1b7e638a4cbf2f02089,689d05d04d8b039383a61d15,,,,,,,,,,,,,,1,,,,,,,,,,,,,,,,,,,,,,,,,,,,,,,,,,,,,,,,,,,,,,,,,,,,,,,,,83,guante,,,,,601.9958,603.3137,0,0,0.7989,,0,89,89,82,1,REAL,FAKE,,,,,,,,,,,,,,,,,
,,,,,,,,,,mexican,13 or older,"no, only English or Spanish",no,2025-08-13_17h38.58.880,empathy_intonation_perc,2024.2.4,Win32,60.24096386,65c11c7e9a7978508604477f,687ed1b7e638a4cbf2f02089,689d05d04d8b039383a61d15,,,,,,,,,,,,,,1,,,,,,,,,,,,,,,,,,,,,,,,,,,,,,,,,,,,,,,,,,,,,,,,,,,,,,,,,89,prisa,,,,,603.3148,604.6492,0,0,0.8213,,0,90,90,88,1,REAL,FAKE,,,,,,,,,,,,,,,,,
,,,,,,,,,,mexican,13 or older,"no, only English or Spanish",no,2025-08-13_17h38.58.880,empathy_intonation_perc,2024.2.4,Win32,60.24096386,65c11c7e9a7978508604477f,687ed1b7e638a4cbf2f02089,689d05d04d8b039383a61d15,,,,,,,,,,,,,,1,,,,,,,,,,,,,,,,,,,,,,,,,,,,,,,,,,,,,,,,,,,,,,,,,,,,,,,,,43,canela,,,,,604.6499,606.1021,1,1,0.9333,,0,91,91,42,1,REAL,FAKE,,,,,,,,,,,,,,,,,
,,,,,,,,,,mexican,13 or older,"no, only English or Spanish",no,2025-08-13_17h38.58.880,empathy_intonation_perc,2024.2.4,Win32,60.24096386,65c11c7e9a7978508604477f,687ed1b7e638a4cbf2f02089,689d05d04d8b039383a61d15,,,,,,,,,,,,,,,,,,,,,,,,,,,,,,,,,,,,,,,,,,,,,,,,,,,,,,,,,,,,,,,,,,,,,,,,,,,,,,,,,,,,,,,,,,606.1024,611.8801,,,,,,,,,,,,,,,
,,,,,,,,,,mexican,13 or older,"no, only English or Spanish",no,2025-08-13_17h38.58.880,empathy_intonation_perc,2024.2.4,Win32,60.24096386,65c11c7e9a7978508604477f,687ed1b7e638a4cbf2f02089,689d05d04d8b039383a61d15,,,,,,,,,,,,,1,,,,,,,,,,,,,,,,,,,,,,,,,,,,,,,,,,,,,,,,,,,,,,,,,,,,,,,,,,,,,,,,,,,,,,,,,,,,,,,611.8867,615.6533,strongly agree,0,0,0,0,1,I can easily tell if someone else wants to enter a conversation.,1,0,1,0,,
,,,,,,,,,,mexican,13 or older,"no, only English or Spanish",no,2025-08-13_17h38.58.880,empathy_intonation_perc,2024.2.4,Win32,60.24096386,65c11c7e9a7978508604477f,687ed1b7e638a4cbf2f02089,689d05d04d8b039383a61d15,,,,,,,,,,,,,2,,,,,,,,,,,,,,,,,,,,,,,,,,,,,,,,,,,,,,,,,,,,,,,,,,,,,,,,,,,,,,,,,,,,,,,,,,,,,,,615.6546,619.1096,slightly disagree,0,1,1,1,1,I prefer animals to humans.,0,1,0,0,,
,,,,,,,,,,mexican,13 or older,"no, only English or Spanish",no,2025-08-13_17h38.58.880,empathy_intonation_perc,2024.2.4,Win32,60.24096386,65c11c7e9a7978508604477f,687ed1b7e638a4cbf2f02089,689d05d04d8b039383a61d15,,,,,,,,,,,,,3,,,,,,,,,,,,,,,,,,,,,,,,,,,,,,,,,,,,,,,,,,,,,,,,,,,,,,,,,,,,,,,,,,,,,,,,,,,,,,,619.1109,621.0297,slightly agree,0,2,2,2,1,I try to keep up with the current trends and fashions.,0,1,0,0,,
,,,,,,,,,,mexican,13 or older,"no, only English or Spanish",no,2025-08-13_17h38.58.880,empathy_intonation_perc,2024.2.4,Win32,60.24096386,65c11c7e9a7978508604477f,687ed1b7e638a4cbf2f02089,689d05d04d8b039383a61d15,,,,,,,,,,,,,4,,,,,,,,,,,,,,,,,,,,,,,,,,,,,,,,,,,,,,,,,,,,,,,,,,,,,,,,,,,,,,,,,,,,,,,,,,,,,,,621.0312,625.7053,strongly disagree,0,3,3,3,1,"I find it difficult to explain to others things that I understand easily,   when they don't understand it first time.",1,0,0,1,,
,,,,,,,,,,mexican,13 or older,"no, only English or Spanish",no,2025-08-13_17h38.58.880,empathy_intonation_perc,2024.2.4,Win32,60.24096386,65c11c7e9a7978508604477f,687ed1b7e638a4cbf2f02089,689d05d04d8b039383a61d15,,,,,,,,,,,,,5,,,,,,,,,,,,,,,,,,,,,,,,,,,,,,,,,,,,,,,,,,,,,,,,,,,,,,,,,,,,,,,,,,,,,,,,,,,,,,,625.706,627.6757,slightly agree,0,4,4,4,1,I dream most nights.,0,1,0,0,,
,,,,,,,,,,mexican,13 or older,"no, only English or Spanish",no,2025-08-13_17h38.58.880,empathy_intonation_perc,2024.2.4,Win32,60.24096386,65c11c7e9a7978508604477f,687ed1b7e638a4cbf2f02089,689d05d04d8b039383a61d15,,,,,,,,,,,,,6,,,,,,,,,,,,,,,,,,,,,,,,,,,,,,,,,,,,,,,,,,,,,,,,,,,,,,,,,,,,,,,,,,,,,,,,,,,,,,,627.6768,629.1285,slightly agree,0,5,5,5,1,I really enjoy caring for other people.,1,0,1,0,,
,,,,,,,,,,mexican,13 or older,"no, only English or Spanish",no,2025-08-13_17h38.58.880,empathy_intonation_perc,2024.2.4,Win32,60.24096386,65c11c7e9a7978508604477f,687ed1b7e638a4cbf2f02089,689d05d04d8b039383a61d15,,,,,,,,,,,,,7,,,,,,,,,,,,,,,,,,,,,,,,,,,,,,,,,,,,,,,,,,,,,,,,,,,,,,,,,,,,,,,,,,,,,,,,,,,,,,,629.1295,631.7668,strongly agree,0,6,6,6,1,I try to solve my own problems rather than discussing them with others.,0,1,0,0,,
,,,,,,,,,,mexican,13 or older,"no, only English or Spanish",no,2025-08-13_17h38.58.880,empathy_intonation_perc,2024.2.4,Win32,60.24096386,65c11c7e9a7978508604477f,687ed1b7e638a4cbf2f02089,689d05d04d8b039383a61d15,,,,,,,,,,,,,8,,,,,,,,,,,,,,,,,,,,,,,,,,,,,,,,,,,,,,,,,,,,,,,,,,,,,,,,,,,,,,,,,,,,,,,,,,,,,,,631.7677,634.2379,slightly disagree,0,7,7,7,1,I find it hard to know what to do in a social situation.,1,0,0,1,,
,,,,,,,,,,mexican,13 or older,"no, only English or Spanish",no,2025-08-13_17h38.58.880,empathy_intonation_perc,2024.2.4,Win32,60.24096386,65c11c7e9a7978508604477f,687ed1b7e638a4cbf2f02089,689d05d04d8b039383a61d15,,,,,,,,,,,,,9,,,,,,,,,,,,,,,,,,,,,,,,,,,,,,,,,,,,,,,,,,,,,,,,,,,,,,,,,,,,,,,,,,,,,,,,,,,,,,,634.2387,636.275,slightly agree,0,8,8,8,1,I am at my best first thing in the morning.,0,1,0,0,,
,,,,,,,,,,mexican,13 or older,"no, only English or Spanish",no,2025-08-13_17h38.58.880,empathy_intonation_perc,2024.2.4,Win32,60.24096386,65c11c7e9a7978508604477f,687ed1b7e638a4cbf2f02089,689d05d04d8b039383a61d15,,,,,,,,,,,,,10,,,,,,,,,,,,,,,,,,,,,,,,,,,,,,,,,,,,,,,,,,,,,,,,,,,,,,,,,,,,,,,,,,,,,,,,,,,,,,,636.2762,639.097,slightly agree,0,9,9,9,1,People often tell me that I went too far in driving my point home in a discussion.,1,0,0,1,,
,,,,,,,,,,mexican,13 or older,"no, only English or Spanish",no,2025-08-13_17h38.58.880,empathy_intonation_perc,2024.2.4,Win32,60.24096386,65c11c7e9a7978508604477f,687ed1b7e638a4cbf2f02089,689d05d04d8b039383a61d15,,,,,,,,,,,,,11,,,,,,,,,,,,,,,,,,,,,,,,,,,,,,,,,,,,,,,,,,,,,,,,,,,,,,,,,,,,,,,,,,,,,,,,,,,,,,,639.098,642.1194,slightly disagree,0,10,10,10,1,It doesn't bother me too much if I am late meeting a friend.,1,0,0,1,,
,,,,,,,,,,mexican,13 or older,"no, only English or Spanish",no,2025-08-13_17h38.58.880,empathy_intonation_perc,2024.2.4,Win32,60.24096386,65c11c7e9a7978508604477f,687ed1b7e638a4cbf2f02089,689d05d04d8b039383a61d15,,,,,,,,,,,,,12,,,,,,,,,,,,,,,,,,,,,,,,,,,,,,,,,,,,,,,,,,,,,,,,,,,,,,,,,,,,,,,,,,,,,,,,,,,,,,,642.1206,644.3904,strongly disagree,0,11,11,11,1,"Friendships and relationships are just too difficult, so I tend not to 
  bother with them.",1,0,0,1,,
,,,,,,,,,,mexican,13 or older,"no, only English or Spanish",no,2025-08-13_17h38.58.880,empathy_intonation_perc,2024.2.4,Win32,60.24096386,65c11c7e9a7978508604477f,687ed1b7e638a4cbf2f02089,689d05d04d8b039383a61d15,,,,,,,,,,,,,13,,,,,,,,,,,,,,,,,,,,,,,,,,,,,,,,,,,,,,,,,,,,,,,,,,,,,,,,,,,,,,,,,,,,,,,,,,,,,,,644.3913,647.9635,slightly disagree,0,12,12,12,1,"I would never break a law, no matter how minor.",0,1,0,0,,
,,,,,,,,,,mexican,13 or older,"no, only English or Spanish",no,2025-08-13_17h38.58.880,empathy_intonation_perc,2024.2.4,Win32,60.24096386,65c11c7e9a7978508604477f,687ed1b7e638a4cbf2f02089,689d05d04d8b039383a61d15,,,,,,,,,,,,,14,,,,,,,,,,,,,,,,,,,,,,,,,,,,,,,,,,,,,,,,,,,,,,,,,,,,,,,,,,,,,,,,,,,,,,,,,,,,,,,647.9645,650.6519,slightly disagree,0,13,13,13,1,I often find it difficult to judge if something is rude or polite.,1,0,0,1,,
,,,,,,,,,,mexican,13 or older,"no, only English or Spanish",no,2025-08-13_17h38.58.880,empathy_intonation_perc,2024.2.4,Win32,60.24096386,65c11c7e9a7978508604477f,687ed1b7e638a4cbf2f02089,689d05d04d8b039383a61d15,,,,,,,,,,,,,15,,,,,,,,,,,,,,,,,,,,,,,,,,,,,,,,,,,,,,,,,,,,,,,,,,,,,,,,,,,,,,,,,,,,,,,,,,,,,,,650.6533,654.793,slightly disagree,0,14,14,14,1,"In a conversation, I tend to focus on my own thoughts rather than on what 
  my listener might be thinking.",1,0,0,1,,
,,,,,,,,,,mexican,13 or older,"no, only English or Spanish",no,2025-08-13_17h38.58.880,empathy_intonation_perc,2024.2.4,Win32,60.24096386,65c11c7e9a7978508604477f,687ed1b7e638a4cbf2f02089,689d05d04d8b039383a61d15,,,,,,,,,,,,,16,,,,,,,,,,,,,,,,,,,,,,,,,,,,,,,,,,,,,,,,,,,,,,,,,,,,,,,,,,,,,,,,,,,,,,,,,,,,,,,654.7939,657.0138,strongly disagree,0,15,15,15,1,I prefer practical jokes to verbal humor.,0,1,0,0,,
,,,,,,,,,,mexican,13 or older,"no, only English or Spanish",no,2025-08-13_17h38.58.880,empathy_intonation_perc,2024.2.4,Win32,60.24096386,65c11c7e9a7978508604477f,687ed1b7e638a4cbf2f02089,689d05d04d8b039383a61d15,,,,,,,,,,,,,17,,,,,,,,,,,,,,,,,,,,,,,,,,,,,,,,,,,,,,,,,,,,,,,,,,,,,,,,,,,,,,,,,,,,,,,,,,,,,,,657.0145,660.5872,slightly disagree,0,16,16,16,1,I live life for today rather than the future.,0,1,0,0,,
,,,,,,,,,,mexican,13 or older,"no, only English or Spanish",no,2025-08-13_17h38.58.880,empathy_intonation_perc,2024.2.4,Win32,60.24096386,65c11c7e9a7978508604477f,687ed1b7e638a4cbf2f02089,689d05d04d8b039383a61d15,,,,,,,,,,,,,18,,,,,,,,,,,,,,,,,,,,,,,,,,,,,,,,,,,,,,,,,,,,,,,,,,,,,,,,,,,,,,,,,,,,,,,,,,,,,,,660.5884,662.4408,strongly disagree,0,17,17,17,1,"When I was a child, I enjoyed cutting up worms to see what would happen.",1,0,0,1,,
,,,,,,,,,,mexican,13 or older,"no, only English or Spanish",no,2025-08-13_17h38.58.880,empathy_intonation_perc,2024.2.4,Win32,60.24096386,65c11c7e9a7978508604477f,687ed1b7e638a4cbf2f02089,689d05d04d8b039383a61d15,,,,,,,,,,,,,19,,,,,,,,,,,,,,,,,,,,,,,,,,,,,,,,,,,,,,,,,,,,,,,,,,,,,,,,,,,,,,,,,,,,,,,,,,,,,,,662.4418,666.0641,slightly agree,0,18,18,18,1,I can pick up quickly if someone says one thing but means another.,1,0,1,0,,
,,,,,,,,,,mexican,13 or older,"no, only English or Spanish",no,2025-08-13_17h38.58.880,empathy_intonation_perc,2024.2.4,Win32,60.24096386,65c11c7e9a7978508604477f,687ed1b7e638a4cbf2f02089,689d05d04d8b039383a61d15,,,,,,,,,,,,,20,,,,,,,,,,,,,,,,,,,,,,,,,,,,,,,,,,,,,,,,,,,,,,,,,,,,,,,,,,,,,,,,,,,,,,,,,,,,,,,666.0648,667.5335,slightly agree,0,19,19,19,1,I tend to have very strong opinions about morality.,0,1,0,0,,
,,,,,,,,,,mexican,13 or older,"no, only English or Spanish",no,2025-08-13_17h38.58.880,empathy_intonation_perc,2024.2.4,Win32,60.24096386,65c11c7e9a7978508604477f,687ed1b7e638a4cbf2f02089,689d05d04d8b039383a61d15,,,,,,,,,,,,,21,,,,,,,,,,,,,,,,,,,,,,,,,,,,,,,,,,,,,,,,,,,,,,,,,,,,,,,,,,,,,,,,,,,,,,,,,,,,,,,667.5342,670.4056,strongly disagree,0,20,20,20,1,It is hard for me to see why some things upset people so much.,1,0,0,1,,
,,,,,,,,,,mexican,13 or older,"no, only English or Spanish",no,2025-08-13_17h38.58.880,empathy_intonation_perc,2024.2.4,Win32,60.24096386,65c11c7e9a7978508604477f,687ed1b7e638a4cbf2f02089,689d05d04d8b039383a61d15,,,,,,,,,,,,,22,,,,,,,,,,,,,,,,,,,,,,,,,,,,,,,,,,,,,,,,,,,,,,,,,,,,,,,,,,,,,,,,,,,,,,,,,,,,,,,670.4065,673.2111,strongly agree,0,21,21,21,1,I find it easy to put myself in somebody else's shoes.,1,0,1,0,,
