instructions_exposure.started,instructions_exposure.stopped,instructions_exposure_loop.thisRepN,instructions_exposure_loop.thisTrialN,instructions_exposure_loop.thisN,instructions_exposure_loop.thisIndex,instructions_exposure_loop.ran,instructions_text,continue_text,participant_id,"What variety of Spanish are you most familiar with? (e.g., Peruvian, Spanish, Mexican)",At what age did you begin learning Spanish?,Are you proficient in any languages other than English/Spanish?,"Are you familiar with Caribbean (e.g., Caribbean, Puerto Rican) or Galician Spanish?",date,expName,psychopyVersion,OS,frameRate,id,study_id,session,trial_exposure.started,trial_exposure.stopped,key_resp_exposure.keys,key_resp_exposure.corr,key_resp_exposure.rt,key_resp_exposure.duration,key_resp.keys,exposure_loop.thisRepN,exposure_loop.thisTrialN,exposure_loop.thisN,exposure_loop.thisIndex,exposure_loop.ran,item_num,correct_response,question,path,duration,instructions_2afc.started,instructions_2afc.stopped,instructions_2afc_loop.thisRepN,instructions_2afc_loop.thisTrialN,instructions_2afc_loop.thisN,instructions_2afc_loop.thisIndex,instructions_2afc_loop.ran,practice_2afc.started,practice_2afc.stopped,key_resp_2afc_practice.keys,key_resp_2afc_practice.corr,key_resp_2afc_practice.rt,key_resp_2afc_practice.duration,trials_2afc_practice_loop.thisRepN,trials_2afc_practice_loop.thisTrialN,trials_2afc_practice_loop.thisN,trials_2afc_practice_loop.thisIndex,trials_2afc_practice_loop.ran,check_2afc.started,check_2afc.stopped,trial_2afc.started,trial_2afc.stopped,key_resp_2afc_trial.keys,key_resp_2afc_trial.corr,key_resp_2afc_trial.rt,key_resp_2afc_trial.duration,trials_2afc_loop.thisRepN,trials_2afc_loop.thisTrialN,trials_2afc_loop.thisN,trials_2afc_loop.thisIndex,trials_2afc_loop.ran,target,variety,instructions_lextale.started,instructions_lextale.stopped,instructions_lextale_loop.thisRepN,instructions_lextale_loop.thisTrialN,instructions_lextale_loop.thisN,instructions_lextale_loop.thisIndex,instructions_lextale_loop.ran,practice_lextale.started,practice_lextale.stopped,key_resp_lextale_practice.keys,key_resp_lextale_practice.corr,key_resp_lextale_practice.rt,key_resp_lextale_practice.duration,practice_feedback_lextale.started,practice_feedback_lextale.stopped,trials_lextale_practice_loop.thisRepN,trials_lextale_practice_loop.thisTrialN,trials_lextale_practice_loop.thisN,trials_lextale_practice_loop.thisIndex,trials_lextale_practice_loop.ran,stim,word,prac_button_real,prac_button_false,check_lextale.started,check_lextale.stopped,trial_lextale.started,trial_lextale.stopped,key_resp_lextale_trial.keys,key_resp_lextale_trial.corr,key_resp_lextale_trial.rt,key_resp_lextale_trial.duration,trials_lextale_loop.thisRepN,trials_lextale_loop.thisTrialN,trials_lextale_loop.thisN,trials_lextale_loop.thisIndex,trials_lextale_loop.ran,button_real,button_false,instructions_eq.started,instructions_eq.stopped,trial_eq.started,trial_eq.stopped,slider_eq_trial.response,trials_eq_loop.thisRepN,trials_eq_loop.thisTrialN,trials_eq_loop.thisN,trials_eq_loop.thisIndex,trials_eq_loop.ran,item,is_test_item,is_distractor,is_agree_score,is_disagree_score,end_exp.started,end_exp.stopped
0.0087,2.0173,0,0,0,0,1,"In the following task, you are going to hear a series of conversations.", (press the space bar to continue),,,click here to respond,click here to respond,click here to respond,2025-08-13_17h50.50.121,empathy_intonation_perc,2024.2.4,Win32,59.52380952,5aadcaf1e1546900019af287,687ed1b7e638a4cbf2f02089,689d08ac8e85813c4053d4c1,,,,,,,,,,,,,,,,,,,,,,,,,,,,,,,,,,,,,,,,,,,,,,,,,,,,,,,,,,,,,,,,,,,,,,,,,,,,,,,,,,,,,,,,,,,,,,,,,,,,,,,,,,
2.018,3.7835,0,1,1,1,1,It is okay if you don't not 100% understand them!, (press the space bar to continue),,,click here to respond,click here to respond,click here to respond,2025-08-13_17h50.50.121,empathy_intonation_perc,2024.2.4,Win32,59.52380952,5aadcaf1e1546900019af287,687ed1b7e638a4cbf2f02089,689d08ac8e85813c4053d4c1,,,,,,,,,,,,,,,,,,,,,,,,,,,,,,,,,,,,,,,,,,,,,,,,,,,,,,,,,,,,,,,,,,,,,,,,,,,,,,,,,,,,,,,,,,,,,,,,,,,,,,,,,,
3.7848,4.5695,0,2,2,2,1,"After, you will read a sentence about the conversation and decide if it's true or false.", (press the space bar to continue),,,click here to respond,click here to respond,click here to respond,2025-08-13_17h50.50.121,empathy_intonation_perc,2024.2.4,Win32,59.52380952,5aadcaf1e1546900019af287,687ed1b7e638a4cbf2f02089,689d08ac8e85813c4053d4c1,,,,,,,,,,,,,,,,,,,,,,,,,,,,,,,,,,,,,,,,,,,,,,,,,,,,,,,,,,,,,,,,,,,,,,,,,,,,,,,,,,,,,,,,,,,,,,,,,,,,,,,,,,
4.5707,6.7002,0,3,3,3,1,"If it's true, press '1' (True) and if it's false press '0' (False).", (press the space bar to continue),,,click here to respond,click here to respond,click here to respond,2025-08-13_17h50.50.121,empathy_intonation_perc,2024.2.4,Win32,59.52380952,5aadcaf1e1546900019af287,687ed1b7e638a4cbf2f02089,689d08ac8e85813c4053d4c1,,,,,,,,,,,,,,,,,,,,,,,,,,,,,,,,,,,,,,,,,,,,,,,,,,,,,,,,,,,,,,,,,,,,,,,,,,,,,,,,,,,,,,,,,,,,,,,,,,,,,,,,,,
,,,,,,,,,,,click here to respond,click here to respond,click here to respond,2025-08-13_17h50.50.121,empathy_intonation_perc,2024.2.4,Win32,59.52380952,5aadcaf1e1546900019af287,687ed1b7e638a4cbf2f02089,689d08ac8e85813c4053d4c1,6.7042,70.7152,0,0,3.952,,,0,0,0,1,1,2,1,The mom asked the daughter if she already went to the supermarket.,./stim/exposure_wavs/dr_stimuli_convo.wav,60,,,,,,,,,,,,,,,,,,,,,,,,,,,,,,,,,,,,,,,,,,,,,,,,,,,,,,,,,,,,,,,,,,,,,,,,,,,,,,,,,,,,,,,,,
,,,,,,,,,,,click here to respond,click here to respond,click here to respond,2025-08-13_17h50.50.121,empathy_intonation_perc,2024.2.4,Win32,59.52380952,5aadcaf1e1546900019af287,687ed1b7e638a4cbf2f02089,689d08ac8e85813c4053d4c1,70.7176,119.8277,0,0,2.0788,,,0,1,1,0,1,1,1,The son asked the mom if Aunt Marina is okay.,./stim/exposure_wavs/ga_stimuli_convo.wav,47,,,,,,,,,,,,,,,,,,,,,,,,,,,,,,,,,,,,,,,,,,,,,,,,,,,,,,,,,,,,,,,,,,,,,,,,,,,,,,,,,,,,,,,,,
,,,,,,,,,,,click here to respond,click here to respond,click here to respond,2025-08-13_17h50.50.121,empathy_intonation_perc,2024.2.4,Win32,59.52380952,5aadcaf1e1546900019af287,687ed1b7e638a4cbf2f02089,689d08ac8e85813c4053d4c1,119.8299,157.3088,1,0,1.4354,,,0,2,2,2,1,3,0,The mom already has rice.,./stim/exposure_wavs/pr_stimuli_convo.wav,36,,,,,,,,,,,,,,,,,,,,,,,,,,,,,,,,,,,,,,,,,,,,,,,,,,,,,,,,,,,,,,,,,,,,,,,,,,,,,,,,,,,,,,,,,
,,,,,,,"In the following task you are going to hear a series of utterances. 

  You will decide if the utterances sound like questions or not using your keyboard.", (press the spacebar to continue),,,click here to respond,click here to respond,click here to respond,2025-08-13_17h50.50.121,empathy_intonation_perc,2024.2.4,Win32,59.52380952,5aadcaf1e1546900019af287,687ed1b7e638a4cbf2f02089,689d08ac8e85813c4053d4c1,,,,,,,,,,,,,,,,,,157.3161,162.4927,0,0,0,0,1,,,,,,,,,,,,,,,,,,,,,,,,,,,,,,,,,,,,,,,,,,,,,,,,,,,,,,,,,,,,,,,,,,,,,,,,,,,,,,,,,,
,,,,,,,"If you believe the utterance is a question, type '1' (for 'yes') and if you do not 
  believe it is a question type '0' (for 'no').

  Let's practice a bit...", (press the spacebar to continue),,,click here to respond,click here to respond,click here to respond,2025-08-13_17h50.50.121,empathy_intonation_perc,2024.2.4,Win32,59.52380952,5aadcaf1e1546900019af287,687ed1b7e638a4cbf2f02089,689d08ac8e85813c4053d4c1,,,,,,,,,,,,,,,,,,162.4952,164.792,0,1,1,1,1,,,,,,,,,,,,,,,,,,,,,,,,,,,,,,,,,,,,,,,,,,,,,,,,,,,,,,,,,,,,,,,,,,,,,,,,,,,,,,,,,,
,,,,,,,,,,,click here to respond,click here to respond,click here to respond,2025-08-13_17h50.50.121,empathy_intonation_perc,2024.2.4,Win32,59.52380952,5aadcaf1e1546900019af287,687ed1b7e638a4cbf2f02089,689d08ac8e85813c4053d4c1,,,,,,,,,,,,,,1,,./stim/wavs/mexican_question_filler_Felipe-no-tiene-contrasena.wav,,,,,,,,,164.801,167.2254,1,1,1.9116,,0,0,0,3,1,,,,,,,,,,,,,,,,,,,,,,,,,,,,,,,,,,,,,,,,,,,,,,,,,,,,,,,,,,,,,,,,,,,,,,,
,,,,,,,,,,,click here to respond,click here to respond,click here to respond,2025-08-13_17h50.50.121,empathy_intonation_perc,2024.2.4,Win32,59.52380952,5aadcaf1e1546900019af287,687ed1b7e638a4cbf2f02089,689d08ac8e85813c4053d4c1,,,,,,,,,,,,,,0,,./stim/wavs/puertorican_statement_filler_La-nina-pinta-con-su-amiga.wav,,,,,,,,,167.2262,169.5952,0,1,1.8336,,0,1,1,7,1,,,,,,,,,,,,,,,,,,,,,,,,,,,,,,,,,,,,,,,,,,,,,,,,,,,,,,,,,,,,,,,,,,,,,,,
,,,,,,,,,,,click here to respond,click here to respond,click here to respond,2025-08-13_17h50.50.121,empathy_intonation_perc,2024.2.4,Win32,59.52380952,5aadcaf1e1546900019af287,687ed1b7e638a4cbf2f02089,689d08ac8e85813c4053d4c1,,,,,,,,,,,,,,1,,./stim/wavs/castilian_question_filler_Mi-esposo-conoce-al-chico.wav,,,,,,,,,169.5961,172.3283,1,1,2.2163,,0,2,2,0,1,,,,,,,,,,,,,,,,,,,,,,,,,,,,,,,,,,,,,,,,,,,,,,,,,,,,,,,,,,,,,,,,,,,,,,,
,,,,,,,,,,,click here to respond,click here to respond,click here to respond,2025-08-13_17h50.50.121,empathy_intonation_perc,2024.2.4,Win32,59.52380952,5aadcaf1e1546900019af287,687ed1b7e638a4cbf2f02089,689d08ac8e85813c4053d4c1,,,,,,,,,,,,,,0,,./stim/wavs/andalusian_statement_filler_Alberto-nunca-se-afeita.wav,,,,,,,,,172.3292,174.6954,0,1,1.85,,0,3,3,5,1,,,,,,,,,,,,,,,,,,,,,,,,,,,,,,,,,,,,,,,,,,,,,,,,,,,,,,,,,,,,,,,,,,,,,,,
,,,,,,,,,,,click here to respond,click here to respond,click here to respond,2025-08-13_17h50.50.121,empathy_intonation_perc,2024.2.4,Win32,59.52380952,5aadcaf1e1546900019af287,687ed1b7e638a4cbf2f02089,689d08ac8e85813c4053d4c1,,,,,,,,,,,,,,0,,./stim/wavs/cuban_statement_filler_Cocinabas-por-la-noche.wav,,,,,,,,,174.6961,177.3579,0,1,2.1425,,0,4,4,4,1,,,,,,,,,,,,,,,,,,,,,,,,,,,,,,,,,,,,,,,,,,,,,,,,,,,,,,,,,,,,,,,,,,,,,,,
,,,,,,,,,,,click here to respond,click here to respond,click here to respond,2025-08-13_17h50.50.121,empathy_intonation_perc,2024.2.4,Win32,59.52380952,5aadcaf1e1546900019af287,687ed1b7e638a4cbf2f02089,689d08ac8e85813c4053d4c1,,,,,,,,,,,,,,1,,./stim/wavs/argentine_question_filler_Mi-vecino-habla-mucho.wav,,,,,,,,,177.3586,179.3749,1,1,1.4678,,0,5,5,1,1,,,,,,,,,,,,,,,,,,,,,,,,,,,,,,,,,,,,,,,,,,,,,,,,,,,,,,,,,,,,,,,,,,,,,,,
,,,,,,,,,,,click here to respond,click here to respond,click here to respond,2025-08-13_17h50.50.121,empathy_intonation_perc,2024.2.4,Win32,59.52380952,5aadcaf1e1546900019af287,687ed1b7e638a4cbf2f02089,689d08ac8e85813c4053d4c1,,,,,,,,,,,,,,0,,./stim/wavs/peruvian_statement_filler_El-nino-habla-con-su-madre.wav,,,,,,,,,179.3755,182.0911,0,1,2.1714,,0,6,6,6,1,,,,,,,,,,,,,,,,,,,,,,,,,,,,,,,,,,,,,,,,,,,,,,,,,,,,,,,,,,,,,,,,,,,,,,,
,,,,,,,,,,,click here to respond,click here to respond,click here to respond,2025-08-13_17h50.50.121,empathy_intonation_perc,2024.2.4,Win32,59.52380952,5aadcaf1e1546900019af287,687ed1b7e638a4cbf2f02089,689d08ac8e85813c4053d4c1,,,,,,,,,,,,,,1,,./stim/wavs/chilean_question_filler_Mi-padre-cantaba-bien.wav,,,,,,,,,182.0924,184.8741,0,0,2.2533,,0,7,7,2,1,,,,,,,,,,,,,,,,,,,,,,,,,,,,,,,,,,,,,,,,,,,,,,,,,,,,,,,,,,,,,,,,,,,,,,,
,,,,,,,,,,,click here to respond,click here to respond,click here to respond,2025-08-13_17h50.50.121,empathy_intonation_perc,2024.2.4,Win32,59.52380952,5aadcaf1e1546900019af287,687ed1b7e638a4cbf2f02089,689d08ac8e85813c4053d4c1,,,,,,,,,,,,,,,,,,,,,,,,,,,,,,,,,,,,184.8746,186.2576,,,,,,,,,,,,,,,,,,,,,,,,,,,,,,,,,,,,,,,,,,,,,,,,,,,,,,,,,,,,,,,,,,,,,
,,,,,,,,,,,click here to respond,click here to respond,click here to respond,2025-08-13_17h50.50.121,empathy_intonation_perc,2024.2.4,Win32,59.52380952,5aadcaf1e1546900019af287,687ed1b7e638a4cbf2f02089,689d08ac8e85813c4053d4c1,,,,,,,,,,,,,52,0,,./stim/wavs/cuban_match_declarative-broad-focus_Daniel-iba-a-Bolivia.wav,,,,,,,,,,,,,,,,,,,,,,186.2707,188.9909,0,1,2.2076,,0,0,0,51,1,0,cuban,,,,,,,,,,,,,,,,,,,,,,,,,,,,,,,,,,,,,,,,,,,,,,,,,,,,,,,,
,,,,,,,,,,,click here to respond,click here to respond,click here to respond,2025-08-13_17h50.50.121,empathy_intonation_perc,2024.2.4,Win32,59.52380952,5aadcaf1e1546900019af287,687ed1b7e638a4cbf2f02089,689d08ac8e85813c4053d4c1,,,,,,,,,,,,,19,1,,./stim/wavs/puertorican_match_interrogative-total-yn_Ana-lleva-el-abrigo.wav,,,,,,,,,,,,,,,,,,,,,,188.9914,191.5598,0,0,2.0486,,0,1,1,18,1,1,puertorican,,,,,,,,,,,,,,,,,,,,,,,,,,,,,,,,,,,,,,,,,,,,,,,,,,,,,,,,
,,,,,,,,,,,click here to respond,click here to respond,click here to respond,2025-08-13_17h50.50.121,empathy_intonation_perc,2024.2.4,Win32,59.52380952,5aadcaf1e1546900019af287,687ed1b7e638a4cbf2f02089,689d08ac8e85813c4053d4c1,,,,,,,,,,,,,17,1,,./stim/wavs/mexican_match_interrogative-total-yn_Mariano-habla-del-tiempo.wav,,,,,,,,,,,,,,,,,,,,,,191.5605,194.3572,0,0,2.2607,,0,2,2,16,1,0,mexican,,,,,,,,,,,,,,,,,,,,,,,,,,,,,,,,,,,,,,,,,,,,,,,,,,,,,,,,
,,,,,,,,,,,click here to respond,click here to respond,click here to respond,2025-08-13_17h50.50.121,empathy_intonation_perc,2024.2.4,Win32,59.52380952,5aadcaf1e1546900019af287,687ed1b7e638a4cbf2f02089,689d08ac8e85813c4053d4c1,,,,,,,,,,,,,38,1,,./stim/wavs/mexican_mismatch_interrogative-total-yn_Mi-novio-viene-del-lago.wav,,,,,,,,,,,,,,,,,,,,,,194.3582,196.4267,1,1,1.5499,,0,3,3,37,1,0,mexican,,,,,,,,,,,,,,,,,,,,,,,,,,,,,,,,,,,,,,,,,,,,,,,,,,,,,,,,
,,,,,,,,,,,click here to respond,click here to respond,click here to respond,2025-08-13_17h50.50.121,empathy_intonation_perc,2024.2.4,Win32,59.52380952,5aadcaf1e1546900019af287,687ed1b7e638a4cbf2f02089,689d08ac8e85813c4053d4c1,,,,,,,,,,,,,31,1,,./stim/wavs/cuban_mismatch_interrogative-total-yn_El-nino-oye-el-rio.wav,,,,,,,,,,,,,,,,,,,,,,196.4274,198.5234,0,0,1.5783,,0,4,4,30,1,1,cuban,,,,,,,,,,,,,,,,,,,,,,,,,,,,,,,,,,,,,,,,,,,,,,,,,,,,,,,,
,,,,,,,,,,,click here to respond,click here to respond,click here to respond,2025-08-13_17h50.50.121,empathy_intonation_perc,2024.2.4,Win32,59.52380952,5aadcaf1e1546900019af287,687ed1b7e638a4cbf2f02089,689d08ac8e85813c4053d4c1,,,,,,,,,,,,,54,0,,./stim/wavs/cuban_match_declarative-broad-focus_Maria-bebe-el-vino.wav,,,,,,,,,,,,,,,,,,,,,,198.5242,201.4567,0,1,2.406,,0,5,5,53,1,0,cuban,,,,,,,,,,,,,,,,,,,,,,,,,,,,,,,,,,,,,,,,,,,,,,,,,,,,,,,,
,,,,,,,,,,,click here to respond,click here to respond,click here to respond,2025-08-13_17h50.50.121,empathy_intonation_perc,2024.2.4,Win32,59.52380952,5aadcaf1e1546900019af287,687ed1b7e638a4cbf2f02089,689d08ac8e85813c4053d4c1,,,,,,,,,,,,,86,0,,./stim/wavs/puertorican_mismatch_declarative-broad-focus_El-nino-oye-el-rio.wav,,,,,,,,,,,,,,,,,,,,,,201.4574,205.2897,0,1,3.3051,,0,6,6,85,1,0,puertorican,,,,,,,,,,,,,,,,,,,,,,,,,,,,,,,,,,,,,,,,,,,,,,,,,,,,,,,,
,,,,,,,,,,,click here to respond,click here to respond,click here to respond,2025-08-13_17h50.50.121,empathy_intonation_perc,2024.2.4,Win32,59.52380952,5aadcaf1e1546900019af287,687ed1b7e638a4cbf2f02089,689d08ac8e85813c4053d4c1,,,,,,,,,,,,,65,0,,./stim/wavs/puertorican_match_declarative-broad-focus_David-leia-el-libro.wav,,,,,,,,,,,,,,,,,,,,,,205.29,208.9563,0,1,3.1492,,0,7,7,64,1,0,puertorican,,,,,,,,,,,,,,,,,,,,,,,,,,,,,,,,,,,,,,,,,,,,,,,,,,,,,,,,
,,,,,,,,,,,click here to respond,click here to respond,click here to respond,2025-08-13_17h50.50.121,empathy_intonation_perc,2024.2.4,Win32,59.52380952,5aadcaf1e1546900019af287,687ed1b7e638a4cbf2f02089,689d08ac8e85813c4053d4c1,,,,,,,,,,,,,26,1,,./stim/wavs/castilian_mismatch_interrogative-total-yn_La-nina-lava-el-plato.wav,,,,,,,,,,,,,,,,,,,,,,208.9577,211.0589,1,1,1.5829,,0,8,8,25,1,0,castilian,,,,,,,,,,,,,,,,,,,,,,,,,,,,,,,,,,,,,,,,,,,,,,,,,,,,,,,,
,,,,,,,,,,,click here to respond,click here to respond,click here to respond,2025-08-13_17h50.50.121,empathy_intonation_perc,2024.2.4,Win32,59.52380952,5aadcaf1e1546900019af287,687ed1b7e638a4cbf2f02089,689d08ac8e85813c4053d4c1,,,,,,,,,,,,,5,1,,./stim/wavs/castilian_match_interrogative-total-yn_Mariano-habla-del-tiempo.wav,,,,,,,,,,,,,,,,,,,,,,211.0593,213.306,1,1,1.7208,,0,9,9,4,1,0,castilian,,,,,,,,,,,,,,,,,,,,,,,,,,,,,,,,,,,,,,,,,,,,,,,,,,,,,,,,
,,,,,,,,,,,click here to respond,click here to respond,click here to respond,2025-08-13_17h50.50.121,empathy_intonation_perc,2024.2.4,Win32,59.52380952,5aadcaf1e1546900019af287,687ed1b7e638a4cbf2f02089,689d08ac8e85813c4053d4c1,,,,,,,,,,,,,6,1,,./stim/wavs/castilian_match_interrogative-total-yn_Marta-abre-el-regalo.wav,,,,,,,,,,,,,,,,,,,,,,213.3065,215.4593,1,1,1.6331,,0,10,10,5,1,0,castilian,,,,,,,,,,,,,,,,,,,,,,,,,,,,,,,,,,,,,,,,,,,,,,,,,,,,,,,,
,,,,,,,,,,,click here to respond,click here to respond,click here to respond,2025-08-13_17h50.50.121,empathy_intonation_perc,2024.2.4,Win32,59.52380952,5aadcaf1e1546900019af287,687ed1b7e638a4cbf2f02089,689d08ac8e85813c4053d4c1,,,,,,,,,,,,,69,0,,./stim/wavs/castilian_mismatch_declarative-broad-focus_El-nino-oye-el-rio.wav,,,,,,,,,,,,,,,,,,,,,,215.46,217.9225,0,1,1.9372,,0,11,11,68,1,0,castilian,,,,,,,,,,,,,,,,,,,,,,,,,,,,,,,,,,,,,,,,,,,,,,,,,,,,,,,,
,,,,,,,,,,,click here to respond,click here to respond,click here to respond,2025-08-13_17h50.50.121,empathy_intonation_perc,2024.2.4,Win32,59.52380952,5aadcaf1e1546900019af287,687ed1b7e638a4cbf2f02089,689d08ac8e85813c4053d4c1,,,,,,,,,,,,,85,0,,./stim/wavs/puertorican_mismatch_declarative-broad-focus_El-hombre-mira-la-luna.wav,,,,,,,,,,,,,,,,,,,,,,217.9231,219.9586,0,1,1.5161,,0,12,12,84,1,0,puertorican,,,,,,,,,,,,,,,,,,,,,,,,,,,,,,,,,,,,,,,,,,,,,,,,,,,,,,,,
,,,,,,,,,,,click here to respond,click here to respond,click here to respond,2025-08-13_17h50.50.121,empathy_intonation_perc,2024.2.4,Win32,59.52380952,5aadcaf1e1546900019af287,687ed1b7e638a4cbf2f02089,689d08ac8e85813c4053d4c1,,,,,,,,,,,,,47,0,,./stim/wavs/castilian_match_declarative-broad-focus_Manuela-vende-el-carro.wav,,,,,,,,,,,,,,,,,,,,,,219.9596,222.2055,0,1,1.71,,0,13,13,46,1,0,castilian,,,,,,,,,,,,,,,,,,,,,,,,,,,,,,,,,,,,,,,,,,,,,,,,,,,,,,,,
,,,,,,,,,,,click here to respond,click here to respond,click here to respond,2025-08-13_17h50.50.121,empathy_intonation_perc,2024.2.4,Win32,59.52380952,5aadcaf1e1546900019af287,687ed1b7e638a4cbf2f02089,689d08ac8e85813c4053d4c1,,,,,,,,,,,,,84,0,,./stim/wavs/puertorican_mismatch_declarative-broad-focus_El-bebe-comia-muy-bien.wav,,,,,,,,,,,,,,,,,,,,,,222.2064,224.7228,0,1,1.9959,,0,14,14,83,1,0,puertorican,,,,,,,,,,,,,,,,,,,,,,,,,,,,,,,,,,,,,,,,,,,,,,,,,,,,,,,,
,,,,,,,,,,,click here to respond,click here to respond,click here to respond,2025-08-13_17h50.50.121,empathy_intonation_perc,2024.2.4,Win32,59.52380952,5aadcaf1e1546900019af287,687ed1b7e638a4cbf2f02089,689d08ac8e85813c4053d4c1,,,,,,,,,,,,,77,0,,./stim/wavs/cuban_mismatch_declarative-broad-focus_Mi-novio-viene-del-lago.wav,,,,,,,,,,,,,,,,,,,,,,224.7246,227.0886,0,1,1.824,,0,15,15,76,1,0,cuban,,,,,,,,,,,,,,,,,,,,,,,,,,,,,,,,,,,,,,,,,,,,,,,,,,,,,,,,
,,,,,,,,,,,click here to respond,click here to respond,click here to respond,2025-08-13_17h50.50.121,empathy_intonation_perc,2024.2.4,Win32,59.52380952,5aadcaf1e1546900019af287,687ed1b7e638a4cbf2f02089,689d08ac8e85813c4053d4c1,,,,,,,,,,,,,36,1,,./stim/wavs/mexican_mismatch_interrogative-total-yn_El-nino-oye-el-rio.wav,,,,,,,,,,,,,,,,,,,,,,227.0893,229.0579,1,1,1.4489,,0,16,16,35,1,0,mexican,,,,,,,,,,,,,,,,,,,,,,,,,,,,,,,,,,,,,,,,,,,,,,,,,,,,,,,,
,,,,,,,,,,,click here to respond,click here to respond,click here to respond,2025-08-13_17h50.50.121,empathy_intonation_perc,2024.2.4,Win32,59.52380952,5aadcaf1e1546900019af287,687ed1b7e638a4cbf2f02089,689d08ac8e85813c4053d4c1,,,,,,,,,,,,,39,1,,./stim/wavs/mexican_mismatch_interrogative-total-yn_Mi-tia-odia-la-lluvia.wav,,,,,,,,,,,,,,,,,,,,,,229.0582,231.1887,1,1,1.603,,0,17,17,38,1,0,mexican,,,,,,,,,,,,,,,,,,,,,,,,,,,,,,,,,,,,,,,,,,,,,,,,,,,,,,,,
,,,,,,,,,,,click here to respond,click here to respond,click here to respond,2025-08-13_17h50.50.121,empathy_intonation_perc,2024.2.4,Win32,59.52380952,5aadcaf1e1546900019af287,687ed1b7e638a4cbf2f02089,689d08ac8e85813c4053d4c1,,,,,,,,,,,,,61,0,,./stim/wavs/mexican_match_declarative-broad-focus_Mariano-habla-del-tiempo.wav,,,,,,,,,,,,,,,,,,,,,,231.1895,233.305,0,1,1.5889,,0,18,18,60,1,0,mexican,,,,,,,,,,,,,,,,,,,,,,,,,,,,,,,,,,,,,,,,,,,,,,,,,,,,,,,,
,,,,,,,,,,,click here to respond,click here to respond,click here to respond,2025-08-13_17h50.50.121,empathy_intonation_perc,2024.2.4,Win32,59.52380952,5aadcaf1e1546900019af287,687ed1b7e638a4cbf2f02089,689d08ac8e85813c4053d4c1,,,,,,,,,,,,,1,1,,./stim/wavs/castilian_match_interrogative-total-yn_David-leia-el-libro.wav,,,,,,,,,,,,,,,,,,,,,,233.3058,235.4551,1,1,1.639,,0,19,19,0,1,0,castilian,,,,,,,,,,,,,,,,,,,,,,,,,,,,,,,,,,,,,,,,,,,,,,,,,,,,,,,,
,,,,,,,,,,,click here to respond,click here to respond,click here to respond,2025-08-13_17h50.50.121,empathy_intonation_perc,2024.2.4,Win32,59.52380952,5aadcaf1e1546900019af287,687ed1b7e638a4cbf2f02089,689d08ac8e85813c4053d4c1,,,,,,,,,,,,,10,1,,./stim/wavs/cuban_match_interrogative-total-yn_Maria-bebe-el-vino.wav,,,,,,,,,,,,,,,,,,,,,,235.456,237.688,0,0,1.7061,,0,20,20,9,1,1,cuban,,,,,,,,,,,,,,,,,,,,,,,,,,,,,,,,,,,,,,,,,,,,,,,,,,,,,,,,
,,,,,,,,,,,click here to respond,click here to respond,click here to respond,2025-08-13_17h50.50.121,empathy_intonation_perc,2024.2.4,Win32,59.52380952,5aadcaf1e1546900019af287,687ed1b7e638a4cbf2f02089,689d08ac8e85813c4053d4c1,,,,,,,,,,,,,15,1,,./stim/wavs/mexican_match_interrogative-total-yn_David-leia-el-libro.wav,,,,,,,,,,,,,,,,,,,,,,237.6885,239.907,1,1,1.699,,0,21,21,14,1,0,mexican,,,,,,,,,,,,,,,,,,,,,,,,,,,,,,,,,,,,,,,,,,,,,,,,,,,,,,,,
,,,,,,,,,,,click here to respond,click here to respond,click here to respond,2025-08-13_17h50.50.121,empathy_intonation_perc,2024.2.4,Win32,59.52380952,5aadcaf1e1546900019af287,687ed1b7e638a4cbf2f02089,689d08ac8e85813c4053d4c1,,,,,,,,,,,,,57,0,,./stim/wavs/mexican_match_declarative-broad-focus_Ana-lleva-el-abrigo.wav,,,,,,,,,,,,,,,,,,,,,,239.9076,242.0584,0,1,1.6314,,0,22,22,56,1,0,mexican,,,,,,,,,,,,,,,,,,,,,,,,,,,,,,,,,,,,,,,,,,,,,,,,,,,,,,,,
,,,,,,,,,,,click here to respond,click here to respond,click here to respond,2025-08-13_17h50.50.121,empathy_intonation_perc,2024.2.4,Win32,59.52380952,5aadcaf1e1546900019af287,687ed1b7e638a4cbf2f02089,689d08ac8e85813c4053d4c1,,,,,,,,,,,,,60,0,,./stim/wavs/mexican_match_declarative-broad-focus_Emilio-ama-la-marcha.wav,,,,,,,,,,,,,,,,,,,,,,242.0592,244.221,0,1,1.6406,,0,23,23,59,1,0,mexican,,,,,,,,,,,,,,,,,,,,,,,,,,,,,,,,,,,,,,,,,,,,,,,,,,,,,,,,
,,,,,,,,,,,click here to respond,click here to respond,click here to respond,2025-08-13_17h50.50.121,empathy_intonation_perc,2024.2.4,Win32,59.52380952,5aadcaf1e1546900019af287,687ed1b7e638a4cbf2f02089,689d08ac8e85813c4053d4c1,,,,,,,,,,,,,81,0,,./stim/wavs/mexican_mismatch_declarative-broad-focus_La-maestra-vive-en-Paris.wav,,,,,,,,,,,,,,,,,,,,,,244.2217,246.3738,0,1,1.6332,,0,24,24,80,1,0,mexican,,,,,,,,,,,,,,,,,,,,,,,,,,,,,,,,,,,,,,,,,,,,,,,,,,,,,,,,
,,,,,,,,,,,click here to respond,click here to respond,click here to respond,2025-08-13_17h50.50.121,empathy_intonation_perc,2024.2.4,Win32,59.52380952,5aadcaf1e1546900019af287,687ed1b7e638a4cbf2f02089,689d08ac8e85813c4053d4c1,,,,,,,,,,,,,71,0,,./stim/wavs/castilian_mismatch_declarative-broad-focus_La-nina-lava-el-plato.wav,,,,,,,,,,,,,,,,,,,,,,246.3747,248.688,0,1,1.7833,,0,25,25,70,1,0,castilian,,,,,,,,,,,,,,,,,,,,,,,,,,,,,,,,,,,,,,,,,,,,,,,,,,,,,,,,
,,,,,,,,,,,click here to respond,click here to respond,click here to respond,2025-08-13_17h50.50.121,empathy_intonation_perc,2024.2.4,Win32,59.52380952,5aadcaf1e1546900019af287,687ed1b7e638a4cbf2f02089,689d08ac8e85813c4053d4c1,,,,,,,,,,,,,49,0,,./stim/wavs/castilian_match_declarative-broad-focus_Mariano-habla-del-tiempo.wav,,,,,,,,,,,,,,,,,,,,,,248.6887,250.704,0,1,1.4827,,0,26,26,48,1,0,castilian,,,,,,,,,,,,,,,,,,,,,,,,,,,,,,,,,,,,,,,,,,,,,,,,,,,,,,,,
,,,,,,,,,,,click here to respond,click here to respond,click here to respond,2025-08-13_17h50.50.121,empathy_intonation_perc,2024.2.4,Win32,59.52380952,5aadcaf1e1546900019af287,687ed1b7e638a4cbf2f02089,689d08ac8e85813c4053d4c1,,,,,,,,,,,,,72,0,,./stim/wavs/castilian_mismatch_declarative-broad-focus_Mi-novio-viene-del-lago.wav,,,,,,,,,,,,,,,,,,,,,,250.7044,252.954,0,1,1.7226,,0,27,27,71,1,0,castilian,,,,,,,,,,,,,,,,,,,,,,,,,,,,,,,,,,,,,,,,,,,,,,,,,,,,,,,,
,,,,,,,,,,,click here to respond,click here to respond,click here to respond,2025-08-13_17h50.50.121,empathy_intonation_perc,2024.2.4,Win32,59.52380952,5aadcaf1e1546900019af287,687ed1b7e638a4cbf2f02089,689d08ac8e85813c4053d4c1,,,,,,,,,,,,,88,0,,./stim/wavs/puertorican_mismatch_declarative-broad-focus_La-nina-lava-el-plato.wav,,,,,,,,,,,,,,,,,,,,,,252.9547,254.9872,0,1,1.5033,,0,28,28,87,1,0,puertorican,,,,,,,,,,,,,,,,,,,,,,,,,,,,,,,,,,,,,,,,,,,,,,,,,,,,,,,,
,,,,,,,,,,,click here to respond,click here to respond,click here to respond,2025-08-13_17h50.50.121,empathy_intonation_perc,2024.2.4,Win32,59.52380952,5aadcaf1e1546900019af287,687ed1b7e638a4cbf2f02089,689d08ac8e85813c4053d4c1,,,,,,,,,,,,,83,0,,./stim/wavs/mexican_mismatch_declarative-broad-focus_Mi-tia-odia-la-lluvia.wav,,,,,,,,,,,,,,,,,,,,,,254.9879,257.5373,0,1,2.0144,,0,29,29,82,1,0,mexican,,,,,,,,,,,,,,,,,,,,,,,,,,,,,,,,,,,,,,,,,,,,,,,,,,,,,,,,
,,,,,,,,,,,click here to respond,click here to respond,click here to respond,2025-08-13_17h50.50.121,empathy_intonation_perc,2024.2.4,Win32,59.52380952,5aadcaf1e1546900019af287,687ed1b7e638a4cbf2f02089,689d08ac8e85813c4053d4c1,,,,,,,,,,,,,70,0,,./stim/wavs/castilian_mismatch_declarative-broad-focus_La-maestra-vive-en-Paris.wav,,,,,,,,,,,,,,,,,,,,,,257.538,260.0717,0,1,2.009,,0,30,30,69,1,0,castilian,,,,,,,,,,,,,,,,,,,,,,,,,,,,,,,,,,,,,,,,,,,,,,,,,,,,,,,,
,,,,,,,,,,,click here to respond,click here to respond,click here to respond,2025-08-13_17h50.50.121,empathy_intonation_perc,2024.2.4,Win32,59.52380952,5aadcaf1e1546900019af287,687ed1b7e638a4cbf2f02089,689d08ac8e85813c4053d4c1,,,,,,,,,,,,,16,1,,./stim/wavs/mexican_match_interrogative-total-yn_Emilio-ama-la-marcha.wav,,,,,,,,,,,,,,,,,,,,,,260.0726,262.3867,1,1,1.7954,,0,31,31,15,1,0,mexican,,,,,,,,,,,,,,,,,,,,,,,,,,,,,,,,,,,,,,,,,,,,,,,,,,,,,,,,
,,,,,,,,,,,click here to respond,click here to respond,click here to respond,2025-08-13_17h50.50.121,empathy_intonation_perc,2024.2.4,Win32,59.52380952,5aadcaf1e1546900019af287,687ed1b7e638a4cbf2f02089,689d08ac8e85813c4053d4c1,,,,,,,,,,,,,24,1,,./stim/wavs/puertorican_match_interrogative-total-yn_Maria-bebe-el-vino.wav,,,,,,,,,,,,,,,,,,,,,,262.3877,264.3404,0,0,1.4332,,0,32,32,23,1,1,puertorican,,,,,,,,,,,,,,,,,,,,,,,,,,,,,,,,,,,,,,,,,,,,,,,,,,,,,,,,
,,,,,,,,,,,click here to respond,click here to respond,click here to respond,2025-08-13_17h50.50.121,empathy_intonation_perc,2024.2.4,Win32,59.52380952,5aadcaf1e1546900019af287,687ed1b7e638a4cbf2f02089,689d08ac8e85813c4053d4c1,,,,,,,,,,,,,51,0,,./stim/wavs/cuban_match_declarative-broad-focus_Ana-lleva-el-abrigo.wav,,,,,,,,,,,,,,,,,,,,,,264.3411,266.4532,0,1,1.5686,,0,33,33,50,1,0,cuban,,,,,,,,,,,,,,,,,,,,,,,,,,,,,,,,,,,,,,,,,,,,,,,,,,,,,,,,
,,,,,,,,,,,click here to respond,click here to respond,click here to respond,2025-08-13_17h50.50.121,empathy_intonation_perc,2024.2.4,Win32,59.52380952,5aadcaf1e1546900019af287,687ed1b7e638a4cbf2f02089,689d08ac8e85813c4053d4c1,,,,,,,,,,,,,12,1,,./stim/wavs/cuban_match_interrogative-total-yn_Marta-abre-el-regalo.wav,,,,,,,,,,,,,,,,,,,,,,266.455,270.1384,0,0,3.1651,,0,34,34,11,1,1,cuban,,,,,,,,,,,,,,,,,,,,,,,,,,,,,,,,,,,,,,,,,,,,,,,,,,,,,,,,
,,,,,,,,,,,click here to respond,click here to respond,click here to respond,2025-08-13_17h50.50.121,empathy_intonation_perc,2024.2.4,Win32,59.52380952,5aadcaf1e1546900019af287,687ed1b7e638a4cbf2f02089,689d08ac8e85813c4053d4c1,,,,,,,,,,,,,74,0,,./stim/wavs/cuban_mismatch_declarative-broad-focus_El-bebe-comia-muy-bien.wav,,,,,,,,,,,,,,,,,,,,,,270.1395,272.4862,0,1,1.8245,,0,35,35,73,1,0,cuban,,,,,,,,,,,,,,,,,,,,,,,,,,,,,,,,,,,,,,,,,,,,,,,,,,,,,,,,
,,,,,,,,,,,click here to respond,click here to respond,click here to respond,2025-08-13_17h50.50.121,empathy_intonation_perc,2024.2.4,Win32,59.52380952,5aadcaf1e1546900019af287,687ed1b7e638a4cbf2f02089,689d08ac8e85813c4053d4c1,,,,,,,,,,,,,66,0,,./stim/wavs/puertorican_match_declarative-broad-focus_Emilio-ama-la-marcha.wav,,,,,,,,,,,,,,,,,,,,,,272.487,274.9702,0,1,1.9639,,0,36,36,65,1,0,puertorican,,,,,,,,,,,,,,,,,,,,,,,,,,,,,,,,,,,,,,,,,,,,,,,,,,,,,,,,
,,,,,,,,,,,click here to respond,click here to respond,click here to respond,2025-08-13_17h50.50.121,empathy_intonation_perc,2024.2.4,Win32,59.52380952,5aadcaf1e1546900019af287,687ed1b7e638a4cbf2f02089,689d08ac8e85813c4053d4c1,,,,,,,,,,,,,82,0,,./stim/wavs/mexican_mismatch_declarative-broad-focus_Mi-novio-viene-del-lago.wav,,,,,,,,,,,,,,,,,,,,,,274.9711,278.0862,0,1,2.5851,,0,37,37,81,1,0,mexican,,,,,,,,,,,,,,,,,,,,,,,,,,,,,,,,,,,,,,,,,,,,,,,,,,,,,,,,
,,,,,,,,,,,click here to respond,click here to respond,click here to respond,2025-08-13_17h50.50.121,empathy_intonation_perc,2024.2.4,Win32,59.52380952,5aadcaf1e1546900019af287,687ed1b7e638a4cbf2f02089,689d08ac8e85813c4053d4c1,,,,,,,,,,,,,27,1,,./stim/wavs/castilian_mismatch_interrogative-total-yn_Mi-madre-come-la-fruta.wav,,,,,,,,,,,,,,,,,,,,,,278.087,280.7359,0,0,2.1247,,0,38,38,26,1,0,castilian,,,,,,,,,,,,,,,,,,,,,,,,,,,,,,,,,,,,,,,,,,,,,,,,,,,,,,,,
,,,,,,,,,,,click here to respond,click here to respond,click here to respond,2025-08-13_17h50.50.121,empathy_intonation_perc,2024.2.4,Win32,59.52380952,5aadcaf1e1546900019af287,687ed1b7e638a4cbf2f02089,689d08ac8e85813c4053d4c1,,,,,,,,,,,,,80,0,,./stim/wavs/mexican_mismatch_declarative-broad-focus_El-hombre-mira-la-luna.wav,,,,,,,,,,,,,,,,,,,,,,280.7367,284.4858,0,1,3.2261,,0,39,39,79,1,0,mexican,,,,,,,,,,,,,,,,,,,,,,,,,,,,,,,,,,,,,,,,,,,,,,,,,,,,,,,,
,,,,,,,,,,,click here to respond,click here to respond,click here to respond,2025-08-13_17h50.50.121,empathy_intonation_perc,2024.2.4,Win32,59.52380952,5aadcaf1e1546900019af287,687ed1b7e638a4cbf2f02089,689d08ac8e85813c4053d4c1,,,,,,,,,,,,,58,0,,./stim/wavs/mexican_match_declarative-broad-focus_Daniel-iba-a-Bolivia.wav,,,,,,,,,,,,,,,,,,,,,,284.4868,287.7857,0,1,2.7672,,0,40,40,57,1,0,mexican,,,,,,,,,,,,,,,,,,,,,,,,,,,,,,,,,,,,,,,,,,,,,,,,,,,,,,,,
,,,,,,,,,,,click here to respond,click here to respond,click here to respond,2025-08-13_17h50.50.121,empathy_intonation_perc,2024.2.4,Win32,59.52380952,5aadcaf1e1546900019af287,687ed1b7e638a4cbf2f02089,689d08ac8e85813c4053d4c1,,,,,,,,,,,,,22,1,,./stim/wavs/puertorican_match_interrogative-total-yn_Emilio-ama-la-marcha.wav,,,,,,,,,,,,,,,,,,,,,,287.7864,289.9689,0,0,1.6627,,0,41,41,21,1,1,puertorican,,,,,,,,,,,,,,,,,,,,,,,,,,,,,,,,,,,,,,,,,,,,,,,,,,,,,,,,
,,,,,,,,,,,click here to respond,click here to respond,click here to respond,2025-08-13_17h50.50.121,empathy_intonation_perc,2024.2.4,Win32,59.52380952,5aadcaf1e1546900019af287,687ed1b7e638a4cbf2f02089,689d08ac8e85813c4053d4c1,,,,,,,,,,,,,25,1,,./stim/wavs/castilian_mismatch_interrogative-total-yn_La-maestra-vive-en-Paris.wav,,,,,,,,,,,,,,,,,,,,,,289.9695,292.6853,0,0,2.1919,,0,42,42,24,1,0,castilian,,,,,,,,,,,,,,,,,,,,,,,,,,,,,,,,,,,,,,,,,,,,,,,,,,,,,,,,
,,,,,,,,,,,click here to respond,click here to respond,click here to respond,2025-08-13_17h50.50.121,empathy_intonation_perc,2024.2.4,Win32,59.52380952,5aadcaf1e1546900019af287,687ed1b7e638a4cbf2f02089,689d08ac8e85813c4053d4c1,,,,,,,,,,,,,14,1,,./stim/wavs/mexican_match_interrogative-total-yn_Daniel-iba-a-Bolivia.wav,,,,,,,,,,,,,,,,,,,,,,292.6861,295.0684,0,0,1.8599,,0,43,43,13,1,0,mexican,,,,,,,,,,,,,,,,,,,,,,,,,,,,,,,,,,,,,,,,,,,,,,,,,,,,,,,,
,,,,,,,,,,,click here to respond,click here to respond,click here to respond,2025-08-13_17h50.50.121,empathy_intonation_perc,2024.2.4,Win32,59.52380952,5aadcaf1e1546900019af287,687ed1b7e638a4cbf2f02089,689d08ac8e85813c4053d4c1,,,,,,,,,,,,,7,1,,./stim/wavs/cuban_match_interrogative-total-yn_Ana-lleva-el-abrigo.wav,,,,,,,,,,,,,,,,,,,,,,295.0693,296.9351,0,0,1.3337,,0,44,44,6,1,1,cuban,,,,,,,,,,,,,,,,,,,,,,,,,,,,,,,,,,,,,,,,,,,,,,,,,,,,,,,,
,,,,,,,,,,,click here to respond,click here to respond,click here to respond,2025-08-13_17h50.50.121,empathy_intonation_perc,2024.2.4,Win32,59.52380952,5aadcaf1e1546900019af287,687ed1b7e638a4cbf2f02089,689d08ac8e85813c4053d4c1,,,,,,,,,,,,,68,0,,./stim/wavs/puertorican_match_declarative-broad-focus_Maria-bebe-el-vino.wav,,,,,,,,,,,,,,,,,,,,,,296.936,298.835,0,1,1.3696,,0,45,45,67,1,0,puertorican,,,,,,,,,,,,,,,,,,,,,,,,,,,,,,,,,,,,,,,,,,,,,,,,,,,,,,,,
,,,,,,,,,,,click here to respond,click here to respond,click here to respond,2025-08-13_17h50.50.121,empathy_intonation_perc,2024.2.4,Win32,59.52380952,5aadcaf1e1546900019af287,687ed1b7e638a4cbf2f02089,689d08ac8e85813c4053d4c1,,,,,,,,,,,,,64,0,,./stim/wavs/puertorican_match_declarative-broad-focus_Daniel-iba-a-Bolivia.wav,,,,,,,,,,,,,,,,,,,,,,298.8358,301.3681,0,1,2.0008,,0,46,46,63,1,0,puertorican,,,,,,,,,,,,,,,,,,,,,,,,,,,,,,,,,,,,,,,,,,,,,,,,,,,,,,,,
,,,,,,,,,,,click here to respond,click here to respond,click here to respond,2025-08-13_17h50.50.121,empathy_intonation_perc,2024.2.4,Win32,59.52380952,5aadcaf1e1546900019af287,687ed1b7e638a4cbf2f02089,689d08ac8e85813c4053d4c1,,,,,,,,,,,,,28,1,,./stim/wavs/castilian_mismatch_interrogative-total-yn_Mi-novio-viene-del-lago.wav,,,,,,,,,,,,,,,,,,,,,,301.3688,303.9012,1,1,2.0012,,0,47,47,27,1,0,castilian,,,,,,,,,,,,,,,,,,,,,,,,,,,,,,,,,,,,,,,,,,,,,,,,,,,,,,,,
,,,,,,,,,,,click here to respond,click here to respond,click here to respond,2025-08-13_17h50.50.121,empathy_intonation_perc,2024.2.4,Win32,59.52380952,5aadcaf1e1546900019af287,687ed1b7e638a4cbf2f02089,689d08ac8e85813c4053d4c1,,,,,,,,,,,,,67,0,,./stim/wavs/puertorican_match_declarative-broad-focus_Manuela-vende-el-carro.wav,,,,,,,,,,,,,,,,,,,,,,303.9021,306.4039,0,1,1.9827,,0,48,48,66,1,0,puertorican,,,,,,,,,,,,,,,,,,,,,,,,,,,,,,,,,,,,,,,,,,,,,,,,,,,,,,,,
,,,,,,,,,,,click here to respond,click here to respond,click here to respond,2025-08-13_17h50.50.121,empathy_intonation_perc,2024.2.4,Win32,59.52380952,5aadcaf1e1546900019af287,687ed1b7e638a4cbf2f02089,689d08ac8e85813c4053d4c1,,,,,,,,,,,,,37,1,,./stim/wavs/mexican_mismatch_interrogative-total-yn_La-maestra-vive-en-Paris.wav,,,,,,,,,,,,,,,,,,,,,,306.4044,309.7343,0,0,2.8082,,0,49,49,36,1,0,mexican,,,,,,,,,,,,,,,,,,,,,,,,,,,,,,,,,,,,,,,,,,,,,,,,,,,,,,,,
,,,,,,,,,,,click here to respond,click here to respond,click here to respond,2025-08-13_17h50.50.121,empathy_intonation_perc,2024.2.4,Win32,59.52380952,5aadcaf1e1546900019af287,687ed1b7e638a4cbf2f02089,689d08ac8e85813c4053d4c1,,,,,,,,,,,,,9,1,,./stim/wavs/cuban_match_interrogative-total-yn_Manuela-vende-el-carro.wav,,,,,,,,,,,,,,,,,,,,,,309.7349,312.0342,0,0,1.7712,,0,50,50,8,1,1,cuban,,,,,,,,,,,,,,,,,,,,,,,,,,,,,,,,,,,,,,,,,,,,,,,,,,,,,,,,
,,,,,,,,,,,click here to respond,click here to respond,click here to respond,2025-08-13_17h50.50.121,empathy_intonation_perc,2024.2.4,Win32,59.52380952,5aadcaf1e1546900019af287,687ed1b7e638a4cbf2f02089,689d08ac8e85813c4053d4c1,,,,,,,,,,,,,78,0,,./stim/wavs/cuban_mismatch_declarative-broad-focus_Mi-tia-odia-la-lluvia.wav,,,,,,,,,,,,,,,,,,,,,,312.0346,316.0674,0,1,3.5084,,0,51,51,77,1,0,cuban,,,,,,,,,,,,,,,,,,,,,,,,,,,,,,,,,,,,,,,,,,,,,,,,,,,,,,,,
,,,,,,,,,,,click here to respond,click here to respond,click here to respond,2025-08-13_17h50.50.121,empathy_intonation_perc,2024.2.4,Win32,59.52380952,5aadcaf1e1546900019af287,687ed1b7e638a4cbf2f02089,689d08ac8e85813c4053d4c1,,,,,,,,,,,,,3,1,,./stim/wavs/castilian_match_interrogative-total-yn_Manuela-vende-el-carro.wav,,,,,,,,,,,,,,,,,,,,,,316.068,319.0677,0,0,2.4622,,0,52,52,2,1,0,castilian,,,,,,,,,,,,,,,,,,,,,,,,,,,,,,,,,,,,,,,,,,,,,,,,,,,,,,,,
,,,,,,,,,,,click here to respond,click here to respond,click here to respond,2025-08-13_17h50.50.121,empathy_intonation_perc,2024.2.4,Win32,59.52380952,5aadcaf1e1546900019af287,687ed1b7e638a4cbf2f02089,689d08ac8e85813c4053d4c1,,,,,,,,,,,,,62,0,,./stim/wavs/mexican_match_declarative-broad-focus_Marta-abre-el-regalo.wav,,,,,,,,,,,,,,,,,,,,,,319.0687,321.1008,0,1,1.5019,,0,53,53,61,1,0,mexican,,,,,,,,,,,,,,,,,,,,,,,,,,,,,,,,,,,,,,,,,,,,,,,,,,,,,,,,
,,,,,,,,,,,click here to respond,click here to respond,click here to respond,2025-08-13_17h50.50.121,empathy_intonation_perc,2024.2.4,Win32,59.52380952,5aadcaf1e1546900019af287,687ed1b7e638a4cbf2f02089,689d08ac8e85813c4053d4c1,,,,,,,,,,,,,13,1,,./stim/wavs/mexican_match_interrogative-total-yn_Ana-lleva-el-abrigo.wav,,,,,,,,,,,,,,,,,,,,,,321.1015,323.067,1,1,1.4365,,0,54,54,12,1,0,mexican,,,,,,,,,,,,,,,,,,,,,,,,,,,,,,,,,,,,,,,,,,,,,,,,,,,,,,,,
,,,,,,,,,,,click here to respond,click here to respond,click here to respond,2025-08-13_17h50.50.121,empathy_intonation_perc,2024.2.4,Win32,59.52380952,5aadcaf1e1546900019af287,687ed1b7e638a4cbf2f02089,689d08ac8e85813c4053d4c1,,,,,,,,,,,,,63,0,,./stim/wavs/puertorican_match_declarative-broad-focus_Ana-lleva-el-abrigo.wav,,,,,,,,,,,,,,,,,,,,,,323.0677,324.9669,0,1,1.3673,,0,55,55,62,1,0,puertorican,,,,,,,,,,,,,,,,,,,,,,,,,,,,,,,,,,,,,,,,,,,,,,,,,,,,,,,,
,,,,,,,,,,,click here to respond,click here to respond,click here to respond,2025-08-13_17h50.50.121,empathy_intonation_perc,2024.2.4,Win32,59.52380952,5aadcaf1e1546900019af287,687ed1b7e638a4cbf2f02089,689d08ac8e85813c4053d4c1,,,,,,,,,,,,,21,1,,./stim/wavs/puertorican_match_interrogative-total-yn_David-leia-el-libro.wav,,,,,,,,,,,,,,,,,,,,,,324.9676,326.8835,0,0,1.3791,,0,56,56,20,1,1,puertorican,,,,,,,,,,,,,,,,,,,,,,,,,,,,,,,,,,,,,,,,,,,,,,,,,,,,,,,,
,,,,,,,,,,,click here to respond,click here to respond,click here to respond,2025-08-13_17h50.50.121,empathy_intonation_perc,2024.2.4,Win32,59.52380952,5aadcaf1e1546900019af287,687ed1b7e638a4cbf2f02089,689d08ac8e85813c4053d4c1,,,,,,,,,,,,,34,1,,./stim/wavs/cuban_mismatch_interrogative-total-yn_Mi-tia-odia-la-lluvia.wav,,,,,,,,,,,,,,,,,,,,,,326.8845,329.1834,0,0,1.7808,,0,57,57,33,1,1,cuban,,,,,,,,,,,,,,,,,,,,,,,,,,,,,,,,,,,,,,,,,,,,,,,,,,,,,,,,
,,,,,,,,,,,click here to respond,click here to respond,click here to respond,2025-08-13_17h50.50.121,empathy_intonation_perc,2024.2.4,Win32,59.52380952,5aadcaf1e1546900019af287,687ed1b7e638a4cbf2f02089,689d08ac8e85813c4053d4c1,,,,,,,,,,,,,55,0,,./stim/wavs/cuban_match_declarative-broad-focus_Mariano-habla-del-tiempo.wav,,,,,,,,,,,,,,,,,,,,,,329.184,331.5164,0,1,1.8096,,0,58,58,54,1,0,cuban,,,,,,,,,,,,,,,,,,,,,,,,,,,,,,,,,,,,,,,,,,,,,,,,,,,,,,,,
,,,,,,,,,,,click here to respond,click here to respond,click here to respond,2025-08-13_17h50.50.121,empathy_intonation_perc,2024.2.4,Win32,59.52380952,5aadcaf1e1546900019af287,687ed1b7e638a4cbf2f02089,689d08ac8e85813c4053d4c1,,,,,,,,,,,,,30,1,,./stim/wavs/cuban_mismatch_interrogative-total-yn_El-hombre-mira-la-luna.wav,,,,,,,,,,,,,,,,,,,,,,331.5167,334.3167,0,0,2.2706,,0,59,59,29,1,1,cuban,,,,,,,,,,,,,,,,,,,,,,,,,,,,,,,,,,,,,,,,,,,,,,,,,,,,,,,,
,,,,,,,,,,,click here to respond,click here to respond,click here to respond,2025-08-13_17h50.50.121,empathy_intonation_perc,2024.2.4,Win32,59.52380952,5aadcaf1e1546900019af287,687ed1b7e638a4cbf2f02089,689d08ac8e85813c4053d4c1,,,,,,,,,,,,,8,1,,./stim/wavs/cuban_match_interrogative-total-yn_Daniel-iba-a-Bolivia.wav,,,,,,,,,,,,,,,,,,,,,,334.3175,336.7334,0,0,1.8934,,0,60,60,7,1,1,cuban,,,,,,,,,,,,,,,,,,,,,,,,,,,,,,,,,,,,,,,,,,,,,,,,,,,,,,,,
,,,,,,,,,,,click here to respond,click here to respond,click here to respond,2025-08-13_17h50.50.121,empathy_intonation_perc,2024.2.4,Win32,59.52380952,5aadcaf1e1546900019af287,687ed1b7e638a4cbf2f02089,689d08ac8e85813c4053d4c1,,,,,,,,,,,,,18,1,,./stim/wavs/mexican_match_interrogative-total-yn_Marta-abre-el-regalo.wav,,,,,,,,,,,,,,,,,,,,,,336.7345,339.303,1,1,2.0331,,0,61,61,17,1,0,mexican,,,,,,,,,,,,,,,,,,,,,,,,,,,,,,,,,,,,,,,,,,,,,,,,,,,,,,,,
,,,,,,,,,,,click here to respond,click here to respond,click here to respond,2025-08-13_17h50.50.121,empathy_intonation_perc,2024.2.4,Win32,59.52380952,5aadcaf1e1546900019af287,687ed1b7e638a4cbf2f02089,689d08ac8e85813c4053d4c1,,,,,,,,,,,,,42,1,,./stim/wavs/puertorican_mismatch_interrogative-total-yn_La-maestra-vive-en-Paris.wav,,,,,,,,,,,,,,,,,,,,,,339.3039,342.0029,0,0,2.1801,,0,62,62,41,1,1,puertorican,,,,,,,,,,,,,,,,,,,,,,,,,,,,,,,,,,,,,,,,,,,,,,,,,,,,,,,,
,,,,,,,,,,,click here to respond,click here to respond,click here to respond,2025-08-13_17h50.50.121,empathy_intonation_perc,2024.2.4,Win32,59.52380952,5aadcaf1e1546900019af287,687ed1b7e638a4cbf2f02089,689d08ac8e85813c4053d4c1,,,,,,,,,,,,,35,1,,./stim/wavs/mexican_mismatch_interrogative-total-yn_El-hombre-mira-la-luna.wav,,,,,,,,,,,,,,,,,,,,,,342.0035,344.4519,1,1,1.9324,,0,63,63,34,1,0,mexican,,,,,,,,,,,,,,,,,,,,,,,,,,,,,,,,,,,,,,,,,,,,,,,,,,,,,,,,
,,,,,,,,,,,click here to respond,click here to respond,click here to respond,2025-08-13_17h50.50.121,empathy_intonation_perc,2024.2.4,Win32,59.52380952,5aadcaf1e1546900019af287,687ed1b7e638a4cbf2f02089,689d08ac8e85813c4053d4c1,,,,,,,,,,,,,56,0,,./stim/wavs/cuban_match_declarative-broad-focus_Marta-abre-el-regalo.wav,,,,,,,,,,,,,,,,,,,,,,344.4528,346.6167,0,1,1.6235,,0,64,64,55,1,0,cuban,,,,,,,,,,,,,,,,,,,,,,,,,,,,,,,,,,,,,,,,,,,,,,,,,,,,,,,,
,,,,,,,,,,,click here to respond,click here to respond,click here to respond,2025-08-13_17h50.50.121,empathy_intonation_perc,2024.2.4,Win32,59.52380952,5aadcaf1e1546900019af287,687ed1b7e638a4cbf2f02089,689d08ac8e85813c4053d4c1,,,,,,,,,,,,,48,0,,./stim/wavs/castilian_match_declarative-broad-focus_Maria-bebe-el-vino.wav,,,,,,,,,,,,,,,,,,,,,,346.6175,348.8329,0,1,1.6898,,0,65,65,47,1,0,castilian,,,,,,,,,,,,,,,,,,,,,,,,,,,,,,,,,,,,,,,,,,,,,,,,,,,,,,,,
,,,,,,,,,,,click here to respond,click here to respond,click here to respond,2025-08-13_17h50.50.121,empathy_intonation_perc,2024.2.4,Win32,59.52380952,5aadcaf1e1546900019af287,687ed1b7e638a4cbf2f02089,689d08ac8e85813c4053d4c1,,,,,,,,,,,,,11,1,,./stim/wavs/cuban_match_interrogative-total-yn_Mariano-habla-del-tiempo.wav,,,,,,,,,,,,,,,,,,,,,,348.8338,350.9863,0,0,1.6334,,0,66,66,10,1,1,cuban,,,,,,,,,,,,,,,,,,,,,,,,,,,,,,,,,,,,,,,,,,,,,,,,,,,,,,,,
,,,,,,,,,,,click here to respond,click here to respond,click here to respond,2025-08-13_17h50.50.121,empathy_intonation_perc,2024.2.4,Win32,59.52380952,5aadcaf1e1546900019af287,687ed1b7e638a4cbf2f02089,689d08ac8e85813c4053d4c1,,,,,,,,,,,,,79,0,,./stim/wavs/mexican_mismatch_declarative-broad-focus_El-bebe-comia-muy-bien.wav,,,,,,,,,,,,,,,,,,,,,,350.9871,354.0686,0,1,2.5505,,0,67,67,78,1,0,mexican,,,,,,,,,,,,,,,,,,,,,,,,,,,,,,,,,,,,,,,,,,,,,,,,,,,,,,,,
,,,,,,,,,,,click here to respond,click here to respond,click here to respond,2025-08-13_17h50.50.121,empathy_intonation_perc,2024.2.4,Win32,59.52380952,5aadcaf1e1546900019af287,687ed1b7e638a4cbf2f02089,689d08ac8e85813c4053d4c1,,,,,,,,,,,,,23,1,,./stim/wavs/puertorican_match_interrogative-total-yn_Manuela-vende-el-carro.wav,,,,,,,,,,,,,,,,,,,,,,354.0694,357.0517,0,0,2.4499,,0,68,68,22,1,1,puertorican,,,,,,,,,,,,,,,,,,,,,,,,,,,,,,,,,,,,,,,,,,,,,,,,,,,,,,,,
,,,,,,,,,,,click here to respond,click here to respond,click here to respond,2025-08-13_17h50.50.121,empathy_intonation_perc,2024.2.4,Win32,59.52380952,5aadcaf1e1546900019af287,687ed1b7e638a4cbf2f02089,689d08ac8e85813c4053d4c1,,,,,,,,,,,,,59,0,,./stim/wavs/mexican_match_declarative-broad-focus_David-leia-el-libro.wav,,,,,,,,,,,,,,,,,,,,,,357.0531,359.9846,0,1,2.4127,,0,69,69,58,1,0,mexican,,,,,,,,,,,,,,,,,,,,,,,,,,,,,,,,,,,,,,,,,,,,,,,,,,,,,,,,
,,,,,,,,,,,click here to respond,click here to respond,click here to respond,2025-08-13_17h50.50.121,empathy_intonation_perc,2024.2.4,Win32,59.52380952,5aadcaf1e1546900019af287,687ed1b7e638a4cbf2f02089,689d08ac8e85813c4053d4c1,,,,,,,,,,,,,20,1,,./stim/wavs/puertorican_match_interrogative-total-yn_Daniel-iba-a-Bolivia.wav,,,,,,,,,,,,,,,,,,,,,,359.9859,363.7484,0,0,3.22,,0,70,70,19,1,1,puertorican,,,,,,,,,,,,,,,,,,,,,,,,,,,,,,,,,,,,,,,,,,,,,,,,,,,,,,,,
,,,,,,,,,,,click here to respond,click here to respond,click here to respond,2025-08-13_17h50.50.121,empathy_intonation_perc,2024.2.4,Win32,59.52380952,5aadcaf1e1546900019af287,687ed1b7e638a4cbf2f02089,689d08ac8e85813c4053d4c1,,,,,,,,,,,,,4,1,,./stim/wavs/castilian_match_interrogative-total-yn_Maria-bebe-el-vino.wav,,,,,,,,,,,,,,,,,,,,,,363.7491,368.3313,0,0,4.0613,,0,71,71,3,1,0,castilian,,,,,,,,,,,,,,,,,,,,,,,,,,,,,,,,,,,,,,,,,,,,,,,,,,,,,,,,
,,,,,,,,,,,click here to respond,click here to respond,click here to respond,2025-08-13_17h50.50.121,empathy_intonation_perc,2024.2.4,Win32,59.52380952,5aadcaf1e1546900019af287,687ed1b7e638a4cbf2f02089,689d08ac8e85813c4053d4c1,,,,,,,,,,,,,76,0,,./stim/wavs/cuban_mismatch_declarative-broad-focus_La-nina-lava-el-plato.wav,,,,,,,,,,,,,,,,,,,,,,368.3324,370.6179,0,1,1.7661,,0,72,72,75,1,0,cuban,,,,,,,,,,,,,,,,,,,,,,,,,,,,,,,,,,,,,,,,,,,,,,,,,,,,,,,,
,,,,,,,,,,,click here to respond,click here to respond,click here to respond,2025-08-13_17h50.50.121,empathy_intonation_perc,2024.2.4,Win32,59.52380952,5aadcaf1e1546900019af287,687ed1b7e638a4cbf2f02089,689d08ac8e85813c4053d4c1,,,,,,,,,,,,,43,1,,./stim/wavs/puertorican_mismatch_interrogative-total-yn_La-nina-lava-el-plato.wav,,,,,,,,,,,,,,,,,,,,,,370.6187,372.7649,0,0,1.6235,,0,73,73,42,1,1,puertorican,,,,,,,,,,,,,,,,,,,,,,,,,,,,,,,,,,,,,,,,,,,,,,,,,,,,,,,,
,,,,,,,,,,,click here to respond,click here to respond,click here to respond,2025-08-13_17h50.50.121,empathy_intonation_perc,2024.2.4,Win32,59.52380952,5aadcaf1e1546900019af287,687ed1b7e638a4cbf2f02089,689d08ac8e85813c4053d4c1,,,,,,,,,,,,,40,1,,./stim/wavs/puertorican_mismatch_interrogative-total-yn_El-hombre-mira-la-luna.wav,,,,,,,,,,,,,,,,,,,,,,372.766,375.3,0,0,1.9998,,0,74,74,39,1,1,puertorican,,,,,,,,,,,,,,,,,,,,,,,,,,,,,,,,,,,,,,,,,,,,,,,,,,,,,,,,
,,,,,,,,,,,click here to respond,click here to respond,click here to respond,2025-08-13_17h50.50.121,empathy_intonation_perc,2024.2.4,Win32,59.52380952,5aadcaf1e1546900019af287,687ed1b7e638a4cbf2f02089,689d08ac8e85813c4053d4c1,,,,,,,,,,,,,41,1,,./stim/wavs/puertorican_mismatch_interrogative-total-yn_El-nino-oye-el-rio.wav,,,,,,,,,,,,,,,,,,,,,,375.3007,377.3665,0,0,1.5331,,0,75,75,40,1,1,puertorican,,,,,,,,,,,,,,,,,,,,,,,,,,,,,,,,,,,,,,,,,,,,,,,,,,,,,,,,
,,,,,,,,,,,click here to respond,click here to respond,click here to respond,2025-08-13_17h50.50.121,empathy_intonation_perc,2024.2.4,Win32,59.52380952,5aadcaf1e1546900019af287,687ed1b7e638a4cbf2f02089,689d08ac8e85813c4053d4c1,,,,,,,,,,,,,73,0,,./stim/wavs/castilian_mismatch_declarative-broad-focus_Mi-tia-odia-la-lluvia.wav,,,,,,,,,,,,,,,,,,,,,,377.3673,381.8808,0,1,3.9837,,0,76,76,72,1,0,castilian,,,,,,,,,,,,,,,,,,,,,,,,,,,,,,,,,,,,,,,,,,,,,,,,,,,,,,,,
,,,,,,,,,,,click here to respond,click here to respond,click here to respond,2025-08-13_17h50.50.121,empathy_intonation_perc,2024.2.4,Win32,59.52380952,5aadcaf1e1546900019af287,687ed1b7e638a4cbf2f02089,689d08ac8e85813c4053d4c1,,,,,,,,,,,,,75,0,,./stim/wavs/cuban_mismatch_declarative-broad-focus_El-hombre-mira-la-luna.wav,,,,,,,,,,,,,,,,,,,,,,381.8816,386.6976,0,1,4.2829,,0,77,77,74,1,0,cuban,,,,,,,,,,,,,,,,,,,,,,,,,,,,,,,,,,,,,,,,,,,,,,,,,,,,,,,,
,,,,,,,,,,,click here to respond,click here to respond,click here to respond,2025-08-13_17h50.50.121,empathy_intonation_perc,2024.2.4,Win32,59.52380952,5aadcaf1e1546900019af287,687ed1b7e638a4cbf2f02089,689d08ac8e85813c4053d4c1,,,,,,,,,,,,,50,0,,./stim/wavs/castilian_match_declarative-broad-focus_Marta-abre-el-regalo.wav,,,,,,,,,,,,,,,,,,,,,,386.6982,392.5497,0,1,5.3322,,0,78,78,49,1,0,castilian,,,,,,,,,,,,,,,,,,,,,,,,,,,,,,,,,,,,,,,,,,,,,,,,,,,,,,,,
,,,,,,,,,,,click here to respond,click here to respond,click here to respond,2025-08-13_17h50.50.121,empathy_intonation_perc,2024.2.4,Win32,59.52380952,5aadcaf1e1546900019af287,687ed1b7e638a4cbf2f02089,689d08ac8e85813c4053d4c1,,,,,,,,,,,,,33,1,,./stim/wavs/cuban_mismatch_interrogative-total-yn_Mi-novio-viene-del-lago.wav,,,,,,,,,,,,,,,,,,,,,,392.5506,394.5966,0,0,1.5267,,0,79,79,32,1,1,cuban,,,,,,,,,,,,,,,,,,,,,,,,,,,,,,,,,,,,,,,,,,,,,,,,,,,,,,,,
,,,,,,,,,,,click here to respond,click here to respond,click here to respond,2025-08-13_17h50.50.121,empathy_intonation_perc,2024.2.4,Win32,59.52380952,5aadcaf1e1546900019af287,687ed1b7e638a4cbf2f02089,689d08ac8e85813c4053d4c1,,,,,,,,,,,,,46,0,,./stim/wavs/castilian_match_declarative-broad-focus_Emilio-ama-la-marcha.wav,,,,,,,,,,,,,,,,,,,,,,394.5972,397.0165,0,1,1.8996,,0,80,80,45,1,0,castilian,,,,,,,,,,,,,,,,,,,,,,,,,,,,,,,,,,,,,,,,,,,,,,,,,,,,,,,,
,,,,,,,,,,,click here to respond,click here to respond,click here to respond,2025-08-13_17h50.50.121,empathy_intonation_perc,2024.2.4,Win32,59.52380952,5aadcaf1e1546900019af287,687ed1b7e638a4cbf2f02089,689d08ac8e85813c4053d4c1,,,,,,,,,,,,,87,0,,./stim/wavs/puertorican_mismatch_declarative-broad-focus_La-maestra-vive-en-Paris.wav,,,,,,,,,,,,,,,,,,,,,,397.0178,399.2963,0,1,1.7341,,0,81,81,86,1,0,puertorican,,,,,,,,,,,,,,,,,,,,,,,,,,,,,,,,,,,,,,,,,,,,,,,,,,,,,,,,
,,,,,,,,,,,click here to respond,click here to respond,click here to respond,2025-08-13_17h50.50.121,empathy_intonation_perc,2024.2.4,Win32,59.52380952,5aadcaf1e1546900019af287,687ed1b7e638a4cbf2f02089,689d08ac8e85813c4053d4c1,,,,,,,,,,,,,53,0,,./stim/wavs/cuban_match_declarative-broad-focus_Manuela-vende-el-carro.wav,,,,,,,,,,,,,,,,,,,,,,399.297,401.7465,0,1,1.9351,,0,82,82,52,1,0,cuban,,,,,,,,,,,,,,,,,,,,,,,,,,,,,,,,,,,,,,,,,,,,,,,,,,,,,,,,
,,,,,,,,,,,click here to respond,click here to respond,click here to respond,2025-08-13_17h50.50.121,empathy_intonation_perc,2024.2.4,Win32,59.52380952,5aadcaf1e1546900019af287,687ed1b7e638a4cbf2f02089,689d08ac8e85813c4053d4c1,,,,,,,,,,,,,2,1,,./stim/wavs/castilian_match_interrogative-total-yn_Emilio-ama-la-marcha.wav,,,,,,,,,,,,,,,,,,,,,,401.7475,403.7462,1,1,1.4853,,0,83,83,1,1,0,castilian,,,,,,,,,,,,,,,,,,,,,,,,,,,,,,,,,,,,,,,,,,,,,,,,,,,,,,,,
,,,,,,,,,,,click here to respond,click here to respond,click here to respond,2025-08-13_17h50.50.121,empathy_intonation_perc,2024.2.4,Win32,59.52380952,5aadcaf1e1546900019af287,687ed1b7e638a4cbf2f02089,689d08ac8e85813c4053d4c1,,,,,,,,,,,,,32,1,,./stim/wavs/cuban_mismatch_interrogative-total-yn_Mi-madre-come-la-fruta.wav,,,,,,,,,,,,,,,,,,,,,,403.747,407.1487,1,1,2.8826,,0,84,84,31,1,1,cuban,,,,,,,,,,,,,,,,,,,,,,,,,,,,,,,,,,,,,,,,,,,,,,,,,,,,,,,,
,,,,,,,,,,,click here to respond,click here to respond,click here to respond,2025-08-13_17h50.50.121,empathy_intonation_perc,2024.2.4,Win32,59.52380952,5aadcaf1e1546900019af287,687ed1b7e638a4cbf2f02089,689d08ac8e85813c4053d4c1,,,,,,,,,,,,,44,1,,./stim/wavs/puertorican_mismatch_interrogative-total-yn_Mi-madre-come-la-fruta.wav,,,,,,,,,,,,,,,,,,,,,,407.1492,410.3126,1,1,2.6336,,0,85,85,43,1,1,puertorican,,,,,,,,,,,,,,,,,,,,,,,,,,,,,,,,,,,,,,,,,,,,,,,,,,,,,,,,
,,,,,,,,,,,click here to respond,click here to respond,click here to respond,2025-08-13_17h50.50.121,empathy_intonation_perc,2024.2.4,Win32,59.52380952,5aadcaf1e1546900019af287,687ed1b7e638a4cbf2f02089,689d08ac8e85813c4053d4c1,,,,,,,,,,,,,29,1,,./stim/wavs/castilian_mismatch_interrogative-total-yn_Mi-tia-odia-la-lluvia.wav,,,,,,,,,,,,,,,,,,,,,,410.3153,411.9815,0,0,1.1335,,0,86,86,28,1,0,castilian,,,,,,,,,,,,,,,,,,,,,,,,,,,,,,,,,,,,,,,,,,,,,,,,,,,,,,,,
,,,,,,,,,,,click here to respond,click here to respond,click here to respond,2025-08-13_17h50.50.121,empathy_intonation_perc,2024.2.4,Win32,59.52380952,5aadcaf1e1546900019af287,687ed1b7e638a4cbf2f02089,689d08ac8e85813c4053d4c1,,,,,,,,,,,,,45,0,,./stim/wavs/castilian_match_declarative-broad-focus_David-leia-el-libro.wav,,,,,,,,,,,,,,,,,,,,,,411.9823,414.6956,0,1,2.1682,,0,87,87,44,1,0,castilian,,,,,,,,,,,,,,,,,,,,,,,,,,,,,,,,,,,,,,,,,,,,,,,,,,,,,,,,
,,,,,,,"Great! Now we will move on. The next task consists of about 60 trials, in each of which you will see a string of letters. 
  
  Your task is to decide whether this is a real Spanish word or not.", (press the spacebar to continue),,,click here to respond,click here to respond,click here to respond,2025-08-13_17h50.50.121,empathy_intonation_perc,2024.2.4,Win32,59.52380952,5aadcaf1e1546900019af287,687ed1b7e638a4cbf2f02089,689d08ac8e85813c4053d4c1,,,,,,,,,,,,,,,,,,,,,,,,,,,,,,,,,,,,,,,,,,,,,,,,,,,414.704,421.8962,0,0,0,0,1,,,,,,,,,,,,,,,,,,,,,,,,,,,,,,,,,,,,,,,,,,,,,,,,,
,,,,,,,"If you think it is an existing Spanish word, you type '1' (for 'REAL'), and if you think it is not an existing Spanish word, you type '0' (for 'FAKE').", (press the spacebar to continue),,,click here to respond,click here to respond,click here to respond,2025-08-13_17h50.50.121,empathy_intonation_perc,2024.2.4,Win32,59.52380952,5aadcaf1e1546900019af287,687ed1b7e638a4cbf2f02089,689d08ac8e85813c4053d4c1,,,,,,,,,,,,,,,,,,,,,,,,,,,,,,,,,,,,,,,,,,,,,,,,,,,421.8993,423.3619,0,1,1,1,1,,,,,,,,,,,,,,,,,,,,,,,,,,,,,,,,,,,,,,,,,,,,,,,,,
,,,,,,,"If you are sure that the word exists, even though you don’t know its exact meaning, you may still respond '1' (REAL). 
  
  But if you are not sure if it is an existing word, you should respond '0' (FAKE).
  
  Let's do a practice round...", (press the spacebar to continue),,,click here to respond,click here to respond,click here to respond,2025-08-13_17h50.50.121,empathy_intonation_perc,2024.2.4,Win32,59.52380952,5aadcaf1e1546900019af287,687ed1b7e638a4cbf2f02089,689d08ac8e85813c4053d4c1,,,,,,,,,,,,,,,,,,,,,,,,,,,,,,,,,,,,,,,,,,,,,,,,,,,423.3645,424.8482,0,2,2,2,1,,,,,,,,,,,,,,,,,,,,,,,,,,,,,,,,,,,,,,,,,,,,,,,,,
,,,,,,,,,,,click here to respond,click here to respond,click here to respond,2025-08-13_17h50.50.121,empathy_intonation_perc,2024.2.4,Win32,59.52380952,5aadcaf1e1546900019af287,687ed1b7e638a4cbf2f02089,689d08ac8e85813c4053d4c1,,,,,,,,,,,,,,0,,,,,,,,,,,,,,,,,,,,,,,,,,,,,,,,,,,,,,,,,,,,424.8545,426.4788,1,0,1.0845,,426.4792,427.4811,0,0,0,0,1,0,depiste,REAL,FAKE,,,,,,,,,,,,,,,,,,,,,,,,,,,,,,,,
,,,,,,,,,,,click here to respond,click here to respond,click here to respond,2025-08-13_17h50.50.121,empathy_intonation_perc,2024.2.4,Win32,59.52380952,5aadcaf1e1546900019af287,687ed1b7e638a4cbf2f02089,689d08ac8e85813c4053d4c1,,,,,,,,,,,,,,1,,,,,,,,,,,,,,,,,,,,,,,,,,,,,,,,,,,,,,,,,,,,427.4827,428.6617,1,1,0.6351,,428.6625,429.6637,0,1,1,1,1,0,sí,REAL,FAKE,,,,,,,,,,,,,,,,,,,,,,,,,,,,,,,,
,,,,,,,,,,,click here to respond,click here to respond,click here to respond,2025-08-13_17h50.50.121,empathy_intonation_perc,2024.2.4,Win32,59.52380952,5aadcaf1e1546900019af287,687ed1b7e638a4cbf2f02089,689d08ac8e85813c4053d4c1,,,,,,,,,,,,,,0,,,,,,,,,,,,,,,,,,,,,,,,,,,,,,,,,,,,,,,,,,,,429.6658,433.4613,0,1,3.2516,,433.4614,434.4628,0,2,2,2,1,0,coné,REAL,FAKE,,,,,,,,,,,,,,,,,,,,,,,,,,,,,,,,
,,,,,,,,,,,click here to respond,click here to respond,click here to respond,2025-08-13_17h50.50.121,empathy_intonation_perc,2024.2.4,Win32,59.52380952,5aadcaf1e1546900019af287,687ed1b7e638a4cbf2f02089,689d08ac8e85813c4053d4c1,,,,,,,,,,,,,,0,,,,,,,,,,,,,,,,,,,,,,,,,,,,,,,,,,,,,,,,,,,,434.4636,435.7145,0,1,0.7169,,435.7146,436.7111,0,3,3,3,1,0,calpar,REAL,FAKE,,,,,,,,,,,,,,,,,,,,,,,,,,,,,,,,
,,,,,,,,,,,click here to respond,click here to respond,click here to respond,2025-08-13_17h50.50.121,empathy_intonation_perc,2024.2.4,Win32,59.52380952,5aadcaf1e1546900019af287,687ed1b7e638a4cbf2f02089,689d08ac8e85813c4053d4c1,,,,,,,,,,,,,,0,,,,,,,,,,,,,,,,,,,,,,,,,,,,,,,,,,,,,,,,,,,,436.7127,437.9781,0,1,0.7353,,437.9782,438.9775,0,4,4,4,1,0,joten,REAL,FAKE,,,,,,,,,,,,,,,,,,,,,,,,,,,,,,,,
,,,,,,,,,,,click here to respond,click here to respond,click here to respond,2025-08-13_17h50.50.121,empathy_intonation_perc,2024.2.4,Win32,59.52380952,5aadcaf1e1546900019af287,687ed1b7e638a4cbf2f02089,689d08ac8e85813c4053d4c1,,,,,,,,,,,,,,1,,,,,,,,,,,,,,,,,,,,,,,,,,,,,,,,,,,,,,,,,,,,438.9781,440.3609,0,0,0.84,,440.3619,441.3607,0,5,5,5,1,0,sacapuntas,REAL,FAKE,,,,,,,,,,,,,,,,,,,,,,,,,,,,,,,,
,,,,,,,,,,,click here to respond,click here to respond,click here to respond,2025-08-13_17h50.50.121,empathy_intonation_perc,2024.2.4,Win32,59.52380952,5aadcaf1e1546900019af287,687ed1b7e638a4cbf2f02089,689d08ac8e85813c4053d4c1,,,,,,,,,,,,,,0,,,,,,,,,,,,,,,,,,,,,,,,,,,,,,,,,,,,,,,,,,,,441.3618,442.7306,0,1,0.8345,,442.7316,443.7275,0,6,6,6,1,0,priba,REAL,FAKE,,,,,,,,,,,,,,,,,,,,,,,,,,,,,,,,
,,,,,,,,,,,click here to respond,click here to respond,click here to respond,2025-08-13_17h50.50.121,empathy_intonation_perc,2024.2.4,Win32,59.52380952,5aadcaf1e1546900019af287,687ed1b7e638a4cbf2f02089,689d08ac8e85813c4053d4c1,,,,,,,,,,,,,,0,,,,,,,,,,,,,,,,,,,,,,,,,,,,,,,,,,,,,,,,,,,,443.7289,445.4941,0,1,1.2261,,445.4942,446.4958,0,7,7,7,1,0,pelasula,REAL,FAKE,,,,,,,,,,,,,,,,,,,,,,,,,,,,,,,,
,,,,,,,,,,,click here to respond,click here to respond,click here to respond,2025-08-13_17h50.50.121,empathy_intonation_perc,2024.2.4,Win32,59.52380952,5aadcaf1e1546900019af287,687ed1b7e638a4cbf2f02089,689d08ac8e85813c4053d4c1,,,,,,,,,,,,,,1,,,,,,,,,,,,,,,,,,,,,,,,,,,,,,,,,,,,,,,,,,,,446.4968,447.7802,1,1,0.7504,,447.7804,448.7794,0,8,8,8,1,0,bien,REAL,FAKE,,,,,,,,,,,,,,,,,,,,,,,,,,,,,,,,
,,,,,,,,,,,click here to respond,click here to respond,click here to respond,2025-08-13_17h50.50.121,empathy_intonation_perc,2024.2.4,Win32,59.52380952,5aadcaf1e1546900019af287,687ed1b7e638a4cbf2f02089,689d08ac8e85813c4053d4c1,,,,,,,,,,,,,,1,,,,,,,,,,,,,,,,,,,,,,,,,,,,,,,,,,,,,,,,,,,,448.7807,453.1604,1,1,3.8342,,453.1605,454.1605,0,9,9,9,1,0,casa,REAL,FAKE,,,,,,,,,,,,,,,,,,,,,,,,,,,,,,,,
,,,,,,,,,,,click here to respond,click here to respond,click here to respond,2025-08-13_17h50.50.121,empathy_intonation_perc,2024.2.4,Win32,59.52380952,5aadcaf1e1546900019af287,687ed1b7e638a4cbf2f02089,689d08ac8e85813c4053d4c1,,,,,,,,,,,,,,0,,,,,,,,,,,,,,,,,,,,,,,,,,,,,,,,,,,,,,,,,,,,454.1623,455.4126,1,0,0.7163,,455.4134,456.4102,0,10,10,10,1,0,lejo,REAL,FAKE,,,,,,,,,,,,,,,,,,,,,,,,,,,,,,,,
,,,,,,,,,,,click here to respond,click here to respond,click here to respond,2025-08-13_17h50.50.121,empathy_intonation_perc,2024.2.4,Win32,59.52380952,5aadcaf1e1546900019af287,687ed1b7e638a4cbf2f02089,689d08ac8e85813c4053d4c1,,,,,,,,,,,,,,0,,,,,,,,,,,,,,,,,,,,,,,,,,,,,,,,,,,,,,,,,,,,456.4116,462.8931,1,0,5.9598,,462.8931,463.8932,0,11,11,11,1,0,pretantas,REAL,FAKE,,,,,,,,,,,,,,,,,,,,,,,,,,,,,,,,
,,,,,,,,,,,click here to respond,click here to respond,click here to respond,2025-08-13_17h50.50.121,empathy_intonation_perc,2024.2.4,Win32,59.52380952,5aadcaf1e1546900019af287,687ed1b7e638a4cbf2f02089,689d08ac8e85813c4053d4c1,,,,,,,,,,,,,,,,,,,,,,,,,,,,,,,,,,,,,,,,,,,,,,,,,,,,,,,,,,,,,,,,,,,,,,,,,,,463.8938,465.0773,,,,,,,,,,,,,,,,,,,,,,,,,,,,,,
,,,,,,,,,,,click here to respond,click here to respond,click here to respond,2025-08-13_17h50.50.121,empathy_intonation_perc,2024.2.4,Win32,59.52380952,5aadcaf1e1546900019af287,687ed1b7e638a4cbf2f02089,689d08ac8e85813c4053d4c1,,,,,,,,,,,,,,0,,,,,,,,,,,,,,,,,,,,,,,,,,,,,,,,,,,,,,,,,,,,,,,,,,,,,,,,,10,antar,,,,,465.0889,466.6797,0,1,1.0669,,0,0,0,9,1,REAL,FAKE,,,,,,,,,,,,,,,,,
,,,,,,,,,,,click here to respond,click here to respond,click here to respond,2025-08-13_17h50.50.121,empathy_intonation_perc,2024.2.4,Win32,59.52380952,5aadcaf1e1546900019af287,687ed1b7e638a4cbf2f02089,689d08ac8e85813c4053d4c1,,,,,,,,,,,,,,1,,,,,,,,,,,,,,,,,,,,,,,,,,,,,,,,,,,,,,,,,,,,,,,,,,,,,,,,,49,ganar,,,,,466.6812,468.1936,0,0,0.9813,,0,1,1,48,1,REAL,FAKE,,,,,,,,,,,,,,,,,
,,,,,,,,,,,click here to respond,click here to respond,click here to respond,2025-08-13_17h50.50.121,empathy_intonation_perc,2024.2.4,Win32,59.52380952,5aadcaf1e1546900019af287,687ed1b7e638a4cbf2f02089,689d08ac8e85813c4053d4c1,,,,,,,,,,,,,,0,,,,,,,,,,,,,,,,,,,,,,,,,,,,,,,,,,,,,,,,,,,,,,,,,,,,,,,,,16,abracer,,,,,468.1948,470.3259,1,0,1.5925,,0,2,2,15,1,REAL,FAKE,,,,,,,,,,,,,,,,,
,,,,,,,,,,,click here to respond,click here to respond,click here to respond,2025-08-13_17h50.50.121,empathy_intonation_perc,2024.2.4,Win32,59.52380952,5aadcaf1e1546900019af287,687ed1b7e638a4cbf2f02089,689d08ac8e85813c4053d4c1,,,,,,,,,,,,,,0,,,,,,,,,,,,,,,,,,,,,,,,,,,,,,,,,,,,,,,,,,,,,,,,,,,,,,,,,32,fatacidad,,,,,470.3269,471.7792,0,1,0.9171,,0,3,3,31,1,REAL,FAKE,,,,,,,,,,,,,,,,,
,,,,,,,,,,,click here to respond,click here to respond,click here to respond,2025-08-13_17h50.50.121,empathy_intonation_perc,2024.2.4,Win32,59.52380952,5aadcaf1e1546900019af287,687ed1b7e638a4cbf2f02089,689d08ac8e85813c4053d4c1,,,,,,,,,,,,,,1,,,,,,,,,,,,,,,,,,,,,,,,,,,,,,,,,,,,,,,,,,,,,,,,,,,,,,,,,56,musgo,,,,,471.7804,473.1261,0,0,0.8098,,0,4,4,55,1,REAL,FAKE,,,,,,,,,,,,,,,,,
,,,,,,,,,,,click here to respond,click here to respond,click here to respond,2025-08-13_17h50.50.121,empathy_intonation_perc,2024.2.4,Win32,59.52380952,5aadcaf1e1546900019af287,687ed1b7e638a4cbf2f02089,689d08ac8e85813c4053d4c1,,,,,,,,,,,,,,1,,,,,,,,,,,,,,,,,,,,,,,,,,,,,,,,,,,,,,,,,,,,,,,,,,,,,,,,,86,barato,,,,,473.1273,475.0259,0,0,1.3717,,0,5,5,85,1,REAL,FAKE,,,,,,,,,,,,,,,,,
,,,,,,,,,,,click here to respond,click here to respond,click here to respond,2025-08-13_17h50.50.121,empathy_intonation_perc,2024.2.4,Win32,59.52380952,5aadcaf1e1546900019af287,687ed1b7e638a4cbf2f02089,689d08ac8e85813c4053d4c1,,,,,,,,,,,,,,0,,,,,,,,,,,,,,,,,,,,,,,,,,,,,,,,,,,,,,,,,,,,,,,,,,,,,,,,,21,capillo,,,,,475.0273,478.612,1,0,3.05,,0,6,6,20,1,REAL,FAKE,,,,,,,,,,,,,,,,,
,,,,,,,,,,,click here to respond,click here to respond,click here to respond,2025-08-13_17h50.50.121,empathy_intonation_perc,2024.2.4,Win32,59.52380952,5aadcaf1e1546900019af287,687ed1b7e638a4cbf2f02089,689d08ac8e85813c4053d4c1,,,,,,,,,,,,,,1,,,,,,,,,,,,,,,,,,,,,,,,,,,,,,,,,,,,,,,,,,,,,,,,,,,,,,,,,34,aviso,,,,,478.6135,480.1953,0,0,1.0503,,0,7,7,33,1,REAL,FAKE,,,,,,,,,,,,,,,,,
,,,,,,,,,,,click here to respond,click here to respond,click here to respond,2025-08-13_17h50.50.121,empathy_intonation_perc,2024.2.4,Win32,59.52380952,5aadcaf1e1546900019af287,687ed1b7e638a4cbf2f02089,689d08ac8e85813c4053d4c1,,,,,,,,,,,,,,1,,,,,,,,,,,,,,,,,,,,,,,,,,,,,,,,,,,,,,,,,,,,,,,,,,,,,,,,,38,estornudar,,,,,480.1967,482.2754,0,0,1.538,,0,8,8,37,1,REAL,FAKE,,,,,,,,,,,,,,,,,
,,,,,,,,,,,click here to respond,click here to respond,click here to respond,2025-08-13_17h50.50.121,empathy_intonation_perc,2024.2.4,Win32,59.52380952,5aadcaf1e1546900019af287,687ed1b7e638a4cbf2f02089,689d08ac8e85813c4053d4c1,,,,,,,,,,,,,,1,,,,,,,,,,,,,,,,,,,,,,,,,,,,,,,,,,,,,,,,,,,,,,,,,,,,,,,,,14,yunque,,,,,482.2764,483.4755,1,1,0.6539,,0,9,9,13,1,REAL,FAKE,,,,,,,,,,,,,,,,,
,,,,,,,,,,,click here to respond,click here to respond,click here to respond,2025-08-13_17h50.50.121,empathy_intonation_perc,2024.2.4,Win32,59.52380952,5aadcaf1e1546900019af287,687ed1b7e638a4cbf2f02089,689d08ac8e85813c4053d4c1,,,,,,,,,,,,,,1,,,,,,,,,,,,,,,,,,,,,,,,,,,,,,,,,,,,,,,,,,,,,,,,,,,,,,,,,48,ladrón,,,,,483.4777,485.7919,1,1,1.7739,,0,10,10,47,1,REAL,FAKE,,,,,,,,,,,,,,,,,
,,,,,,,,,,,click here to respond,click here to respond,click here to respond,2025-08-13_17h50.50.121,empathy_intonation_perc,2024.2.4,Win32,59.52380952,5aadcaf1e1546900019af287,687ed1b7e638a4cbf2f02089,689d08ac8e85813c4053d4c1,,,,,,,,,,,,,,1,,,,,,,,,,,,,,,,,,,,,,,,,,,,,,,,,,,,,,,,,,,,,,,,,,,,,,,,,12,asesinato,,,,,485.7939,487.3621,0,0,1.0344,,0,11,11,11,1,REAL,FAKE,,,,,,,,,,,,,,,,,
,,,,,,,,,,,click here to respond,click here to respond,click here to respond,2025-08-13_17h50.50.121,empathy_intonation_perc,2024.2.4,Win32,59.52380952,5aadcaf1e1546900019af287,687ed1b7e638a4cbf2f02089,689d08ac8e85813c4053d4c1,,,,,,,,,,,,,,1,,,,,,,,,,,,,,,,,,,,,,,,,,,,,,,,,,,,,,,,,,,,,,,,,,,,,,,,,22,lacayo,,,,,487.3632,492.5416,1,1,4.6353,,0,12,12,21,1,REAL,FAKE,,,,,,,,,,,,,,,,,
,,,,,,,,,,,click here to respond,click here to respond,click here to respond,2025-08-13_17h50.50.121,empathy_intonation_perc,2024.2.4,Win32,59.52380952,5aadcaf1e1546900019af287,687ed1b7e638a4cbf2f02089,689d08ac8e85813c4053d4c1,,,,,,,,,,,,,,1,,,,,,,,,,,,,,,,,,,,,,,,,,,,,,,,,,,,,,,,,,,,,,,,,,,,,,,,,78,frondoso,,,,,492.5437,493.8248,0,0,0.7344,,0,13,13,77,1,REAL,FAKE,,,,,,,,,,,,,,,,,
,,,,,,,,,,,click here to respond,click here to respond,click here to respond,2025-08-13_17h50.50.121,empathy_intonation_perc,2024.2.4,Win32,59.52380952,5aadcaf1e1546900019af287,687ed1b7e638a4cbf2f02089,689d08ac8e85813c4053d4c1,,,,,,,,,,,,,,0,,,,,,,,,,,,,,,,,,,,,,,,,,,,,,,,,,,,,,,,,,,,,,,,,,,,,,,,,66,hacido,,,,,493.8262,499.8443,0,1,5.4842,,0,14,14,65,1,REAL,FAKE,,,,,,,,,,,,,,,,,
,,,,,,,,,,,click here to respond,click here to respond,click here to respond,2025-08-13_17h50.50.121,empathy_intonation_perc,2024.2.4,Win32,59.52380952,5aadcaf1e1546900019af287,687ed1b7e638a4cbf2f02089,689d08ac8e85813c4053d4c1,,,,,,,,,,,,,,1,,,,,,,,,,,,,,,,,,,,,,,,,,,,,,,,,,,,,,,,,,,,,,,,,,,,,,,,,28,merodear,,,,,499.8457,502.7244,0,0,2.3439,,0,15,15,27,1,REAL,FAKE,,,,,,,,,,,,,,,,,
,,,,,,,,,,,click here to respond,click here to respond,click here to respond,2025-08-13_17h50.50.121,empathy_intonation_perc,2024.2.4,Win32,59.52380952,5aadcaf1e1546900019af287,687ed1b7e638a4cbf2f02089,689d08ac8e85813c4053d4c1,,,,,,,,,,,,,,1,,,,,,,,,,,,,,,,,,,,,,,,,,,,,,,,,,,,,,,,,,,,,,,,,,,,,,,,,88,acantilado,,,,,502.7255,504.0281,1,1,0.768,,0,16,16,87,1,REAL,FAKE,,,,,,,,,,,,,,,,,
,,,,,,,,,,,click here to respond,click here to respond,click here to respond,2025-08-13_17h50.50.121,empathy_intonation_perc,2024.2.4,Win32,59.52380952,5aadcaf1e1546900019af287,687ed1b7e638a4cbf2f02089,689d08ac8e85813c4053d4c1,,,,,,,,,,,,,,1,,,,,,,,,,,,,,,,,,,,,,,,,,,,,,,,,,,,,,,,,,,,,,,,,,,,,,,,,24,látigo,,,,,504.0297,506.1441,1,1,1.5841,,0,17,17,23,1,REAL,FAKE,,,,,,,,,,,,,,,,,
,,,,,,,,,,,click here to respond,click here to respond,click here to respond,2025-08-13_17h50.50.121,empathy_intonation_perc,2024.2.4,Win32,59.52380952,5aadcaf1e1546900019af287,687ed1b7e638a4cbf2f02089,689d08ac8e85813c4053d4c1,,,,,,,,,,,,,,1,,,,,,,,,,,,,,,,,,,,,,,,,,,,,,,,,,,,,,,,,,,,,,,,,,,,,,,,,60,matar,,,,,506.1455,507.5075,0,0,0.8204,,0,18,18,59,1,REAL,FAKE,,,,,,,,,,,,,,,,,
,,,,,,,,,,,click here to respond,click here to respond,click here to respond,2025-08-13_17h50.50.121,empathy_intonation_perc,2024.2.4,Win32,59.52380952,5aadcaf1e1546900019af287,687ed1b7e638a4cbf2f02089,689d08ac8e85813c4053d4c1,,,,,,,,,,,,,,1,,,,,,,,,,,,,,,,,,,,,,,,,,,,,,,,,,,,,,,,,,,,,,,,,,,,,,,,,77,tiburón,,,,,507.5088,525.2067,0,0,17.1589,,0,19,19,76,1,REAL,FAKE,,,,,,,,,,,,,,,,,
,,,,,,,,,,,click here to respond,click here to respond,click here to respond,2025-08-13_17h50.50.121,empathy_intonation_perc,2024.2.4,Win32,59.52380952,5aadcaf1e1546900019af287,687ed1b7e638a4cbf2f02089,689d08ac8e85813c4053d4c1,,,,,,,,,,,,,,1,,,,,,,,,,,,,,,,,,,,,,,,,,,,,,,,,,,,,,,,,,,,,,,,,,,,,,,,,81,pozo,,,,,525.2087,526.0401,1,1,0.2908,,0,20,20,80,1,REAL,FAKE,,,,,,,,,,,,,,,,,
,,,,,,,,,,,click here to respond,click here to respond,click here to respond,2025-08-13_17h50.50.121,empathy_intonation_perc,2024.2.4,Win32,59.52380952,5aadcaf1e1546900019af287,687ed1b7e638a4cbf2f02089,689d08ac8e85813c4053d4c1,,,,,,,,,,,,,,1,,,,,,,,,,,,,,,,,,,,,,,,,,,,,,,,,,,,,,,,,,,,,,,,,,,,,,,,,65,bizcocho,,,,,526.0416,533.2731,0,0,6.6899,,0,21,21,64,1,REAL,FAKE,,,,,,,,,,,,,,,,,
,,,,,,,,,,,click here to respond,click here to respond,click here to respond,2025-08-13_17h50.50.121,empathy_intonation_perc,2024.2.4,Win32,59.52380952,5aadcaf1e1546900019af287,687ed1b7e638a4cbf2f02089,689d08ac8e85813c4053d4c1,,,,,,,,,,,,,,0,,,,,,,,,,,,,,,,,,,,,,,,,,,,,,,,,,,,,,,,,,,,,,,,,,,,,,,,,63,esposante,,,,,533.2743,534.3395,1,0,0.5211,,0,22,22,62,1,REAL,FAKE,,,,,,,,,,,,,,,,,
,,,,,,,,,,,click here to respond,click here to respond,click here to respond,2025-08-13_17h50.50.121,empathy_intonation_perc,2024.2.4,Win32,59.52380952,5aadcaf1e1546900019af287,687ed1b7e638a4cbf2f02089,689d08ac8e85813c4053d4c1,,,,,,,,,,,,,,1,,,,,,,,,,,,,,,,,,,,,,,,,,,,,,,,,,,,,,,,,,,,,,,,,,,,,,,,,62,flaco,,,,,534.3409,536.1892,0,0,1.3273,,0,23,23,61,1,REAL,FAKE,,,,,,,,,,,,,,,,,
,,,,,,,,,,,click here to respond,click here to respond,click here to respond,2025-08-13_17h50.50.121,empathy_intonation_perc,2024.2.4,Win32,59.52380952,5aadcaf1e1546900019af287,687ed1b7e638a4cbf2f02089,689d08ac8e85813c4053d4c1,,,,,,,,,,,,,,0,,,,,,,,,,,,,,,,,,,,,,,,,,,,,,,,,,,,,,,,,,,,,,,,,,,,,,,,,79,tropaje,,,,,536.1906,540.1892,0,1,3.4597,,0,24,24,78,1,REAL,FAKE,,,,,,,,,,,,,,,,,
,,,,,,,,,,,click here to respond,click here to respond,click here to respond,2025-08-13_17h50.50.121,empathy_intonation_perc,2024.2.4,Win32,59.52380952,5aadcaf1e1546900019af287,687ed1b7e638a4cbf2f02089,689d08ac8e85813c4053d4c1,,,,,,,,,,,,,,1,,,,,,,,,,,,,,,,,,,,,,,,,,,,,,,,,,,,,,,,,,,,,,,,,,,,,,,,,20,ávido,,,,,540.1904,541.5061,1,1,0.7725,,0,25,25,19,1,REAL,FAKE,,,,,,,,,,,,,,,,,
,,,,,,,,,,,click here to respond,click here to respond,click here to respond,2025-08-13_17h50.50.121,empathy_intonation_perc,2024.2.4,Win32,59.52380952,5aadcaf1e1546900019af287,687ed1b7e638a4cbf2f02089,689d08ac8e85813c4053d4c1,,,,,,,,,,,,,,1,,,,,,,,,,,,,,,,,,,,,,,,,,,,,,,,,,,,,,,,,,,,,,,,,,,,,,,,,44,cuchara,,,,,541.5077,549.1054,0,0,7.0513,,0,26,26,43,1,REAL,FAKE,,,,,,,,,,,,,,,,,
,,,,,,,,,,,click here to respond,click here to respond,click here to respond,2025-08-13_17h50.50.121,empathy_intonation_perc,2024.2.4,Win32,59.52380952,5aadcaf1e1546900019af287,687ed1b7e638a4cbf2f02089,689d08ac8e85813c4053d4c1,,,,,,,,,,,,,,0,,,,,,,,,,,,,,,,,,,,,,,,,,,,,,,,,,,,,,,,,,,,,,,,,,,,,,,,,35,rompido,,,,,549.1066,551.4053,0,1,1.7762,,0,27,27,34,1,REAL,FAKE,,,,,,,,,,,,,,,,,
,,,,,,,,,,,click here to respond,click here to respond,click here to respond,2025-08-13_17h50.50.121,empathy_intonation_perc,2024.2.4,Win32,59.52380952,5aadcaf1e1546900019af287,687ed1b7e638a4cbf2f02089,689d08ac8e85813c4053d4c1,,,,,,,,,,,,,,1,,,,,,,,,,,,,,,,,,,,,,,,,,,,,,,,,,,,,,,,,,,,,,,,,,,,,,,,,83,guante,,,,,551.4064,556.8574,0,0,4.916,,0,28,28,82,1,REAL,FAKE,,,,,,,,,,,,,,,,,
,,,,,,,,,,,click here to respond,click here to respond,click here to respond,2025-08-13_17h50.50.121,empathy_intonation_perc,2024.2.4,Win32,59.52380952,5aadcaf1e1546900019af287,687ed1b7e638a4cbf2f02089,689d08ac8e85813c4053d4c1,,,,,,,,,,,,,,0,,,,,,,,,,,,,,,,,,,,,,,,,,,,,,,,,,,,,,,,,,,,,,,,,,,,,,,,,74,cintro,,,,,556.8589,558.8215,1,0,1.4183,,0,29,29,73,1,REAL,FAKE,,,,,,,,,,,,,,,,,
,,,,,,,,,,,click here to respond,click here to respond,click here to respond,2025-08-13_17h50.50.121,empathy_intonation_perc,2024.2.4,Win32,59.52380952,5aadcaf1e1546900019af287,687ed1b7e638a4cbf2f02089,689d08ac8e85813c4053d4c1,,,,,,,,,,,,,,1,,,,,,,,,,,,,,,,,,,,,,,,,,,,,,,,,,,,,,,,,,,,,,,,,,,,,,,,,7,pésimo,,,,,558.8228,561.5881,0,0,2.2361,,0,30,30,6,1,REAL,FAKE,,,,,,,,,,,,,,,,,
,,,,,,,,,,,click here to respond,click here to respond,click here to respond,2025-08-13_17h50.50.121,empathy_intonation_perc,2024.2.4,Win32,59.52380952,5aadcaf1e1546900019af287,687ed1b7e638a4cbf2f02089,689d08ac8e85813c4053d4c1,,,,,,,,,,,,,,0,,,,,,,,,,,,,,,,,,,,,,,,,,,,,,,,,,,,,,,,,,,,,,,,,,,,,,,,,4,batillón,,,,,561.5888,563.188,1,0,1.0779,,0,31,31,3,1,REAL,FAKE,,,,,,,,,,,,,,,,,
,,,,,,,,,,,click here to respond,click here to respond,click here to respond,2025-08-13_17h50.50.121,empathy_intonation_perc,2024.2.4,Win32,59.52380952,5aadcaf1e1546900019af287,687ed1b7e638a4cbf2f02089,689d08ac8e85813c4053d4c1,,,,,,,,,,,,,,1,,,,,,,,,,,,,,,,,,,,,,,,,,,,,,,,,,,,,,,,,,,,,,,,,,,,,,,,,75,yacer,,,,,563.1889,564.571,1,1,0.8363,,0,32,32,74,1,REAL,FAKE,,,,,,,,,,,,,,,,,
,,,,,,,,,,,click here to respond,click here to respond,click here to respond,2025-08-13_17h50.50.121,empathy_intonation_perc,2024.2.4,Win32,59.52380952,5aadcaf1e1546900019af287,687ed1b7e638a4cbf2f02089,689d08ac8e85813c4053d4c1,,,,,,,,,,,,,,0,,,,,,,,,,,,,,,,,,,,,,,,,,,,,,,,,,,,,,,,,,,,,,,,,,,,,,,,,29,decar,,,,,564.5715,565.6543,1,0,0.5418,,0,33,33,28,1,REAL,FAKE,,,,,,,,,,,,,,,,,
,,,,,,,,,,,click here to respond,click here to respond,click here to respond,2025-08-13_17h50.50.121,empathy_intonation_perc,2024.2.4,Win32,59.52380952,5aadcaf1e1546900019af287,687ed1b7e638a4cbf2f02089,689d08ac8e85813c4053d4c1,,,,,,,,,,,,,,0,,,,,,,,,,,,,,,,,,,,,,,,,,,,,,,,,,,,,,,,,,,,,,,,,,,,,,,,,8,cadeña,,,,,565.6552,575.4901,0,1,9.3,,0,34,34,7,1,REAL,FAKE,,,,,,,,,,,,,,,,,
,,,,,,,,,,,click here to respond,click here to respond,click here to respond,2025-08-13_17h50.50.121,empathy_intonation_perc,2024.2.4,Win32,59.52380952,5aadcaf1e1546900019af287,687ed1b7e638a4cbf2f02089,689d08ac8e85813c4053d4c1,,,,,,,,,,,,,,0,,,,,,,,,,,,,,,,,,,,,,,,,,,,,,,,,,,,,,,,,,,,,,,,,,,,,,,,,42,cadallo,,,,,575.4915,580.5376,0,1,4.5143,,0,35,35,41,1,REAL,FAKE,,,,,,,,,,,,,,,,,
,,,,,,,,,,,click here to respond,click here to respond,click here to respond,2025-08-13_17h50.50.121,empathy_intonation_perc,2024.2.4,Win32,59.52380952,5aadcaf1e1546900019af287,687ed1b7e638a4cbf2f02089,689d08ac8e85813c4053d4c1,,,,,,,,,,,,,,1,,,,,,,,,,,,,,,,,,,,,,,,,,,,,,,,,,,,,,,,,,,,,,,,,,,,,,,,,55,nevar,,,,,580.5389,581.6202,0,0,0.5362,,0,36,36,54,1,REAL,FAKE,,,,,,,,,,,,,,,,,
,,,,,,,,,,,click here to respond,click here to respond,click here to respond,2025-08-13_17h50.50.121,empathy_intonation_perc,2024.2.4,Win32,59.52380952,5aadcaf1e1546900019af287,687ed1b7e638a4cbf2f02089,689d08ac8e85813c4053d4c1,,,,,,,,,,,,,,1,,,,,,,,,,,,,,,,,,,,,,,,,,,,,,,,,,,,,,,,,,,,,,,,,,,,,,,,,51,candado,,,,,581.6213,582.937,1,1,0.7842,,0,37,37,50,1,REAL,FAKE,,,,,,,,,,,,,,,,,
,,,,,,,,,,,click here to respond,click here to respond,click here to respond,2025-08-13_17h50.50.121,empathy_intonation_perc,2024.2.4,Win32,59.52380952,5aadcaf1e1546900019af287,687ed1b7e638a4cbf2f02089,689d08ac8e85813c4053d4c1,,,,,,,,,,,,,,0,,,,,,,,,,,,,,,,,,,,,,,,,,,,,,,,,,,,,,,,,,,,,,,,,,,,,,,,,33,pauca,,,,,582.938,583.9535,1,0,0.4806,,0,38,38,32,1,REAL,FAKE,,,,,,,,,,,,,,,,,
,,,,,,,,,,,click here to respond,click here to respond,click here to respond,2025-08-13_17h50.50.121,empathy_intonation_perc,2024.2.4,Win32,59.52380952,5aadcaf1e1546900019af287,687ed1b7e638a4cbf2f02089,689d08ac8e85813c4053d4c1,,,,,,,,,,,,,,1,,,,,,,,,,,,,,,,,,,,,,,,,,,,,,,,,,,,,,,,,,,,,,,,,,,,,,,,,43,canela,,,,,583.9544,584.907,1,1,0.4177,,0,39,39,42,1,REAL,FAKE,,,,,,,,,,,,,,,,,
,,,,,,,,,,,click here to respond,click here to respond,click here to respond,2025-08-13_17h50.50.121,empathy_intonation_perc,2024.2.4,Win32,59.52380952,5aadcaf1e1546900019af287,687ed1b7e638a4cbf2f02089,689d08ac8e85813c4053d4c1,,,,,,,,,,,,,,0,,,,,,,,,,,,,,,,,,,,,,,,,,,,,,,,,,,,,,,,,,,,,,,,,,,,,,,,,18,arsa,,,,,584.9081,585.8725,0,1,0.4333,,0,40,40,17,1,REAL,FAKE,,,,,,,,,,,,,,,,,
,,,,,,,,,,,click here to respond,click here to respond,click here to respond,2025-08-13_17h50.50.121,empathy_intonation_perc,2024.2.4,Win32,59.52380952,5aadcaf1e1546900019af287,687ed1b7e638a4cbf2f02089,689d08ac8e85813c4053d4c1,,,,,,,,,,,,,,0,,,,,,,,,,,,,,,,,,,,,,,,,,,,,,,,,,,,,,,,,,,,,,,,,,,,,,,,,27,acutación,,,,,585.8735,587.1198,1,0,0.707,,0,41,41,26,1,REAL,FAKE,,,,,,,,,,,,,,,,,
,,,,,,,,,,,click here to respond,click here to respond,click here to respond,2025-08-13_17h50.50.121,empathy_intonation_perc,2024.2.4,Win32,59.52380952,5aadcaf1e1546900019af287,687ed1b7e638a4cbf2f02089,689d08ac8e85813c4053d4c1,,,,,,,,,,,,,,1,,,,,,,,,,,,,,,,,,,,,,,,,,,,,,,,,,,,,,,,,,,,,,,,,,,,,,,,,40,alfombra,,,,,587.1208,588.403,0,0,0.7448,,0,42,42,39,1,REAL,FAKE,,,,,,,,,,,,,,,,,
,,,,,,,,,,,click here to respond,click here to respond,click here to respond,2025-08-13_17h50.50.121,empathy_intonation_perc,2024.2.4,Win32,59.52380952,5aadcaf1e1546900019af287,687ed1b7e638a4cbf2f02089,689d08ac8e85813c4053d4c1,,,,,,,,,,,,,,1,,,,,,,,,,,,,,,,,,,,,,,,,,,,,,,,,,,,,,,,,,,,,,,,,,,,,,,,,90,clavel,,,,,588.4038,589.7369,1,1,0.798,,0,43,43,89,1,REAL,FAKE,,,,,,,,,,,,,,,,,
,,,,,,,,,,,click here to respond,click here to respond,click here to respond,2025-08-13_17h50.50.121,empathy_intonation_perc,2024.2.4,Win32,59.52380952,5aadcaf1e1546900019af287,687ed1b7e638a4cbf2f02089,689d08ac8e85813c4053d4c1,,,,,,,,,,,,,,0,,,,,,,,,,,,,,,,,,,,,,,,,,,,,,,,,,,,,,,,,,,,,,,,,,,,,,,,,70,temblo,,,,,589.7381,590.803,0,1,0.5288,,0,44,44,69,1,REAL,FAKE,,,,,,,,,,,,,,,,,
,,,,,,,,,,,click here to respond,click here to respond,click here to respond,2025-08-13_17h50.50.121,empathy_intonation_perc,2024.2.4,Win32,59.52380952,5aadcaf1e1546900019af287,687ed1b7e638a4cbf2f02089,689d08ac8e85813c4053d4c1,,,,,,,,,,,,,,1,,,,,,,,,,,,,,,,,,,,,,,,,,,,,,,,,,,,,,,,,,,,,,,,,,,,,,,,,59,besar,,,,,590.8036,591.8863,1,1,0.5417,,0,45,45,58,1,REAL,FAKE,,,,,,,,,,,,,,,,,
,,,,,,,,,,,click here to respond,click here to respond,click here to respond,2025-08-13_17h50.50.121,empathy_intonation_perc,2024.2.4,Win32,59.52380952,5aadcaf1e1546900019af287,687ed1b7e638a4cbf2f02089,689d08ac8e85813c4053d4c1,,,,,,,,,,,,,,0,,,,,,,,,,,,,,,,,,,,,,,,,,,,,,,,,,,,,,,,,,,,,,,,,,,,,,,,,92,click the 0 key.,,,,,591.8873,592.903,0,1,0.4672,,0,46,46,91,1,REAL,FAKE,,,,,,,,,,,,,,,,,
,,,,,,,,,,,click here to respond,click here to respond,click here to respond,2025-08-13_17h50.50.121,empathy_intonation_perc,2024.2.4,Win32,59.52380952,5aadcaf1e1546900019af287,687ed1b7e638a4cbf2f02089,689d08ac8e85813c4053d4c1,,,,,,,,,,,,,,1,,,,,,,,,,,,,,,,,,,,,,,,,,,,,,,,,,,,,,,,,,,,,,,,,,,,,,,,,36,loro,,,,,592.9042,598.4529,1,1,5.002,,0,47,47,35,1,REAL,FAKE,,,,,,,,,,,,,,,,,
,,,,,,,,,,,click here to respond,click here to respond,click here to respond,2025-08-13_17h50.50.121,empathy_intonation_perc,2024.2.4,Win32,59.52380952,5aadcaf1e1546900019af287,687ed1b7e638a4cbf2f02089,689d08ac8e85813c4053d4c1,,,,,,,,,,,,,,0,,,,,,,,,,,,,,,,,,,,,,,,,,,,,,,,,,,,,,,,,,,,,,,,,,,,,,,,,17,floroso,,,,,598.4538,599.5025,1,0,0.5084,,0,48,48,16,1,REAL,FAKE,,,,,,,,,,,,,,,,,
,,,,,,,,,,,click here to respond,click here to respond,click here to respond,2025-08-13_17h50.50.121,empathy_intonation_perc,2024.2.4,Win32,59.52380952,5aadcaf1e1546900019af287,687ed1b7e638a4cbf2f02089,689d08ac8e85813c4053d4c1,,,,,,,,,,,,,,1,,,,,,,,,,,,,,,,,,,,,,,,,,,,,,,,,,,,,,,,,,,,,,,,,,,,,,,,,52,camisa,,,,,599.5035,600.6192,1,1,0.587,,0,49,49,51,1,REAL,FAKE,,,,,,,,,,,,,,,,,
,,,,,,,,,,,click here to respond,click here to respond,click here to respond,2025-08-13_17h50.50.121,empathy_intonation_perc,2024.2.4,Win32,59.52380952,5aadcaf1e1546900019af287,687ed1b7e638a4cbf2f02089,689d08ac8e85813c4053d4c1,,,,,,,,,,,,,,1,,,,,,,,,,,,,,,,,,,,,,,,,,,,,,,,,,,,,,,,,,,,,,,,,,,,,,,,,6,tergiversar,,,,,600.6204,601.7692,0,0,0.6139,,0,50,50,5,1,REAL,FAKE,,,,,,,,,,,,,,,,,
,,,,,,,,,,,click here to respond,click here to respond,click here to respond,2025-08-13_17h50.50.121,empathy_intonation_perc,2024.2.4,Win32,59.52380952,5aadcaf1e1546900019af287,687ed1b7e638a4cbf2f02089,689d08ac8e85813c4053d4c1,,,,,,,,,,,,,,1,,,,,,,,,,,,,,,,,,,,,,,,,,,,,,,,,,,,,,,,,,,,,,,,,,,,,,,,,25,bisagra,,,,,601.7703,602.8552,1,1,0.5502,,0,51,51,24,1,REAL,FAKE,,,,,,,,,,,,,,,,,
,,,,,,,,,,,click here to respond,click here to respond,click here to respond,2025-08-13_17h50.50.121,empathy_intonation_perc,2024.2.4,Win32,59.52380952,5aadcaf1e1546900019af287,687ed1b7e638a4cbf2f02089,689d08ac8e85813c4053d4c1,,,,,,,,,,,,,,1,,,,,,,,,,,,,,,,,,,,,,,,,,,,,,,,,,,,,,,,,,,,,,,,,,,,,,,,,46,martillo,,,,,602.8562,603.8024,1,1,0.4042,,0,52,52,45,1,REAL,FAKE,,,,,,,,,,,,,,,,,
,,,,,,,,,,,click here to respond,click here to respond,click here to respond,2025-08-13_17h50.50.121,empathy_intonation_perc,2024.2.4,Win32,59.52380952,5aadcaf1e1546900019af287,687ed1b7e638a4cbf2f02089,689d08ac8e85813c4053d4c1,,,,,,,,,,,,,,0,,,,,,,,,,,,,,,,,,,,,,,,,,,,,,,,,,,,,,,,,,,,,,,,,,,,,,,,,87,grodo,,,,,603.8035,604.805,1,0,0.4666,,0,53,53,86,1,REAL,FAKE,,,,,,,,,,,,,,,,,
,,,,,,,,,,,click here to respond,click here to respond,click here to respond,2025-08-13_17h50.50.121,empathy_intonation_perc,2024.2.4,Win32,59.52380952,5aadcaf1e1546900019af287,687ed1b7e638a4cbf2f02089,689d08ac8e85813c4053d4c1,,,,,,,,,,,,,,1,,,,,,,,,,,,,,,,,,,,,,,,,,,,,,,,,,,,,,,,,,,,,,,,,,,,,,,,,41,rebuscar,,,,,604.8059,605.9022,1,1,0.5587,,0,54,54,40,1,REAL,FAKE,,,,,,,,,,,,,,,,,
,,,,,,,,,,,click here to respond,click here to respond,click here to respond,2025-08-13_17h50.50.121,empathy_intonation_perc,2024.2.4,Win32,59.52380952,5aadcaf1e1546900019af287,687ed1b7e638a4cbf2f02089,689d08ac8e85813c4053d4c1,,,,,,,,,,,,,,1,,,,,,,,,,,,,,,,,,,,,,,,,,,,,,,,,,,,,,,,,,,,,,,,,,,,,,,,,91,click the 1 key.,,,,,605.9036,607.2187,1,1,0.7782,,0,55,55,90,1,REAL,FAKE,,,,,,,,,,,,,,,,,
,,,,,,,,,,,click here to respond,click here to respond,click here to respond,2025-08-13_17h50.50.121,empathy_intonation_perc,2024.2.4,Win32,59.52380952,5aadcaf1e1546900019af287,687ed1b7e638a4cbf2f02089,689d08ac8e85813c4053d4c1,,,,,,,,,,,,,,0,,,,,,,,,,,,,,,,,,,,,,,,,,,,,,,,,,,,,,,,,,,,,,,,,,,,,,,,,84,escuto,,,,,607.2192,608.7856,0,1,1.0222,,0,56,56,83,1,REAL,FAKE,,,,,,,,,,,,,,,,,
,,,,,,,,,,,click here to respond,click here to respond,click here to respond,2025-08-13_17h50.50.121,empathy_intonation_perc,2024.2.4,Win32,59.52380952,5aadcaf1e1546900019af287,687ed1b7e638a4cbf2f02089,689d08ac8e85813c4053d4c1,,,,,,,,,,,,,,1,,,,,,,,,,,,,,,,,,,,,,,,,,,,,,,,,,,,,,,,,,,,,,,,,,,,,,,,,76,atar,,,,,608.7868,609.902,1,1,0.5758,,0,57,57,75,1,REAL,FAKE,,,,,,,,,,,,,,,,,
,,,,,,,,,,,click here to respond,click here to respond,click here to respond,2025-08-13_17h50.50.121,empathy_intonation_perc,2024.2.4,Win32,59.52380952,5aadcaf1e1546900019af287,687ed1b7e638a4cbf2f02089,689d08ac8e85813c4053d4c1,,,,,,,,,,,,,,1,,,,,,,,,,,,,,,,,,,,,,,,,,,,,,,,,,,,,,,,,,,,,,,,,,,,,,,,,61,seda,,,,,609.9026,611.3855,0,0,0.9384,,0,58,58,60,1,REAL,FAKE,,,,,,,,,,,,,,,,,
,,,,,,,,,,,click here to respond,click here to respond,click here to respond,2025-08-13_17h50.50.121,empathy_intonation_perc,2024.2.4,Win32,59.52380952,5aadcaf1e1546900019af287,687ed1b7e638a4cbf2f02089,689d08ac8e85813c4053d4c1,,,,,,,,,,,,,,1,,,,,,,,,,,,,,,,,,,,,,,,,,,,,,,,,,,,,,,,,,,,,,,,,,,,,,,,,80,hormiga,,,,,611.3864,612.7851,0,0,0.8629,,0,59,59,79,1,REAL,FAKE,,,,,,,,,,,,,,,,,
,,,,,,,,,,,click here to respond,click here to respond,click here to respond,2025-08-13_17h50.50.121,empathy_intonation_perc,2024.2.4,Win32,59.52380952,5aadcaf1e1546900019af287,687ed1b7e638a4cbf2f02089,689d08ac8e85813c4053d4c1,,,,,,,,,,,,,,1,,,,,,,,,,,,,,,,,,,,,,,,,,,,,,,,,,,,,,,,,,,,,,,,,,,,,,,,,71,polvoriento,,,,,612.7855,613.8519,0,0,0.544,,0,60,60,70,1,REAL,FAKE,,,,,,,,,,,,,,,,,
,,,,,,,,,,,click here to respond,click here to respond,click here to respond,2025-08-13_17h50.50.121,empathy_intonation_perc,2024.2.4,Win32,59.52380952,5aadcaf1e1546900019af287,687ed1b7e638a4cbf2f02089,689d08ac8e85813c4053d4c1,,,,,,,,,,,,,,1,,,,,,,,,,,,,,,,,,,,,,,,,,,,,,,,,,,,,,,,,,,,,,,,,,,,,,,,,3,pulmones,,,,,613.8526,614.9184,0,0,0.5252,,0,61,61,2,1,REAL,FAKE,,,,,,,,,,,,,,,,,
,,,,,,,,,,,click here to respond,click here to respond,click here to respond,2025-08-13_17h50.50.121,empathy_intonation_perc,2024.2.4,Win32,59.52380952,5aadcaf1e1546900019af287,687ed1b7e638a4cbf2f02089,689d08ac8e85813c4053d4c1,,,,,,,,,,,,,,0,,,,,,,,,,,,,,,,,,,,,,,,,,,,,,,,,,,,,,,,,,,,,,,,,,,,,,,,,30,alardio,,,,,614.9194,616.0851,1,0,0.6362,,0,62,62,29,1,REAL,FAKE,,,,,,,,,,,,,,,,,
,,,,,,,,,,,click here to respond,click here to respond,click here to respond,2025-08-13_17h50.50.121,empathy_intonation_perc,2024.2.4,Win32,59.52380952,5aadcaf1e1546900019af287,687ed1b7e638a4cbf2f02089,689d08ac8e85813c4053d4c1,,,,,,,,,,,,,,0,,,,,,,,,,,,,,,,,,,,,,,,,,,,,,,,,,,,,,,,,,,,,,,,,,,,,,,,,47,cartinar,,,,,616.086,617.585,0,1,0.9506,,0,63,63,46,1,REAL,FAKE,,,,,,,,,,,,,,,,,
,,,,,,,,,,,click here to respond,click here to respond,click here to respond,2025-08-13_17h50.50.121,empathy_intonation_perc,2024.2.4,Win32,59.52380952,5aadcaf1e1546900019af287,687ed1b7e638a4cbf2f02089,689d08ac8e85813c4053d4c1,,,,,,,,,,,,,,1,,,,,,,,,,,,,,,,,,,,,,,,,,,,,,,,,,,,,,,,,,,,,,,,,,,,,,,,,5,zapato,,,,,617.5864,618.8683,0,0,0.7438,,0,64,64,4,1,REAL,FAKE,,,,,,,,,,,,,,,,,
,,,,,,,,,,,click here to respond,click here to respond,click here to respond,2025-08-13_17h50.50.121,empathy_intonation_perc,2024.2.4,Win32,59.52380952,5aadcaf1e1546900019af287,687ed1b7e638a4cbf2f02089,689d08ac8e85813c4053d4c1,,,,,,,,,,,,,,0,,,,,,,,,,,,,,,,,,,,,,,,,,,,,,,,,,,,,,,,,,,,,,,,,,,,,,,,,23,lampera,,,,,618.8698,620.3014,0,1,0.8919,,0,65,65,22,1,REAL,FAKE,,,,,,,,,,,,,,,,,
,,,,,,,,,,,click here to respond,click here to respond,click here to respond,2025-08-13_17h50.50.121,empathy_intonation_perc,2024.2.4,Win32,59.52380952,5aadcaf1e1546900019af287,687ed1b7e638a4cbf2f02089,689d08ac8e85813c4053d4c1,,,,,,,,,,,,,,0,,,,,,,,,,,,,,,,,,,,,,,,,,,,,,,,,,,,,,,,,,,,,,,,,,,,,,,,,53,vegada,,,,,620.3019,621.4683,0,1,0.6278,,0,66,66,52,1,REAL,FAKE,,,,,,,,,,,,,,,,,
,,,,,,,,,,,click here to respond,click here to respond,click here to respond,2025-08-13_17h50.50.121,empathy_intonation_perc,2024.2.4,Win32,59.52380952,5aadcaf1e1546900019af287,687ed1b7e638a4cbf2f02089,689d08ac8e85813c4053d4c1,,,,,,,,,,,,,,0,,,,,,,,,,,,,,,,,,,,,,,,,,,,,,,,,,,,,,,,,,,,,,,,,,,,,,,,,50,flamida,,,,,621.4689,622.8847,0,1,0.8934,,0,67,67,49,1,REAL,FAKE,,,,,,,,,,,,,,,,,
,,,,,,,,,,,click here to respond,click here to respond,click here to respond,2025-08-13_17h50.50.121,empathy_intonation_perc,2024.2.4,Win32,59.52380952,5aadcaf1e1546900019af287,687ed1b7e638a4cbf2f02089,689d08ac8e85813c4053d4c1,,,,,,,,,,,,,,1,,,,,,,,,,,,,,,,,,,,,,,,,,,,,,,,,,,,,,,,,,,,,,,,,,,,,,,,,67,cabello,,,,,622.8857,624.1514,0,0,0.7237,,0,68,68,66,1,REAL,FAKE,,,,,,,,,,,,,,,,,
,,,,,,,,,,,click here to respond,click here to respond,click here to respond,2025-08-13_17h50.50.121,empathy_intonation_perc,2024.2.4,Win32,59.52380952,5aadcaf1e1546900019af287,687ed1b7e638a4cbf2f02089,689d08ac8e85813c4053d4c1,,,,,,,,,,,,,,1,,,,,,,,,,,,,,,,,,,,,,,,,,,,,,,,,,,,,,,,,,,,,,,,,,,,,,,,,37,granuja,,,,,624.1525,625.2542,0,0,0.5668,,0,69,69,36,1,REAL,FAKE,,,,,,,,,,,,,,,,,
,,,,,,,,,,,click here to respond,click here to respond,click here to respond,2025-08-13_17h50.50.121,empathy_intonation_perc,2024.2.4,Win32,59.52380952,5aadcaf1e1546900019af287,687ed1b7e638a4cbf2f02089,689d08ac8e85813c4053d4c1,,,,,,,,,,,,,,1,,,,,,,,,,,,,,,,,,,,,,,,,,,,,,,,,,,,,,,,,,,,,,,,,,,,,,,,,31,pandilla,,,,,625.255,626.2845,0,0,0.4852,,0,70,70,30,1,REAL,FAKE,,,,,,,,,,,,,,,,,
,,,,,,,,,,,click here to respond,click here to respond,click here to respond,2025-08-13_17h50.50.121,empathy_intonation_perc,2024.2.4,Win32,59.52380952,5aadcaf1e1546900019af287,687ed1b7e638a4cbf2f02089,689d08ac8e85813c4053d4c1,,,,,,,,,,,,,,0,,,,,,,,,,,,,,,,,,,,,,,,,,,,,,,,,,,,,,,,,,,,,,,,,,,,,,,,,19,brecedad,,,,,626.2857,627.9843,0,1,1.1558,,0,71,71,18,1,REAL,FAKE,,,,,,,,,,,,,,,,,
,,,,,,,,,,,click here to respond,click here to respond,click here to respond,2025-08-13_17h50.50.121,empathy_intonation_perc,2024.2.4,Win32,59.52380952,5aadcaf1e1546900019af287,687ed1b7e638a4cbf2f02089,689d08ac8e85813c4053d4c1,,,,,,,,,,,,,,1,,,,,,,,,,,,,,,,,,,,,,,,,,,,,,,,,,,,,,,,,,,,,,,,,,,,,,,,,73,hervidor,,,,,627.9854,629.0508,0,0,0.5367,,0,72,72,72,1,REAL,FAKE,,,,,,,,,,,,,,,,,
,,,,,,,,,,,click here to respond,click here to respond,click here to respond,2025-08-13_17h50.50.121,empathy_intonation_perc,2024.2.4,Win32,59.52380952,5aadcaf1e1546900019af287,687ed1b7e638a4cbf2f02089,689d08ac8e85813c4053d4c1,,,,,,,,,,,,,,1,,,,,,,,,,,,,,,,,,,,,,,,,,,,,,,,,,,,,,,,,,,,,,,,,,,,,,,,,9,hacha,,,,,629.0517,630.1845,0,0,0.5844,,0,73,73,8,1,REAL,FAKE,,,,,,,,,,,,,,,,,
,,,,,,,,,,,click here to respond,click here to respond,click here to respond,2025-08-13_17h50.50.121,empathy_intonation_perc,2024.2.4,Win32,59.52380952,5aadcaf1e1546900019af287,687ed1b7e638a4cbf2f02089,689d08ac8e85813c4053d4c1,,,,,,,,,,,,,,1,,,,,,,,,,,,,,,,,,,,,,,,,,,,,,,,,,,,,,,,,,,,,,,,,,,,,,,,,89,prisa,,,,,630.1854,631.1509,1,1,0.4235,,0,74,74,88,1,REAL,FAKE,,,,,,,,,,,,,,,,,
,,,,,,,,,,,click here to respond,click here to respond,click here to respond,2025-08-13_17h50.50.121,empathy_intonation_perc,2024.2.4,Win32,59.52380952,5aadcaf1e1546900019af287,687ed1b7e638a4cbf2f02089,689d08ac8e85813c4053d4c1,,,,,,,,,,,,,,1,,,,,,,,,,,,,,,,,,,,,,,,,,,,,,,,,,,,,,,,,,,,,,,,,,,,,,,,,69,engatusar,,,,,631.1519,632.1537,1,1,0.4669,,0,75,75,68,1,REAL,FAKE,,,,,,,,,,,,,,,,,
,,,,,,,,,,,click here to respond,click here to respond,click here to respond,2025-08-13_17h50.50.121,empathy_intonation_perc,2024.2.4,Win32,59.52380952,5aadcaf1e1546900019af287,687ed1b7e638a4cbf2f02089,689d08ac8e85813c4053d4c1,,,,,,,,,,,,,,1,,,,,,,,,,,,,,,,,,,,,,,,,,,,,,,,,,,,,,,,,,,,,,,,,,,,,,,,,68,alegre,,,,,632.1545,633.2367,1,1,0.55,,0,76,76,67,1,REAL,FAKE,,,,,,,,,,,,,,,,,
,,,,,,,,,,,click here to respond,click here to respond,click here to respond,2025-08-13_17h50.50.121,empathy_intonation_perc,2024.2.4,Win32,59.52380952,5aadcaf1e1546900019af287,687ed1b7e638a4cbf2f02089,689d08ac8e85813c4053d4c1,,,,,,,,,,,,,,0,,,,,,,,,,,,,,,,,,,,,,,,,,,,,,,,,,,,,,,,,,,,,,,,,,,,,,,,,1,terzo,,,,,633.2374,634.2509,0,1,0.4784,,0,77,77,0,1,REAL,FAKE,,,,,,,,,,,,,,,,,
,,,,,,,,,,,click here to respond,click here to respond,click here to respond,2025-08-13_17h50.50.121,empathy_intonation_perc,2024.2.4,Win32,59.52380952,5aadcaf1e1546900019af287,687ed1b7e638a4cbf2f02089,689d08ac8e85813c4053d4c1,,,,,,,,,,,,,,1,,,,,,,,,,,,,,,,,,,,,,,,,,,,,,,,,,,,,,,,,,,,,,,,,,,,,,,,,39,torpe,,,,,634.2516,635.4674,0,0,0.6867,,0,78,78,38,1,REAL,FAKE,,,,,,,,,,,,,,,,,
,,,,,,,,,,,click here to respond,click here to respond,click here to respond,2025-08-13_17h50.50.121,empathy_intonation_perc,2024.2.4,Win32,59.52380952,5aadcaf1e1546900019af287,687ed1b7e638a4cbf2f02089,689d08ac8e85813c4053d4c1,,,,,,,,,,,,,,1,,,,,,,,,,,,,,,,,,,,,,,,,,,,,,,,,,,,,,,,,,,,,,,,,,,,,,,,,2,pellizcar,,,,,635.4681,637.0671,0,0,1.0612,,0,79,79,1,1,REAL,FAKE,,,,,,,,,,,,,,,,,
,,,,,,,,,,,click here to respond,click here to respond,click here to respond,2025-08-13_17h50.50.121,empathy_intonation_perc,2024.2.4,Win32,59.52380952,5aadcaf1e1546900019af287,687ed1b7e638a4cbf2f02089,689d08ac8e85813c4053d4c1,,,,,,,,,,,,,,1,,,,,,,,,,,,,,,,,,,,,,,,,,,,,,,,,,,,,,,,,,,,,,,,,,,,,,,,,11,cenefa,,,,,637.0679,638.2005,0,0,0.5893,,0,80,80,10,1,REAL,FAKE,,,,,,,,,,,,,,,,,
,,,,,,,,,,,click here to respond,click here to respond,click here to respond,2025-08-13_17h50.50.121,empathy_intonation_perc,2024.2.4,Win32,59.52380952,5aadcaf1e1546900019af287,687ed1b7e638a4cbf2f02089,689d08ac8e85813c4053d4c1,,,,,,,,,,,,,,1,,,,,,,,,,,,,,,,,,,,,,,,,,,,,,,,,,,,,,,,,,,,,,,,,,,,,,,,,85,laúd,,,,,638.2017,639.4504,1,1,0.7123,,0,81,81,84,1,REAL,FAKE,,,,,,,,,,,,,,,,,
,,,,,,,,,,,click here to respond,click here to respond,click here to respond,2025-08-13_17h50.50.121,empathy_intonation_perc,2024.2.4,Win32,59.52380952,5aadcaf1e1546900019af287,687ed1b7e638a4cbf2f02089,689d08ac8e85813c4053d4c1,,,,,,,,,,,,,,1,,,,,,,,,,,,,,,,,,,,,,,,,,,,,,,,,,,,,,,,,,,,,,,,,,,,,,,,,15,regar,,,,,639.4511,640.5836,0,0,0.6002,,0,82,82,14,1,REAL,FAKE,,,,,,,,,,,,,,,,,
,,,,,,,,,,,click here to respond,click here to respond,click here to respond,2025-08-13_17h50.50.121,empathy_intonation_perc,2024.2.4,Win32,59.52380952,5aadcaf1e1546900019af287,687ed1b7e638a4cbf2f02089,689d08ac8e85813c4053d4c1,,,,,,,,,,,,,,1,,,,,,,,,,,,,,,,,,,,,,,,,,,,,,,,,,,,,,,,,,,,,,,,,,,,,,,,,64,orgulloso,,,,,640.5846,641.8336,0,0,0.7131,,0,83,83,63,1,REAL,FAKE,,,,,,,,,,,,,,,,,
,,,,,,,,,,,click here to respond,click here to respond,click here to respond,2025-08-13_17h50.50.121,empathy_intonation_perc,2024.2.4,Win32,59.52380952,5aadcaf1e1546900019af287,687ed1b7e638a4cbf2f02089,689d08ac8e85813c4053d4c1,,,,,,,,,,,,,,1,,,,,,,,,,,,,,,,,,,,,,,,,,,,,,,,,,,,,,,,,,,,,,,,,,,,,,,,,13,helar,,,,,641.8347,642.8502,0,0,0.4956,,0,84,84,12,1,REAL,FAKE,,,,,,,,,,,,,,,,,
,,,,,,,,,,,click here to respond,click here to respond,click here to respond,2025-08-13_17h50.50.121,empathy_intonation_perc,2024.2.4,Win32,59.52380952,5aadcaf1e1546900019af287,687ed1b7e638a4cbf2f02089,689d08ac8e85813c4053d4c1,,,,,,,,,,,,,,0,,,,,,,,,,,,,,,,,,,,,,,,,,,,,,,,,,,,,,,,,,,,,,,,,,,,,,,,,72,pemición,,,,,642.8509,643.8363,0,1,0.4503,,0,85,85,71,1,REAL,FAKE,,,,,,,,,,,,,,,,,
,,,,,,,,,,,click here to respond,click here to respond,click here to respond,2025-08-13_17h50.50.121,empathy_intonation_perc,2024.2.4,Win32,59.52380952,5aadcaf1e1546900019af287,687ed1b7e638a4cbf2f02089,689d08ac8e85813c4053d4c1,,,,,,,,,,,,,,1,,,,,,,,,,,,,,,,,,,,,,,,,,,,,,,,,,,,,,,,,,,,,,,,,,,,,,,,,45,jilguero,,,,,643.8368,645.0506,0,0,0.6707,,0,86,86,44,1,REAL,FAKE,,,,,,,,,,,,,,,,,
,,,,,,,,,,,click here to respond,click here to respond,click here to respond,2025-08-13_17h50.50.121,empathy_intonation_perc,2024.2.4,Win32,59.52380952,5aadcaf1e1546900019af287,687ed1b7e638a4cbf2f02089,689d08ac8e85813c4053d4c1,,,,,,,,,,,,,,0,,,,,,,,,,,,,,,,,,,,,,,,,,,,,,,,,,,,,,,,,,,,,,,,,,,,,,,,,58,plaudir,,,,,645.0514,646.2667,0,1,0.6701,,0,87,87,57,1,REAL,FAKE,,,,,,,,,,,,,,,,,
,,,,,,,,,,,click here to respond,click here to respond,click here to respond,2025-08-13_17h50.50.121,empathy_intonation_perc,2024.2.4,Win32,59.52380952,5aadcaf1e1546900019af287,687ed1b7e638a4cbf2f02089,689d08ac8e85813c4053d4c1,,,,,,,,,,,,,,0,,,,,,,,,,,,,,,,,,,,,,,,,,,,,,,,,,,,,,,,,,,,,,,,,,,,,,,,,82,empirador,,,,,646.2673,647.4335,1,0,0.6292,,0,88,88,81,1,REAL,FAKE,,,,,,,,,,,,,,,,,
,,,,,,,,,,,click here to respond,click here to respond,click here to respond,2025-08-13_17h50.50.121,empathy_intonation_perc,2024.2.4,Win32,59.52380952,5aadcaf1e1546900019af287,687ed1b7e638a4cbf2f02089,689d08ac8e85813c4053d4c1,,,,,,,,,,,,,,1,,,,,,,,,,,,,,,,,,,,,,,,,,,,,,,,,,,,,,,,,,,,,,,,,,,,,,,,,54,fomentar,,,,,647.4343,649.6353,1,1,1.6659,,0,89,89,53,1,REAL,FAKE,,,,,,,,,,,,,,,,,
,,,,,,,,,,,click here to respond,click here to respond,click here to respond,2025-08-13_17h50.50.121,empathy_intonation_perc,2024.2.4,Win32,59.52380952,5aadcaf1e1546900019af287,687ed1b7e638a4cbf2f02089,689d08ac8e85813c4053d4c1,,,,,,,,,,,,,,1,,,,,,,,,,,,,,,,,,,,,,,,,,,,,,,,,,,,,,,,,,,,,,,,,,,,,,,,,26,secuestro,,,,,649.6359,650.9165,1,1,0.7349,,0,90,90,25,1,REAL,FAKE,,,,,,,,,,,,,,,,,
,,,,,,,,,,,click here to respond,click here to respond,click here to respond,2025-08-13_17h50.50.121,empathy_intonation_perc,2024.2.4,Win32,59.52380952,5aadcaf1e1546900019af287,687ed1b7e638a4cbf2f02089,689d08ac8e85813c4053d4c1,,,,,,,,,,,,,,1,,,,,,,,,,,,,,,,,,,,,,,,,,,,,,,,,,,,,,,,,,,,,,,,,,,,,,,,,57,tacaño,,,,,650.9173,652.1831,1,1,0.7194,,0,91,91,56,1,REAL,FAKE,,,,,,,,,,,,,,,,,
,,,,,,,,,,,click here to respond,click here to respond,click here to respond,2025-08-13_17h50.50.121,empathy_intonation_perc,2024.2.4,Win32,59.52380952,5aadcaf1e1546900019af287,687ed1b7e638a4cbf2f02089,689d08ac8e85813c4053d4c1,,,,,,,,,,,,,,,,,,,,,,,,,,,,,,,,,,,,,,,,,,,,,,,,,,,,,,,,,,,,,,,,,,,,,,,,,,,,,,,,,,,,,,,,,,652.1837,656.5169,,,,,,,,,,,,,,,
,,,,,,,,,,,click here to respond,click here to respond,click here to respond,2025-08-13_17h50.50.121,empathy_intonation_perc,2024.2.4,Win32,59.52380952,5aadcaf1e1546900019af287,687ed1b7e638a4cbf2f02089,689d08ac8e85813c4053d4c1,,,,,,,,,,,,,1,,,,,,,,,,,,,,,,,,,,,,,,,,,,,,,,,,,,,,,,,,,,,,,,,,,,,,,,,,,,,,,,,,,,,,,,,,,,,,,656.5214,664.1995,strongly agree,0,0,0,0,1,I can easily tell if someone else wants to enter a conversation.,1,0,1,0,,
,,,,,,,,,,,click here to respond,click here to respond,click here to respond,2025-08-13_17h50.50.121,empathy_intonation_perc,2024.2.4,Win32,59.52380952,5aadcaf1e1546900019af287,687ed1b7e638a4cbf2f02089,689d08ac8e85813c4053d4c1,,,,,,,,,,,,,2,,,,,,,,,,,,,,,,,,,,,,,,,,,,,,,,,,,,,,,,,,,,,,,,,,,,,,,,,,,,,,,,,,,,,,,,,,,,,,,664.2007,666.8327,slightly disagree,0,1,1,1,1,I prefer animals to humans.,0,1,0,0,,
,,,,,,,,,,,click here to respond,click here to respond,click here to respond,2025-08-13_17h50.50.121,empathy_intonation_perc,2024.2.4,Win32,59.52380952,5aadcaf1e1546900019af287,687ed1b7e638a4cbf2f02089,689d08ac8e85813c4053d4c1,,,,,,,,,,,,,3,,,,,,,,,,,,,,,,,,,,,,,,,,,,,,,,,,,,,,,,,,,,,,,,,,,,,,,,,,,,,,,,,,,,,,,,,,,,,,,666.8349,669.9325,slightly agree,0,2,2,2,1,I try to keep up with the current trends and fashions.,0,1,0,0,,
,,,,,,,,,,,click here to respond,click here to respond,click here to respond,2025-08-13_17h50.50.121,empathy_intonation_perc,2024.2.4,Win32,59.52380952,5aadcaf1e1546900019af287,687ed1b7e638a4cbf2f02089,689d08ac8e85813c4053d4c1,,,,,,,,,,,,,4,,,,,,,,,,,,,,,,,,,,,,,,,,,,,,,,,,,,,,,,,,,,,,,,,,,,,,,,,,,,,,,,,,,,,,,,,,,,,,,669.9346,671.149,slightly agree,0,3,3,3,1,"I find it difficult to explain to others things that I understand easily,   when they don't understand it first time.",1,0,0,1,,
,,,,,,,,,,,click here to respond,click here to respond,click here to respond,2025-08-13_17h50.50.121,empathy_intonation_perc,2024.2.4,Win32,59.52380952,5aadcaf1e1546900019af287,687ed1b7e638a4cbf2f02089,689d08ac8e85813c4053d4c1,,,,,,,,,,,,,5,,,,,,,,,,,,,,,,,,,,,,,,,,,,,,,,,,,,,,,,,,,,,,,,,,,,,,,,,,,,,,,,,,,,,,,,,,,,,,,671.15,673.049,strongly agree,0,4,4,4,1,I dream most nights.,0,1,0,0,,
,,,,,,,,,,,click here to respond,click here to respond,click here to respond,2025-08-13_17h50.50.121,empathy_intonation_perc,2024.2.4,Win32,59.52380952,5aadcaf1e1546900019af287,687ed1b7e638a4cbf2f02089,689d08ac8e85813c4053d4c1,,,,,,,,,,,,,6,,,,,,,,,,,,,,,,,,,,,,,,,,,,,,,,,,,,,,,,,,,,,,,,,,,,,,,,,,,,,,,,,,,,,,,,,,,,,,,673.0498,675.7656,slightly agree,0,5,5,5,1,I really enjoy caring for other people.,1,0,1,0,,
,,,,,,,,,,,click here to respond,click here to respond,click here to respond,2025-08-13_17h50.50.121,empathy_intonation_perc,2024.2.4,Win32,59.52380952,5aadcaf1e1546900019af287,687ed1b7e638a4cbf2f02089,689d08ac8e85813c4053d4c1,,,,,,,,,,,,,7,,,,,,,,,,,,,,,,,,,,,,,,,,,,,,,,,,,,,,,,,,,,,,,,,,,,,,,,,,,,,,,,,,,,,,,,,,,,,,,675.7672,677.6986,slightly disagree,0,6,6,6,1,I try to solve my own problems rather than discussing them with others.,0,1,0,0,,
,,,,,,,,,,,click here to respond,click here to respond,click here to respond,2025-08-13_17h50.50.121,empathy_intonation_perc,2024.2.4,Win32,59.52380952,5aadcaf1e1546900019af287,687ed1b7e638a4cbf2f02089,689d08ac8e85813c4053d4c1,,,,,,,,,,,,,8,,,,,,,,,,,,,,,,,,,,,,,,,,,,,,,,,,,,,,,,,,,,,,,,,,,,,,,,,,,,,,,,,,,,,,,,,,,,,,,677.6998,680.0484,slightly disagree,0,7,7,7,1,I find it hard to know what to do in a social situation.,1,0,0,1,,
,,,,,,,,,,,click here to respond,click here to respond,click here to respond,2025-08-13_17h50.50.121,empathy_intonation_perc,2024.2.4,Win32,59.52380952,5aadcaf1e1546900019af287,687ed1b7e638a4cbf2f02089,689d08ac8e85813c4053d4c1,,,,,,,,,,,,,9,,,,,,,,,,,,,,,,,,,,,,,,,,,,,,,,,,,,,,,,,,,,,,,,,,,,,,,,,,,,,,,,,,,,,,,,,,,,,,,680.0498,693.8321,slightly disagree,0,8,8,8,1,I am at my best first thing in the morning.,0,1,0,0,,
,,,,,,,,,,,click here to respond,click here to respond,click here to respond,2025-08-13_17h50.50.121,empathy_intonation_perc,2024.2.4,Win32,59.52380952,5aadcaf1e1546900019af287,687ed1b7e638a4cbf2f02089,689d08ac8e85813c4053d4c1,,,,,,,,,,,,,10,,,,,,,,,,,,,,,,,,,,,,,,,,,,,,,,,,,,,,,,,,,,,,,,,,,,,,,,,,,,,,,,,,,,,,,,,,,,,,,693.8336,695.9312,slightly agree,0,9,9,9,1,People often tell me that I went too far in driving my point home in a discussion.,1,0,0,1,,
,,,,,,,,,,,click here to respond,click here to respond,click here to respond,2025-08-13_17h50.50.121,empathy_intonation_perc,2024.2.4,Win32,59.52380952,5aadcaf1e1546900019af287,687ed1b7e638a4cbf2f02089,689d08ac8e85813c4053d4c1,,,,,,,,,,,,,11,,,,,,,,,,,,,,,,,,,,,,,,,,,,,,,,,,,,,,,,,,,,,,,,,,,,,,,,,,,,,,,,,,,,,,,,,,,,,,,695.9329,698.5308,slightly disagree,0,10,10,10,1,It doesn't bother me too much if I am late meeting a friend.,1,0,0,1,,
,,,,,,,,,,,click here to respond,click here to respond,click here to respond,2025-08-13_17h50.50.121,empathy_intonation_perc,2024.2.4,Win32,59.52380952,5aadcaf1e1546900019af287,687ed1b7e638a4cbf2f02089,689d08ac8e85813c4053d4c1,,,,,,,,,,,,,12,,,,,,,,,,,,,,,,,,,,,,,,,,,,,,,,,,,,,,,,,,,,,,,,,,,,,,,,,,,,,,,,,,,,,,,,,,,,,,,698.5326,700.3478,slightly agree,0,11,11,11,1,"Friendships and relationships are just too difficult, so I tend not to 
  bother with them.",1,0,0,1,,
,,,,,,,,,,,click here to respond,click here to respond,click here to respond,2025-08-13_17h50.50.121,empathy_intonation_perc,2024.2.4,Win32,59.52380952,5aadcaf1e1546900019af287,687ed1b7e638a4cbf2f02089,689d08ac8e85813c4053d4c1,,,,,,,,,,,,,13,,,,,,,,,,,,,,,,,,,,,,,,,,,,,,,,,,,,,,,,,,,,,,,,,,,,,,,,,,,,,,,,,,,,,,,,,,,,,,,700.3494,708.4974,slightly disagree,0,12,12,12,1,"I would never break a law, no matter how minor.",0,1,0,0,,
,,,,,,,,,,,click here to respond,click here to respond,click here to respond,2025-08-13_17h50.50.121,empathy_intonation_perc,2024.2.4,Win32,59.52380952,5aadcaf1e1546900019af287,687ed1b7e638a4cbf2f02089,689d08ac8e85813c4053d4c1,,,,,,,,,,,,,14,,,,,,,,,,,,,,,,,,,,,,,,,,,,,,,,,,,,,,,,,,,,,,,,,,,,,,,,,,,,,,,,,,,,,,,,,,,,,,,708.4989,709.2305,strongly disagree,0,13,13,13,1,I often find it difficult to judge if something is rude or polite.,1,0,0,1,,
,,,,,,,,,,,click here to respond,click here to respond,click here to respond,2025-08-13_17h50.50.121,empathy_intonation_perc,2024.2.4,Win32,59.52380952,5aadcaf1e1546900019af287,687ed1b7e638a4cbf2f02089,689d08ac8e85813c4053d4c1,,,,,,,,,,,,,15,,,,,,,,,,,,,,,,,,,,,,,,,,,,,,,,,,,,,,,,,,,,,,,,,,,,,,,,,,,,,,,,,,,,,,,,,,,,,,,709.2339,712.7476,slightly agree,0,14,14,14,1,"In a conversation, I tend to focus on my own thoughts rather than on what 
  my listener might be thinking.",1,0,0,1,,
